Folder: matl-db/Wood/Calibration_Data/Aalto (part 2)

File: Aalto_ExpDat_mcfp_STA_10N2800Trial04-1.csv
##Temp./›C,Time/min,DSC/(uV/mg),Mass/%,Gas Flow(purge2)/(ml/min),Gas Flow(protective)/(ml/min),DTG/(%/min),Sensit./(uV/mW)
40.012,0,-6.92E-03,100,0.00E+00,70,6.19821,1
44.512,1.65918,-4.80E-02,99.60932,0.00E+00,70,-0.31497,1
49.012,2.32141,-4.69E-02,99.44337,0.00E+00,70,-0.23405,1
53.512,2.89758,-4.72E-02,99.31345,0.00E+00,70,-0.19388,1
58.012,3.42017,-5.60E-02,99.24032,0.00E+00,70,-0.12093,1
62.512,3.8933,-7.15E-02,99.17561,0.00E+00,70,-0.16918,1
67.012,4.3319,-8.72E-02,99.10065,0.00E+00,70,-0.13776,1
71.512,4.74725,-0.10391,99.05149,0.00E+00,70,-0.14472,1
76.012,5.14678,-0.1217,98.97859,0.00E+00,70,-0.23239,1
80.512,5.53667,-0.14276,98.86675,0.00E+00,70,-0.22623,1
85.012,5.9184,-0.16759,98.8072,0.00E+00,70,-0.15212,1
89.512,6.29293,-0.19921,98.75187,0.00E+00,70,-0.16442,1
94.012,6.66376,-0.23401,98.67745,0.00E+00,70,-0.15557,1
98.512,7.03328,-0.27248,98.64379,0.00E+00,70,-0.13115,1
103.012,7.40223,-0.30933,98.5851,0.00E+00,70,-0.12698,1
107.512,7.7729,-0.34319,98.54457,0.00E+00,70,-4.28E-02,1
112.012,8.14466,-0.37671,98.56774,0.00E+00,70,-4.75E-03,1
116.512,8.52019,-0.40876,98.53467,0.00E+00,70,-1.86E-02,1
121.012,8.89723,-0.43948,98.54452,0.00E+00,70,5.33E-03,1
125.512,9.2768,-0.47137,98.55297,0.00E+00,70,-2.74E-02,1
130.012,9.65886,-0.50158,98.52716,0.00E+00,70,-2.90E-02,1
134.512,10.04343,-0.53267,98.51852,0.00E+00,70,-3.14E-02,1
139.012,10.43149,-0.56237,98.51053,0.00E+00,70,-5.61E-02,1
143.512,10.82321,-0.59243,98.48007,0.00E+00,70,-9.69E-03,1
148.012,11.21812,-0.62333,98.4839,0.00E+00,70,-3.27E-03,1
152.512,11.61766,-0.65422,98.48183,0.00E+00,70,-3.17E-02,1
157.012,12.02192,-0.6807,98.45627,0.00E+00,70,-5.86E-02,1
161.512,12.43061,-0.70481,98.43883,0.00E+00,70,-6.63E-02,1
166.012,12.84377,-0.72705,98.39685,0.00E+00,70,-0.10374,1
170.512,13.26039,-0.74912,98.3606,0.00E+00,70,-0.11408,1
175.012,13.68091,-0.76945,98.29609,0.00E+00,70,-0.16164,1
179.512,14.10465,-0.78907,98.22827,0.00E+00,70,-0.18587,1
184.012,14.53155,-0.8092,98.12717,0.00E+00,70,-0.25001,1
188.512,14.96054,-0.82687,98.01393,0.00E+00,70,-0.28799,1
193.012,15.39189,-0.84449,97.87797,0.00E+00,70,-0.33467,1
197.512,15.82653,-0.86157,97.73531,0.00E+00,70,-0.37074,1
202.012,16.26293,-0.8789,97.55368,0.00E+00,70,-0.45109,1
206.512,16.70196,-0.89678,97.33639,0.00E+00,70,-0.52629,1
211.012,17.14315,-0.91685,97.08054,0.00E+00,70,-0.58307,1
215.512,17.58663,-0.93745,96.82854,0.00E+00,70,-0.58124,1
220.012,18.03152,-0.96078,96.56286,0.00E+00,70,-0.64288,1
224.512,18.47799,-0.98409,96.26033,0.00E+00,70,-0.69714,1
229.012,18.92597,-1.01126,95.93986,0.00E+00,70,-0.76631,1
233.512,19.37452,-1.03784,95.57805,0.00E+00,70,-0.84801,1
238.012,19.82414,-1.06725,95.16951,0.00E+00,70,-0.95446,1
242.512,20.27355,-1.09616,94.71881,0.00E+00,70,-1.06479,1
247.012,20.72463,-1.12761,94.21252,0.00E+00,70,-1.21587,1
251.512,21.17569,-1.15853,93.61915,0.00E+00,70,-1.41317,1
256.012,21.6274,-1.19097,92.93771,0.00E+00,70,-1.53835,1
260.512,22.07895,-1.22479,92.21924,0.00E+00,70,-1.6934,1
265.012,22.53124,-1.25874,91.42354,0.00E+00,70,-1.86176,1
269.512,22.98239,-1.29225,90.5444,0.00E+00,70,-2.06547,1
274.012,23.43481,-1.32604,89.55556,0.00E+00,70,-2.26933,1
278.512,23.8868,-1.35978,88.49224,0.00E+00,70,-2.43876,1
283.012,24.33966,-1.39155,87.33801,0.00E+00,70,-2.65034,1
287.512,24.79219,-1.42467,86.0923,0.00E+00,70,-2.88416,1
292.012,25.24565,-1.45655,84.74142,0.00E+00,70,-3.20012,1
296.512,25.69897,-1.48951,83.15274,0.00E+00,70,-3.45829,1
301.012,26.15178,-1.51925,81.55755,0.00E+00,70,-3.73982,1
305.512,26.605,-1.54907,79.86452,0.00E+00,70,-4.00037,1
310.012,27.05842,-1.57526,77.9164,0.00E+00,70,-4.33395,1
314.512,27.51168,-1.60095,75.90224,0.00E+00,70,-4.69066,1
319.012,27.96453,-1.62386,73.68886,0.00E+00,70,-5.00057,1
323.512,28.41765,-1.64516,71.36177,0.00E+00,70,-5.32834,1
328.012,28.87116,-1.66226,68.87457,0.00E+00,70,-5.66558,1
332.512,29.32439,-1.68192,66.21605,0.00E+00,70,-5.96504,1
337.012,29.77669,-1.69425,63.44922,0.00E+00,70,-6.27942,1
341.512,30.2297,-1.70223,60.55082,0.00E+00,70,-6.60163,1
346.012,30.68287,-1.70202,57.45039,0.00E+00,70,-7.02691,1
350.512,31.13669,-1.6921,54.17807,0.00E+00,70,-7.51858,1
355.012,31.59049,-1.67084,50.62465,0.00E+00,70,-8.18587,1
359.512,32.04403,-1.64337,46.75482,0.00E+00,70,-8.88169,1
364.012,32.49762,-1.6025,42.58298,0.00E+00,70,-9.50982,1
368.512,32.95024,-1.56271,38.13351,0.00E+00,70,-9.81699,1
373.012,33.40338,-1.54064,33.71861,0.00E+00,70,-9.35163,1
377.512,33.857,-1.55498,29.70962,0.00E+00,70,-7.75189,1
382.012,34.30881,-1.6141,26.7314,0.00E+00,70,-5.16087,1
386.512,34.7602,-1.6956,25.06615,0.00E+00,70,-2.63627,1
391.012,35.21085,-1.7571,24.298,0.00E+00,70,-1.28185,1
395.512,35.66158,-1.7807,23.84138,0.00E+00,70,-0.95118,1
400.012,36.11271,-1.79632,23.44896,0.00E+00,70,-0.87433,1
404.512,36.56399,-1.8127,23.05494,0.00E+00,70,-0.80293,1
409.012,37.01519,-1.831,22.69898,0.00E+00,70,-0.76602,1
413.512,37.46675,-1.84854,22.36086,0.00E+00,70,-0.74523,1
418.012,37.91785,-1.86341,22.02851,0.00E+00,70,-0.74345,1
422.512,38.36956,-1.87462,21.71488,0.00E+00,70,-0.67886,1
427.012,38.82033,-1.88271,21.40337,0.00E+00,70,-0.68955,1
431.512,39.27155,-1.88035,21.09559,0.00E+00,70,-0.6742,1
436.012,39.72197,-1.87166,20.78176,0.00E+00,70,-0.67128,1
440.512,40.17167,-1.85415,20.49781,0.00E+00,70,-0.59773,1
445.012,40.62095,-1.8242,20.24209,0.00E+00,70,-0.58785,1
449.512,41.06908,-1.77768,19.98833,0.00E+00,70,-0.52859,1
454.012,41.51633,-1.71975,19.75914,0.00E+00,70,-0.52922,1
458.512,41.96441,-1.65632,19.5158,0.00E+00,70,-0.51323,1
463.012,42.41369,-1.58946,19.28385,0.00E+00,70,-0.47359,1
467.512,42.86204,-1.52303,19.10482,0.00E+00,70,-0.40907,1
472.012,43.3101,-1.45161,18.90626,0.00E+00,70,-0.41995,1
476.512,43.75846,-1.3808,18.7343,0.00E+00,70,-0.37738,1
481.012,44.2074,-1.30502,18.57355,0.00E+00,70,-0.32706,1
485.512,44.65616,-1.22728,18.42309,0.00E+00,70,-0.33658,1
490.012,45.1053,-1.14969,18.28067,0.00E+00,70,-0.33266,1
494.512,45.55443,-1.06916,18.12964,0.00E+00,70,-0.29392,1
499.012,46.00448,-0.99326,18.00795,0.00E+00,70,-0.33548,1
503.512,46.45457,-0.91973,17.81411,0.00E+00,70,-0.38679,1
508.012,46.90509,-0.84877,17.6861,0.00E+00,70,-0.25907,1
512.512,47.35657,-0.78689,17.58938,0.00E+00,70,-0.20862,1
517.012,47.80864,-0.73474,17.481,0.00E+00,70,-0.2299,1
521.512,48.26103,-0.69366,17.37918,0.00E+00,70,-0.22159,1
526.012,48.71415,-0.66436,17.2889,0.00E+00,70,-0.20683,1
530.512,49.16842,-0.6483,17.18487,0.00E+00,70,-0.22493,1
535.012,49.62299,-0.64803,17.0794,0.00E+00,70,-0.20938,1
539.512,50.07819,-0.66108,16.99592,0.00E+00,70,-0.21447,1
544.012,50.53339,-0.69027,16.88733,0.00E+00,70,-0.22305,1
548.512,50.9884,-0.73652,16.79321,0.00E+00,70,-0.23348,1
553.012,51.44393,-0.79987,16.67844,0.00E+00,70,-0.23132,1
557.512,51.89936,-0.88237,16.58405,0.00E+00,70,-0.19736,1
562.012,52.35593,-0.98045,16.49573,0.00E+00,70,-0.21736,1
566.512,52.81295,-1.09491,16.38993,0.00E+00,70,-0.18808,1
571.012,53.2692,-1.22141,16.31725,0.00E+00,70,-0.181,1
575.512,53.72593,-1.3611,16.21734,0.00E+00,70,-0.13467,1
580.012,54.18223,-1.50288,16.18427,0.00E+00,70,-0.15898,1
584.512,54.63716,-1.64848,16.08762,0.00E+00,70,-0.21612,1
589.012,55.09136,-1.79101,15.98854,0.00E+00,70,-0.24927,1
593.512,55.54437,-1.93368,15.87879,0.00E+00,70,-0.20415,1
598.012,55.99609,-2.06739,15.7922,0.00E+00,70,-0.21934,1
602.512,56.44758,-2.18943,15.71799,0.00E+00,70,-0.10431,1
607.012,56.89897,-2.30374,15.65657,0.00E+00,70,-0.1968,1
611.512,57.34967,-2.40924,15.55977,0.00E+00,70,-0.25276,1
616.012,57.79964,-2.50303,15.46642,0.00E+00,70,-0.11591,1
620.512,58.24943,-2.5856,15.39938,0.00E+00,70,-0.13402,1
625.012,58.69878,-2.66177,15.34733,0.00E+00,70,-0.14072,1
629.512,59.1473,-2.72719,15.29057,0.00E+00,70,-0.19176,1
634.012,59.59672,-2.77787,15.21686,0.00E+00,70,-0.10342,1
638.512,60.04548,-2.8253,15.1516,0.00E+00,70,-0.1177,1
643.012,60.49365,-2.8659,15.109,0.00E+00,70,-9.17E-02,1
647.512,60.94196,-2.89843,15.05379,0.00E+00,70,-0.11754,1
652.012,61.39019,-2.92688,15.00412,0.00E+00,70,-0.11489,1
656.512,61.83833,-2.94846,14.95521,0.00E+00,70,-0.11911,1
661.012,62.28769,-2.96204,14.89958,0.00E+00,70,-0.10463,1
665.512,62.73659,-2.97714,14.87501,0.00E+00,70,-4.91E-02,1
670.012,63.18504,-2.99186,14.84263,0.00E+00,70,-6.41E-02,1
674.512,63.63351,-2.99963,14.81877,0.00E+00,70,-0.11657,1
679.012,64.08343,-3.00595,14.74404,0.00E+00,70,-0.14218,1
683.512,64.53185,-3.00703,14.68278,0.00E+00,70,-5.72E-02,1
688.012,64.97948,-3.01041,14.68531,0.00E+00,70,-4.12E-02,1
692.512,65.42733,-3.01116,14.65835,0.00E+00,70,-6.86E-02,1
697.012,65.87557,-3.01121,14.59606,0.00E+00,70,-0.13687,1
701.512,66.32523,-3.01176,14.55869,0.00E+00,70,-9.67E-02,1
706.012,66.77451,-3.01011,14.51175,0.00E+00,70,-0.10584,1
710.512,67.2244,-3.00864,14.46753,0.00E+00,70,-9.20E-02,1
715.012,67.6741,-3.00506,14.42945,0.00E+00,70,-7.30E-02,1
719.512,68.12339,-3.00408,14.39093,0.00E+00,70,-8.71E-02,1
724.012,68.5739,-2.99008,14.36446,0.00E+00,70,-1.42E-02,1
728.512,69.02436,-2.98248,14.36072,0.00E+00,70,-5.80E-02,1
733.012,69.474,-2.97126,14.31841,0.00E+00,70,-0.10225,1
737.512,69.92397,-2.95259,14.27377,0.00E+00,70,-6.57E-02,1
742.012,70.37448,-2.93227,14.26049,0.00E+00,70,3.84E-03,1
746.512,70.82361,-2.91389,14.25338,0.00E+00,70,-5.29E-02,1
751.012,71.27396,-2.88921,14.23042,0.00E+00,70,-7.18E-02,1
755.512,71.72446,-2.86652,14.18863,0.00E+00,70,-7.36E-02,1
760.012,72.17429,-2.84333,14.15913,0.00E+00,70,-0.16449,1
764.512,72.6241,-2.81555,14.11408,0.00E+00,70,1.94E-02,1
769.012,73.07381,-2.7907,14.1026,0.00E+00,70,-5.17E-02,1
773.512,73.52402,-2.76541,14.06722,0.00E+00,70,-0.11636,1
778.012,73.97395,-2.73721,14.01627,0.00E+00,70,-6.24E-02,1
782.512,74.42306,-2.71014,13.99452,0.00E+00,70,-5.60E-02,1
787.012,74.87228,-2.68133,13.96699,0.00E+00,70,-7.68E-02,1
791.512,75.32209,-2.65741,13.85489,0.00E+00,70,-6.17E-02,1
796.012,75.7718,-2.62779,13.93258,0.00E+00,70,-2.05E-02,1
797.512,75.92149,-2.61904,13.92328,0.00E+00,70,-6.45E-02,1

File: Aalto_Wood_STA_N2_10K_R1.csv
Time (s),Temperature (K),Mass (mg)
0,313.15,7.427
84.0258,316.143,7.421
113.7846,319.136,7.42016
138.9312,322.13,7.41865
162.0252,325.123,7.4189
183.6252,328.116,7.4166
204.1512,331.109,7.41319
223.4418,334.103,7.41002
241.6422,337.096,7.40654
258.9354,340.0892,7.402
275.7276,343.082,7.39836
291.9924,346.076,7.39428
307.8636,349.069,7.39057
323.5194,352.062,7.38497
338.9196,355.055,7.38151
354.1296,358.049,7.37949
369.1512,361.0419,7.37758
384.042,364.035,7.3755
398.8488,367.028,7.37066
413.5926,370.022,7.36885
428.3232,373.015,7.36641
443.0424,376.008,7.36441
457.7982,379.001,7.3637
472.6506,381.995,7.363
487.5582,384.988,7.36385
502.5492,387.9811,7.3612
517.572,390.974,7.36072
532.6614,393.968,7.36109
547.7832,396.961,7.36032
563.0166,399.954,7.35892
578.2686,402.947,7.35941
593.5542,405.941,7.35795
608.9736,408.934,7.3569
624.4722,411.927,7.35662
640.0656,414.9203,7.35382
655.7208,417.914,7.35475
671.5236,420.907,7.35264
687.426,423.9,7.35189
703.4244,426.893,7.35101
719.544,429.887,7.34944
735.84,432.88,7.34811
752.1582,435.873,7.34663
768.6618,438.866,7.34368
785.28,441.859,7.34143
802.0146,444.853,7.33841
818.802,447.846,7.33554
835.7028,450.839,7.33122
852.6372,453.832,7.32583
869.6538,456.826,7.32055
886.8114,459.819,7.31525
904.0248,462.8122,7.30876
921.2856,465.805,7.30066
938.6208,468.799,7.29072
956.0088,471.792,7.28108
973.449,474.785,7.26934
990.9702,477.778,7.2587
1008.55,480.772,7.2462
1026.16,483.765,7.23313
1043.838,486.758,7.21975
1061.58,489.7514,7.2052
1079.34,492.745,7.19139
1097.13,495.738,7.17712
1114.971,498.731,7.16335
1132.854,501.724,7.14401
1150.79,504.718,7.12742
1168.683,507.711,7.107
1186.6,510.7041,7.08939
1204.57,513.697,7.06791
1222.599,516.691,7.04285
1240.57,519.684,7.01716
1258.59,522.677,6.98882
1276.6,525.67,6.95755
1294.65,528.664,6.92408
1312.68,531.657,6.89007
1330.74,534.65,6.85049
1348.78,537.6433,6.81035
1366.8,540.637,6.76561
1384.83,543.63,6.72141
1402.9,546.623,6.66947
1420.91,549.616,6.61751
1438.99,552.61,6.56573
1457.06,555.603,6.51109
1475.15,558.596,6.44906
1493.2,561.589,6.38276
1511.33,564.5825,6.31515
1529.38,567.576,6.23333
1547.48,570.569,6.16658
1565.58,573.562,6.08912
1583.69,576.555,5.99562
1601.76,579.549,5.91441
1619.86,582.542,5.82057
1637.94,585.5352,5.7205
1656.01,588.528,5.61733
1674.04,591.522,5.50724
1692.11,594.515,5.39342
1710.21,597.508,5.2754
1728.28,600.501,5.15271
1746.4,603.495,5.02294
1764.5,606.488,4.89106
1782.61,609.481,4.75284
1800.687,612.4744,4.61055
1818.756,615.468,4.46549
1836.85,618.461,4.31305
1854.915,621.454,4.15428
1873.01,624.447,3.98784
1891.1,627.441,3.81485
1909.18,630.434,3.62747
1927.32,633.427,3.42937
1945.39,636.42,3.22284
1963.49,639.4136,3.00695
1981.59,642.407,2.78676
1999.68,645.4,2.56694
2017.76,648.393,2.35797
2035.83,651.387,2.1725
2053.84,654.38,2.02215
2071.842,657.373,1.91859
2089.82,660.3663,1.84993
2107.76,663.36,1.81388
2125.755,666.353,1.78986
2143.79,669.346,1.77024
2161.82,672.339,1.75042
2179.86,675.333,1.73068
2197.902,678.326,1.71478
2215.93,681.319,1.69846
2233.92,684.312,1.68226
2251.92,687.3055,1.66489
2269.93,690.299,1.65023
2287.93,693.292,1.63344
2305.88,696.285,1.61882
2323.83,699.278,1.60441
2341.79,702.272,1.58877
2359.78,705.265,1.574
2377.77,708.258,1.56067
2395.73,711.251,1.54639
2413.67,714.2447,1.53354
2431.659,717.238,1.52105
2449.61,720.231,1.50592
2467.52,723.224,1.49462
2485.48,726.218,1.48367
2503.38,729.211,1.47269
2521.311,732.204,1.46046
2539.27,735.1974,1.44902
2557.19,738.191,1.43993
2575.09,741.184,1.4313
2593.01,744.177,1.42253
2610.94,747.17,1.41299
2628.91,750.164,1.40479
2646.93,753.157,1.3962
2664.94,756.15,1.38848
2682.95,759.143,1.3823
2700.98,762.1366,1.37389
2719.04,765.13,1.36683
2737.12,768.123,1.36213
2755.22,771.116,1.35513
2773.34,774.11,1.34805
2791.48,777.103,1.33677
2809.61,780.096,1.33036
2827.75,783.089,1.32394
2845.93,786.083,1.32022
2864.142,789.0758,1.3169
2882.37,792.069,1.31297
2900.57,795.062,1.30522
2918.77,798.056,1.30182
2936.99,801.049,1.2968
2955.22,804.042,1.29101
2973.45,807.035,1.28635
2991.64,810.0285,1.27997
3009.77,813.022,1.27593
3027.91,816.015,1.2721
3046.008,819.008,1.26727
3064.14,822.001,1.26854
3082.18,824.995,1.25442
3100.22,827.988,1.24991
3118.233,830.981,1.24557
3136.245,833.974,1.24208
3154.221,836.9677,1.23725
3172.2,839.961,1.23398
3190.2,842.954,1.2315
3208.14,845.947,1.22477
3226.09,848.941,1.21989
3244.01,851.934,1.22274
3261.95,854.927,1.21703
3279.84,857.92,1.2124
3297.75,860.914,1.21048
3315.72,863.9069,1.20417
3333.68,866.9,1.19917
3351.62,869.893,1.19426
3369.54,872.887,1.18595
3387.47,875.88,1.18695
3405.41,878.873,1.18422
3423.375,881.866,1.18053
3441.29,884.8596,1.1769
3459.25,887.853,1.17076
3477.21,890.846,1.16919
3495.2,893.839,1.16517
3513.18,896.833,1.16167
3531.1,899.826,1.1579
3549.06,902.819,1.1531
3566.98,905.812,1.15119
3584.9,908.806,1.14991
3602.86,911.7988,1.14643
3620.81,914.792,1.14344
3638.739,917.785,1.14233
3656.66,920.779,1.13932
3674.613,923.772,1.13664
3692.54,926.765,1.1339
3710.45,929.758,1.13099
3728.39,932.752,1.12869
3746.32,935.745,1.12736
3764.28,938.738,1.12578
3782.22,941.731,1.12377
3800.15,944.724,1.12138
3818.09,947.718,1.12124
3836.08,950.711,1.11732
3854.01,953.704,1.1135
3871.94,956.697,1.11127
3889.89,959.6907,1.11171
3907.81,962.684,1.10931
3925.722,965.677,1.10678
3943.67,968.67,1.10383
3961.63,971.664,1.11155
3979.569,974.657,1.1047
3997.45,977.65,1.10108
4015.37,980.643,1.09999
4033.28,983.637,1.09192
4051.24,986.6299,1.09352
4069.15,989.623,1.08614
4087.08,992.616,1.08631
4105.02,995.61,1.08646
4122.96,998.603,1.08761
4140.9,1001.6,1.08603
4158.82,1004.59,1.08474
4176.77,1007.58,1.08206
4194.747,1010.58,1.08123
4212.621,1013.57,1.07863
4230.5,1016.56,1.08034
4248.42,1019.56,1.07937
4266.36,1022.55,1.07766
4284.32,1025.54,1.07588
4302.279,1028.54,1.07404
4320.21,1031.53,1.07097
4338.17,1034.52,1.0681
4356.11,1037.52,1.06471
4374.06,1040.51,1.0654
4391.997,1043.5,1.0635
4409.89,1046.49,1.06292
4427.82,1049.49,1.0599
4445.78,1052.48,1.05894
4463.69,1055.47,1.05731
4481.62,1058.47,1.05713
4499.55,1061.461,1.05494
4517.45,1064.45,1.04627
4535.4,1067.45,1.052
4553.34,1070.44,1.05229
4556.35,1070.94,1.05216

File: Aalto_Wood_STA_N2_10K_R2.csv
Time (s),Temperature (K),Mass (mg),,,,
0,313.129,8.0765,,,,
82.9776,316.129,8.05019,,,,
113.0922,319.129,8.03848,,,,
138.4542,322.129,8.02956,,,,
161.8614,325.129,8.02533,,,,
183.7278,328.129,8.01966,,,,
204.3138,331.129,8.01563,,,,
223.5708,334.129,8.01184,,,,
241.7844,337.129,8.00556,,,,
259.197,340.129,8.00153,,,,
275.9034,343.129,7.99752,,,,
292.1706,346.129,7.9938,,,,
308.121,349.129,7.98941,,,,
323.754,352.129,7.98234,,,,
339.1956,355.129,7.97746,,,,
354.4386,358.129,7.97319,,,,
369.4932,361.129,7.96884,,,,
384.4326,364.129,7.96643,,,,
399.2814,367.129,7.96227,,,,
414.042,370.129,7.96009,,,,
428.811,373.129,7.95783,,,,
443.5674,376.129,7.95517,,,,
458.37,379.129,7.95301,,,,
473.2194,382.129,7.95119,,,,
488.16,385.129,7.95113,,,,
503.1354,388.129,7.94919,,,,
518.1834,391.129,7.94867,,,,
533.3286,394.129,7.94872,,,,
548.5242,397.129,7.94861,,,,
563.7684,400.129,7.94773,,,,
579.0504,403.129,7.9474,,,,
594.4566,406.129,7.94676,,,,
609.9354,409.129,7.94709,,,,
625.458,412.129,7.94761,,,,
641.1102,415.129,7.9447,,,,
656.865,418.129,7.94481,,,,
672.6984,421.129,7.94437,,,,
688.662,424.129,7.94431,,,,
704.7276,427.129,7.94372,,,,
720.9384,430.129,7.94213,,,,
737.283,433.129,7.94086,,,,
753.6876,436.129,7.93887,,,,
770.2566,439.129,7.93606,,,,
786.9276,442.129,7.93517,,,,
803.6964,445.129,7.93187,,,,
820.5834,448.129,7.92856,,,,
837.5508,451.129,7.92463,,,,
854.589,454.129,7.9182,,,,
871.6776,457.129,7.91414,,,,
888.8364,460.129,7.90803,,,,
906.102,463.129,7.89983,,,,
923.37,466.129,7.89159,,,,
940.752,469.129,7.88343,,,,
958.1388,472.129,7.87222,,,,
975.6642,475.129,7.86047,,,,
993.2136,478.129,7.84905,,,,
1010.88,481.129,7.8378,,,,
1028.56,484.129,7.82212,,,,
1046.28,487.129,7.8067,,,,
1064.058,490.129,7.7932,,,,
1081.85,493.129,7.77926,,,,
1099.68,496.129,7.76313,,,,
1117.59,499.129,7.74592,,,,
1135.48,502.129,7.72875,,,,
1153.41,505.129,7.70993,,,,
1171.36,508.129,7.68936,,,,
1189.329,511.129,7.66901,,,,
1207.34,514.129,7.64408,,,,
1225.344,517.129,7.6176,,,,
1243.36,520.129,7.58837,,,,
1261.38,523.129,7.5557,,,,
1279.45,526.129,7.52286,,,,
1297.46,529.129,7.48628,,,,
1315.45,532.129,7.44753,,,,
1333.545,535.129,7.40693,,,,
1351.614,538.129,7.36,,,,
1369.69,541.129,7.3121,,,,
1387.743,544.129,7.26193,,,,
1405.81,547.129,7.209369,,,,
1423.92,550.129,7.14943,,,,
1442.05,553.129,7.08933,,,,
1460.154,556.129,7.02666,,,,
1478.27,559.129,6.95958,,,,
1496.41,562.129,6.887,,,,
1514.49,565.129,6.81554,,,,
1532.61,568.129,6.73526,,,,
1550.73,571.129,6.64936,,,,
1568.84,574.129,6.56178,,,,
1586.91,577.129,6.46774,,,,
1605.03,580.129,6.36712,,,,
1623.16,583.129,6.26129,,,,
1641.29,586.129,6.15324,,,,
1659.4,589.129,6.03673,,,,
1677.46,592.129,5.91586,,,,
1695.57,595.129,5.79081,,,,
1713.69,598.129,5.65798,,,,
1731.77,601.129,5.52356,,,,
1749.88,604.129,5.38029,,,,
1767.981,607.129,5.23349,,,,
1786.1,610.129,5.08007,,,,
1804.15,613.129,4.92545,,,,
1822.22,616.129,4.7625,,,,
1840.31,619.129,4.59387,,,,
1858.344,622.129,4.42095,,,,
1876.46,625.129,4.23616,,,,
1894.57,628.129,4.04261,,,,
1912.7,631.129,3.83885,,,,
1930.81,634.129,3.62265,,,,
1948.96,637.129,3.39525,,,,
1967.09,640.129,3.15894,,,,
1985.22,643.129,2.9214,,,,
2003.27,646.129,2.69134,,,,
2021.32,649.129,2.48186,,,,
2039.28,652.129,2.30728,,,,
2057.23,655.129,2.17479,,,,
2075.08,658.129,2.09433,,,,
2093.31,661.129,2.04125,,,,
2111.88,664.129,2.01177,,,,
2130.22,667.129,1.98994,,,,
2148.41,670.129,1.9686,,,,
2166.49,673.129,1.94925,,,,
2184.61,676.129,1.92922,,,,
2202.76,679.129,1.91095,,,,
2220.89,682.129,1.89389,,,,
2238.95,685.129,1.87702,,,,
2257.02,688.129,1.86084,,,,
2275.08,691.129,1.84595,,,,
2293.17,694.129,1.83011,,,,
2311.27,697.129,1.81525,,,,
2329.35,700.129,1.801,,,,
2347.434,703.129,1.78593,,,,
2365.48,706.129,1.7717,,,,
2383.54,709.129,1.75641,,,,
2401.617,712.129,1.7431,,,,
2419.731,715.129,1.72984,,,,
2437.83,718.129,1.71599,,,,
2455.92,721.129,1.70402,,,,
2474.03,724.129,1.6928,,,,
2492.16,727.129,1.68107,,,,
2510.29,730.129,1.67003,,,,
2528.39,733.129,1.65866,,,,
2546.51,736.129,1.64747,,,,
2564.64,739.129,1.63727,,,,
2582.83,742.129,1.62845,,,,
2601.06,745.129,1.61877,,,,
2619.26,748.129,1.60937,,,,
2637.39,751.129,1.59949,,,,
2655.396,754.129,1.59239,,,,
2673.4,757.129,1.58477,,,,
2691.39,760.129,1.57715,,,,
2709.37,763.129,1.56885,,,,
2727.363,766.129,1.56311,,,,
2745.42,769.129,1.5556,,,,
2763.441,772.129,1.54856,,,,
2781.5,775.129,1.53746,,,,
2799.525,778.129,1.5269,,,,
2817.57,781.129,1.51981,,,,
2835.65,784.129,1.51232,,,,
2853.72,787.129,1.50655,,,,
2871.771,790.129,1.50223,,,,
2889.82,793.129,1.49596,,,,
2907.84,796.129,1.48856,,,,
2925.85,799.129,1.48261,,,,
2943.92,802.129,1.47486,,,,
2961.89,805.129,1.46842,,,,
2979.91,808.129,1.46193,,,,
2997.94,811.129,1.4553,,,,
3015.99,814.129,1.44872,,,,
3034.01,817.129,1.44263,,,,
3052.05,820.129,1.43552,,,,
3070.07,823.129,1.42809,,,,
3088.095,826.129,1.42075,,,,
3106.12,829.129,1.41474,,,,
3124.15,832.129,1.40684,,,,
3142.179,835.129,1.39954,,,,
3160.24,838.129,1.39326,,,,
3178.254,841.129,1.39004,,,,
3196.26,844.129,1.38444,,,,
3214.27,847.129,1.37507,,,,
3232.26,850.129,1.37046,,,,
3250.31,853.129,1.36555,,,,
3268.329,856.129,1.36013,,,,
3286.35,859.129,1.35388,,,,
3304.33,862.129,1.34707,,,,
3322.31,865.129,1.33916,,,,
3340.284,868.129,1.33238,,,,
3358.275,871.129,1.32531,,,,
3376.31,874.129,1.31651,,,,
3394.31,877.129,1.31509,,,,
3412.34,880.129,1.30834,,,,
3430.34,883.129,1.30104,,,,
3448.33,886.129,1.28799,,,,
3466.33,889.129,1.28803,,,,
3484.35,892.129,1.28183,,,,
3502.34,895.129,1.27691,,,,
3520.33,898.129,1.27144,,,,
3538.33,901.129,1.26708,,,,
3556.31,904.129,1.25617,,,,
3574.33,907.129,1.25701,,,,
3592.389,910.129,1.25183,,,,
3610.37,913.129,1.24552,,,,
3628.368,916.129,1.24146,,,,
3646.35,919.129,1.23677,,,,
3664.37,922.129,1.23276,,,,
3682.36,925.129,1.22712,,,,
3700.35,928.129,1.22181,,,,
3718.33,931.129,1.2176,,,,
3736.34,934.129,1.2127,,,,
3754.35,937.129,1.20917,,,,
3772.38,940.129,1.20564,,,,
3790.42,943.129,1.20176,,,,
3808.41,946.129,1.19882,,,,
3826.4,949.129,1.19554,,,,
3844.37,952.129,1.18854,,,,
3862.36,955.129,1.18239,,,,
3880.33,958.129,1.17805,,,,
3898.25,961.129,1.17617,,,,
3916.2,964.129,1.17347,,,,
3934.18,967.129,1.16993,,,,
3952.182,970.129,1.16545,,,,
3970.14,973.129,1.1611,,,,
3988.11,976.129,1.15828,,,,
4006.06,979.129,1.1536,,,,
4024.01,982.129,1.14909,,,,
4041.99,985.129,1.14534,,,,
4059.98,988.129,1.14202,,,,
4077.96,991.129,1.13829,,,,
4095.94,994.129,1.13458,,,,
4113.91,997.129,1.13251,,,,
4131.888,1000.129,1.12917,,,,
4149.91,1003.129,1.12603,,,,
4167.87,1006.129,1.12319,,,,
4185.88,1009.129,1.12001,,,,
4203.91,1012.129,1.11572,,,,
4221.93,1015.129,1.11381,,,,
4239.88,1018.129,1.11314,,,,
4257.837,1021.129,1.10934,,,,
4275.789,1024.129,1.10695,,,,
4293.681,1027.129,1.10321,,,,
4311.65,1030.129,1.09964,,,,
4329.66,1033.129,1.09602,,,,
4347.7,1036.129,1.08569,,,,
4365.72,1039.129,1.08959,,,,
4383.7,1042.129,1.0882,,,,
4401.67,1045.129,1.08415,,,,
4419.627,1048.129,1.07982,,,,
4437.6,1051.129,1.07687,,,,
4455.63,1054.129,1.07559,,,,
4473.62,1057.129,1.07297,,,,
4491.59,1060.129,1.07043,,,,
4509.58,1063.129,1.06708,,,,
4527.55,1066.129,1.06155,,,,
4545.483,1069.129,1.06202,,,,
4554.44,1070.629,1.0614,,,,