Folder: matl-db/Wood/Calibration_Data/Aalto (part 3)

File: Aalto_Wood_STA_N2_10K_R3.csv
Time (s),Temperature (K),Mass (mg),,,,
0,313.162,8.054,,,,
83.4786,316.162,8.02961,,,,
113.6928,319.162,8.01774,,,,
139.2846,322.162,8.00917,,,,
162.6846,325.162,8.00294,,,,
184.677,328.162,7.99625,,,,
205.2102,331.162,7.99282,,,,
224.391,334.162,7.99009,,,,
242.5662,337.162,7.98519,,,,
259.914,340.162,7.98157,,,,
276.6588,343.162,7.97904,,,,
292.9098,346.162,7.97638,,,,
308.8068,349.162,7.97174,,,,
324.4572,352.162,7.966,,,,
339.8664,355.162,7.96044,,,,
355.104,358.162,7.95793,,,,
370.1208,361.162,7.95482,,,,
385.0062,364.162,7.95185,,,,
399.8256,367.162,7.94748,,,,
414.6102,370.162,7.94587,,,,
429.372,373.162,7.94309,,,,
444.1338,376.162,7.94004,,,,
458.9442,379.162,7.93767,,,,
473.8026,382.162,7.93627,,,,
488.6796,385.162,7.93865,,,,
503.6658,388.162,7.93683,,,,
518.7588,391.162,7.93636,,,,
533.8338,394.162,7.93678,,,,
549.0132,397.162,7.93677,,,,
564.2142,400.162,7.93603,,,,
579.5316,403.162,7.93538,,,,
594.8898,406.162,7.9348,,,,
610.3458,409.162,7.93417,,,,
625.8894,412.162,7.93404,,,,
641.5446,415.162,7.93134,,,,
657.2538,418.162,7.93216,,,,
673.0872,421.162,7.93189,,,,
689.0346,424.162,7.93208,,,,
705.1158,427.162,7.93126,,,,
721.3152,430.162,7.92967,,,,
737.6418,433.162,7.9284,,,,
754.0632,436.162,7.92793,,,,
770.6262,439.162,7.92488,,,,
787.257,442.162,7.92269,,,,
804.0078,445.162,7.92046,,,,
820.8546,448.162,7.91677,,,,
837.7866,451.162,7.91337,,,,
854.8014,454.162,7.90892,,,,
871.893,457.162,7.90316,,,,
889.0572,460.162,7.89754,,,,
906.2292,463.162,7.89108,,,,
923.5134,466.162,7.88309,,,,
940.8864,469.162,7.87522,,,,
958.2852,472.162,7.86681,,,,
975.7758,475.162,7.85697,,,,
993.3108,478.162,7.84584,,,,
1010.93,481.162,7.83282,,,,
1028.589,484.162,7.81887,,,,
1046.313,487.162,7.80613,,,,
1064.1,490.162,7.7911,,,,
1081.89,493.162,7.77717,,,,
1099.749,496.162,7.76163,,,,
1117.641,499.162,7.74456,,,,
1135.56,502.162,7.727,,,,
1153.5,505.162,7.70723,,,,
1171.46,508.162,7.68732,,,,
1189.45,511.162,7.66495,,,,
1207.43,514.162,7.6409,,,,
1225.41,517.162,7.61531,,,,
1243.48,520.162,7.58788,,,,
1261.51,523.162,7.55604,,,,
1279.57,526.162,7.52232,,,,
1297.644,529.162,7.4852,,,,
1315.71,532.162,7.44742,,,,
1333.79,535.162,7.40668,,,,
1351.87,538.162,7.36325,,,,
1369.91,541.162,7.3165,,,,
1387.99,544.162,7.26644,,,,
1406.09,547.162,7.2128,,,,
1424.18,550.162,7.15478,,,,
1442.26,553.162,7.097,,,,
1460.38,556.162,7.0342,,,,
1478.48,559.162,6.96812,,,,
1496.59,562.162,6.89687,,,,
1514.739,565.162,6.82507,,,,
1532.87,568.162,6.74022,,,,
1551,571.162,6.66068,,,,
1569.11,574.162,6.56865,,,,
1587.24,577.162,6.474,,,,
1605.37,580.162,6.37688,,,,
1623.51,583.162,6.27539,,,,
1641.64,586.162,6.16929,,,,
1659.76,589.162,6.05389,,,,
1677.87,592.162,5.9349,,,,
1695.99,595.162,5.81175,,,,
1714.11,598.162,5.68144,,,,
1732.27,601.162,5.54716,,,,
1750.386,604.162,5.40562,,,,
1768.52,607.162,5.26148,,,,
1786.6,610.162,5.1102,,,,
1804.71,613.162,4.95543,,,,
1822.85,616.162,4.7955,,,,
1840.97,619.162,4.62705,,,,
1859.12,622.162,4.45341,,,,
1877.25,625.162,4.27186,,,,
1895.43,628.162,4.07731,,,,
1913.562,631.162,3.87212,,,,
1931.7,634.162,3.65421,,,,
1949.86,637.162,3.42963,,,,
1967.96,640.162,3.19213,,,,
1986.09,643.162,2.95058,,,,
2004.2,646.162,2.7157,,,,
2022.35,649.162,2.49221,,,,
2040.48,652.162,2.30078,,,,
2058.53,655.162,2.15295,,,,
2076.6,658.162,2.05234,,,,
2094.62,661.162,1.99133,,,,
2112.651,664.162,1.95696,,,,
2130.69,667.162,1.93197,,,,
2148.702,670.162,1.90904,,,,
2166.76,673.162,1.88858,,,,
2184.82,676.162,1.86688,,,,
2202.84,679.162,1.84765,,,,
2220.91,682.162,1.82818,,,,
2238.97,685.162,1.81081,,,,
2257.05,688.162,1.79269,,,,
2275.071,691.162,1.77418,,,,
2293.15,694.162,1.75602,,,,
2311.185,697.162,1.74108,,,,
2329.22,700.162,1.72383,,,,
2347.25,703.162,1.70686,,,,
2365.32,706.162,1.69102,,,,
2383.32,709.162,1.67376,,,,
2401.317,712.162,1.65848,,,,
2419.28,715.162,1.64434,,,,
2437.257,718.162,1.6303,,,,
2455.18,721.162,1.61572,,,,
2473.1,724.162,1.60375,,,,
2490.98,727.162,1.5914,,,,
2508.91,730.162,1.57799,,,,
2526.86,733.162,1.56615,,,,
2544.82,736.162,1.55312,,,,
2562.76,739.162,1.54308,,,,
2580.696,742.162,1.53379,,,,
2598.606,745.162,1.52271,,,,
2616.53,748.162,1.5133,,,,
2634.48,751.162,1.50397,,,,
2652.444,754.162,1.49591,,,,
2670.4,757.162,1.48844,,,,
2688.35,760.162,1.48012,,,,
2706.318,763.162,1.47233,,,,
2724.26,766.162,1.46373,,,,
2742.28,769.162,1.45724,,,,
2760.27,772.162,1.45036,,,,
2778.273,775.162,1.44183,,,,
2796.27,778.162,1.43029,,,,
2814.31,781.162,1.42444,,,,
2832.372,784.162,1.41791,,,,
2850.42,787.162,1.4136,,,,
2868.52,790.162,1.40792,,,,
2886.61,793.162,1.40238,,,,
2904.71,796.162,1.3963,,,,
2922.849,799.162,1.39245,,,,
2941.023,802.162,1.3867,,,,
2959.19,805.162,1.38195,,,,
2977.38,808.162,1.37557,,,,
2995.58,811.162,1.37145,,,,
3013.8,814.162,1.3653,,,,
3032,817.162,1.36011,,,,
3050.2,820.162,1.3551,,,,
3068.42,823.162,1.34942,,,,
3086.64,826.162,1.34328,,,,
3104.83,829.162,1.33771,,,,
3123.084,832.162,1.33325,,,,
3141.36,835.162,1.32857,,,,
3159.63,838.162,1.32256,,,,
3177.903,841.162,1.31842,,,,
3196.152,844.162,1.31419,,,,
3214.43,847.162,1.30819,,,,
3232.695,850.162,1.30614,,,,
3250.93,853.162,1.30348,,,,
3269.13,856.162,1.29866,,,,
3287.33,859.162,1.29362,,,,
3305.48,862.162,1.28772,,,,
3323.61,865.162,1.28127,,,,
3341.7,868.162,1.27655,,,,
3359.77,871.162,1.2719,,,,
3377.817,874.162,1.26672,,,,
3395.88,877.162,1.26468,,,,
3413.94,880.162,1.26098,,,,
3431.98,883.162,1.25527,,,,
3449.99,886.162,1.24516,,,,
3467.98,889.162,1.24567,,,,
3485.98,892.162,1.24197,,,,
3503.95,895.162,1.23967,,,,
3521.93,898.162,1.23607,,,,
3539.86,901.162,1.23218,,,,
3557.81,904.162,1.22358,,,,
3575.8,907.162,1.22557,,,,
3593.75,910.162,1.2209,,,,
3611.69,913.162,1.21873,,,,
3629.619,916.162,1.21688,,,,
3647.55,919.162,1.21427,,,,
3665.48,922.162,1.21159,,,,
3683.41,925.162,1.20843,,,,
3701.34,928.162,1.20588,,,,
3719.27,931.162,1.20306,,,,
3737.26,934.162,1.20001,,,,
3755.232,937.162,1.19792,,,,
3773.16,940.162,1.19724,,,,
3791.1,943.162,1.19543,,,,
3809.03,946.162,1.19403,,,,
3827.01,949.162,1.19198,,,,
3845.01,952.162,1.18748,,,,
3862.95,955.162,1.18396,,,,
3880.87,958.162,1.18298,,,,
3898.77,961.162,1.18275,,,,
3916.67,964.162,1.18108,,,,
3934.6,967.162,1.18051,,,,
3952.53,970.162,1.17557,,,,
3970.53,973.162,1.17327,,,,
3988.49,976.162,1.17114,,,,
4006.47,979.162,1.16878,,,,
4024.47,982.162,1.1657,,,,
4042.452,985.162,1.16345,,,,
4060.446,988.162,1.16215,,,,
4078.42,991.162,1.16039,,,,
4096.41,994.162,1.15752,,,,
4114.434,997.162,1.15691,,,,
4132.46,1000.162,1.15741,,,,
4150.44,1003.162,1.15535,,,,
4168.44,1006.162,1.1532,,,,
4186.42,1009.162,1.15078,,,,
4204.44,1012.162,1.14904,,,,
4222.47,1015.162,1.14854,,,,
4240.42,1018.162,1.1491,,,,
4258.42,1021.162,1.14726,,,,
4276.44,1024.162,1.14612,,,,
4294.46,1027.162,1.14358,,,,
4312.473,1030.162,1.14257,,,,
4330.46,1033.162,1.14038,,,,
4348.443,1036.162,1.13199,,,,
4366.46,1039.162,1.13733,,,,
4384.43,1042.162,1.13582,,,,
4402.44,1045.162,1.13449,,,,
4420.428,1048.162,1.13112,,,,
4438.437,1051.162,1.12887,,,,
4456.4,1054.162,1.12813,,,,
4474.37,1057.162,1.12647,,,,
4492.34,1060.162,1.1249,,,,
4510.34,1063.162,1.12488,,,,
4528.32,1066.162,1.1209,,,,
4546.308,1069.162,1.12213,,,,
4555.29,1070.662,1.12138,,,,

File: Aalto_Wood_TGA_N2_10K_R1.csv
Time (s),Temperature (K),Mass (mg)
0,313.2,7.427
84.0258,316.1,7.421
113.7846,319.1,7.420
138.9312,322.1,7.419
162.0252,325.1,7.419
183.6252,328.1,7.417
204.1512,331.1,7.413
223.4418,334.1,7.410
241.6422,337.1,7.407
258.9354,340.1,7.402
275.7276,343.1,7.398
291.9924,346.1,7.394
307.8636,349.1,7.391
323.5194,352.1,7.385
338.9196,355.1,7.382
354.1296,358,7.379
369.1512,361,7.378
384.042,364,7.375
398.8488,367,7.371
413.5926,370,7.369
428.3232,373,7.366
443.0424,376,7.364
457.7982,379,7.364
472.6506,382,7.363
487.5582,385,7.364
502.5492,388,7.361
517.572,391,7.361
532.6614,394,7.361
547.7832,397,7.360
563.0166,400,7.359
578.2686,402.9,7.359
593.5542,405.9,7.358
608.9736,408.9,7.357
624.4722,411.9,7.357
640.0656,414.9,7.354
655.7208,417.9,7.355
671.5236,420.9,7.353
687.426,423.9,7.352
703.4244,426.9,7.351
719.544,429.9,7.349
735.84,432.9,7.348
752.1582,435.9,7.347
768.6618,438.9,7.344
785.28,441.9,7.341
802.0146,444.9,7.338
818.802,447.8,7.336
835.7028,450.8,7.331
852.6372,453.8,7.326
869.6538,456.8,7.321
886.8114,459.8,7.315
904.0248,462.8,7.309
921.2856,465.8,7.301
938.6208,468.8,7.291
956.0088,471.8,7.281
973.449,474.8,7.269
990.9702,477.8,7.259
1008.55,480.8,7.246
1026.16,483.8,7.233
1043.838,486.8,7.220
1061.58,489.8,7.205
1079.34,492.7,7.191
1097.13,495.7,7.177
1114.971,498.7,7.163
1132.854,501.7,7.144
1150.79,504.7,7.127
1168.683,507.7,7.107
1186.6,510.7,7.089
1204.57,513.7,7.068
1222.599,516.7,7.043
1240.57,519.7,7.017
1258.59,522.7,6.989
1276.6,525.7,6.958
1294.65,528.7,6.924
1312.68,531.7,6.890
1330.74,534.7,6.850
1348.78,537.6,6.810
1366.8,540.6,6.766
1384.83,543.6,6.721
1402.9,546.6,6.669
1420.91,549.6,6.618
1438.99,552.6,6.566
1457.06,555.6,6.511
1475.15,558.6,6.449
1493.2,561.6,6.383
1511.33,564.6,6.315
1529.38,567.6,6.233
1547.48,570.6,6.167
1565.58,573.6,6.089
1583.69,576.6,5.996
1601.76,579.5,5.914
1619.86,582.5,5.821
1637.94,585.5,5.720
1656.01,588.5,5.617
1674.04,591.5,5.507
1692.11,594.5,5.393
1710.21,597.5,5.275
1728.28,600.5,5.153
1746.4,603.5,5.023
1764.5,606.5,4.891
1782.61,609.5,4.753
1800.687,612.5,4.611
1818.756,615.5,4.465
1836.85,618.5,4.313
1854.915,621.5,4.154
1873.01,624.4,3.988
1891.1,627.4,3.815
1909.18,630.4,3.627
1927.32,633.4,3.429
1945.39,636.4,3.223
1963.49,639.4,3.007
1981.59,642.4,2.787
1999.68,645.4,2.567
2017.76,648.4,2.358
2035.83,651.4,2.173
2053.84,654.4,2.022
2071.842,657.4,1.919
2089.82,660.4,1.850
2107.76,663.4,1.814
2125.755,666.4,1.790
2143.79,669.3,1.770
2161.82,672.3,1.750
2179.86,675.3,1.731
2197.902,678.3,1.715
2215.93,681.3,1.698
2233.92,684.3,1.682
2251.92,687.3,1.665
2269.93,690.3,1.650
2287.93,693.3,1.633
2305.88,696.3,1.619
2323.83,699.3,1.604
2341.79,702.3,1.589
2359.78,705.3,1.574
2377.77,708.3,1.561
2395.73,711.3,1.546
2413.67,714.2,1.534
2431.659,717.2,1.521
2449.61,720.2,1.506
2467.52,723.2,1.495
2485.48,726.2,1.484
2503.38,729.2,1.473
2521.311,732.2,1.460
2539.27,735.2,1.449
2557.19,738.2,1.440
2575.09,741.2,1.431
2593.01,744.2,1.423
2610.94,747.2,1.413
2628.91,750.2,1.405
2646.93,753.2,1.396
2664.94,756.2,1.388
2682.95,759.1,1.382
2700.98,762.1,1.374
2719.04,765.1,1.367
2737.12,768.1,1.362
2755.22,771.1,1.355
2773.34,774.1,1.348
2791.48,777.1,1.337
2809.61,780.1,1.330
2827.75,783.1,1.324
2845.93,786.1,1.320
2864.142,789.1,1.317
2882.37,792.1,1.313
2900.57,795.1,1.305
2918.77,798.1,1.302
2936.99,801,1.297
2955.22,804,1.291
2973.45,807,1.286
2991.64,810,1.280
3009.77,813,1.276
3027.91,816,1.272
3046.008,819,1.267
3064.14,822,1.269
3082.18,825,1.254
3100.22,828,1.250
3118.233,831,1.246
3136.245,834,1.242
3154.221,837,1.237
3172.2,840,1.234
3190.2,843,1.231
3208.14,845.9,1.225
3226.09,848.9,1.220
3244.01,851.9,1.223
3261.95,854.9,1.217
3279.84,857.9,1.212
3297.75,860.9,1.210
3315.72,863.9,1.204
3333.68,866.9,1.199
3351.62,869.9,1.194
3369.54,872.9,1.186
3387.47,875.9,1.187
3405.41,878.9,1.184
3423.375,881.9,1.181
3441.29,884.9,1.177
3459.25,887.9,1.171
3477.21,890.8,1.169
3495.2,893.8,1.165
3513.18,896.8,1.162
3531.1,899.8,1.158
3549.06,902.8,1.153
3566.98,905.8,1.151
3584.9,908.8,1.150
3602.86,911.8,1.146
3620.81,914.8,1.143
3638.739,917.8,1.142
3656.66,920.8,1.139
3674.613,923.8,1.137
3692.54,926.8,1.134
3710.45,929.8,1.131
3728.39,932.8,1.129
3746.32,935.7,1.127
3764.28,938.7,1.126
3782.22,941.7,1.124
3800.15,944.7,1.121
3818.09,947.7,1.121
3836.08,950.7,1.117
3854.01,953.7,1.114
3871.94,956.7,1.111
3889.89,959.7,1.112
3907.81,962.7,1.109
3925.722,965.7,1.107
3943.67,968.7,1.104
3961.63,971.7,1.112
3979.569,974.7,1.105
3997.45,977.7,1.101
4015.37,980.6,1.100
4033.28,983.6,1.092
4051.24,986.6,1.094
4069.15,989.6,1.086
4087.08,992.6,1.086
4105.02,995.6,1.086
4122.96,998.6,1.088
4140.9,1001.6,1.086
4158.82,1004.6,1.085
4176.77,1007.6,1.082
4194.747,1010.6,1.081
4212.621,1013.6,1.079
4230.5,1016.6,1.080
4248.42,1019.6,1.079
4266.36,1022.5,1.078
4284.32,1025.5,1.076
4302.279,1028.5,1.074
4320.21,1031.5,1.071
4338.17,1034.5,1.068
4356.11,1037.5,1.065
4374.06,1040.5,1.065
4391.997,1043.5,1.064
4409.89,1046.5,1.063
4427.82,1049.5,1.060
4445.78,1052.5,1.059
4463.69,1055.5,1.057
4481.62,1058.5,1.057
4499.55,1061.5,1.055
4517.45,1064.5,1.046
4535.4,1067.4,1.052
4553.34,1070.4,1.052
4556.35,1070.9,1.052

File: Aalto_Wood_TGA_N2_10K_R2.csv
Time (s),Temperature (K),Mass (mg)
0,313.1,8.077
82.9776,316.1,8.050
113.0922,319.1,8.038
138.4542,322.1,8.030
161.8614,325.1,8.025
183.7278,328.1,8.020
204.3138,331.1,8.016
223.5708,334.1,8.012
241.7844,337.1,8.006
259.197,340.1,8.002
275.9034,343.1,7.998
292.1706,346.1,7.994
308.121,349.1,7.989
323.754,352.1,7.982
339.1956,355.1,7.977
354.4386,358.1,7.973
369.4932,361.1,7.969
384.4326,364.1,7.966
399.2814,367.1,7.962
414.042,370.1,7.960
428.811,373.1,7.958
443.5674,376.1,7.955
458.37,379.1,7.953
473.2194,382.1,7.951
488.16,385.1,7.951
503.1354,388.1,7.949
518.1834,391.1,7.949
533.3286,394.1,7.949
548.5242,397.1,7.949
563.7684,400.1,7.948
579.0504,403.1,7.947
594.4566,406.1,7.947
609.9354,409.1,7.947
625.458,412.1,7.948
641.1102,415.1,7.945
656.865,418.1,7.945
672.6984,421.1,7.944
688.662,424.1,7.944
704.7276,427.1,7.944
720.9384,430.1,7.942
737.283,433.1,7.941
753.6876,436.1,7.939
770.2566,439.1,7.936
786.9276,442.1,7.935
803.6964,445.1,7.932
820.5834,448.1,7.929
837.5508,451.1,7.925
854.589,454.1,7.918
871.6776,457.1,7.914
888.8364,460.1,7.908
906.102,463.1,7.900
923.37,466.1,7.892
940.752,469.1,7.883
958.1388,472.1,7.872
975.6642,475.1,7.860
993.2136,478.1,7.849
1010.88,481.1,7.838
1028.56,484.1,7.822
1046.28,487.1,7.807
1064.058,490.1,7.793
1081.85,493.1,7.779
1099.68,496.1,7.763
1117.59,499.1,7.746
1135.48,502.1,7.729
1153.41,505.1,7.710
1171.36,508.1,7.689
1189.329,511.1,7.669
1207.34,514.1,7.644
1225.344,517.1,7.618
1243.36,520.1,7.588
1261.38,523.1,7.556
1279.45,526.1,7.523
1297.46,529.1,7.486
1315.45,532.1,7.448
1333.545,535.1,7.407
1351.614,538.1,7.360
1369.69,541.1,7.312
1387.743,544.1,7.262
1405.81,547.1,7.209
1423.92,550.1,7.149
1442.05,553.1,7.089
1460.154,556.1,7.027
1478.27,559.1,6.960
1496.41,562.1,6.887
1514.49,565.1,6.816
1532.61,568.1,6.735
1550.73,571.1,6.649
1568.84,574.1,6.562
1586.91,577.1,6.468
1605.03,580.1,6.367
1623.16,583.1,6.261
1641.29,586.1,6.153
1659.4,589.1,6.037
1677.46,592.1,5.916
1695.57,595.1,5.791
1713.69,598.1,5.658
1731.77,601.1,5.524
1749.88,604.1,5.380
1767.981,607.1,5.233
1786.1,610.1,5.080
1804.15,613.1,4.925
1822.22,616.1,4.763
1840.31,619.1,4.594
1858.344,622.1,4.421
1876.46,625.1,4.236
1894.57,628.1,4.043
1912.7,631.1,3.839
1930.81,634.1,3.623
1948.96,637.1,3.395
1967.09,640.1,3.159
1985.22,643.1,2.921
2003.27,646.1,2.691
2021.32,649.1,2.482
2039.28,652.1,2.307
2057.23,655.1,2.175
2075.08,658.1,2.094
2093.31,661.1,2.041
2111.88,664.1,2.012
2130.22,667.1,1.990
2148.41,670.1,1.969
2166.49,673.1,1.949
2184.61,676.1,1.929
2202.76,679.1,1.911
2220.89,682.1,1.894
2238.95,685.1,1.877
2257.02,688.1,1.861
2275.08,691.1,1.846
2293.17,694.1,1.830
2311.27,697.1,1.815
2329.35,700.1,1.801
2347.434,703.1,1.786
2365.48,706.1,1.772
2383.54,709.1,1.756
2401.617,712.1,1.743
2419.731,715.1,1.730
2437.83,718.1,1.716
2455.92,721.1,1.704
2474.03,724.1,1.693
2492.16,727.1,1.681
2510.29,730.1,1.670
2528.39,733.1,1.659
2546.51,736.1,1.647
2564.64,739.1,1.637
2582.83,742.1,1.628
2601.06,745.1,1.619
2619.26,748.1,1.609
2637.39,751.1,1.599
2655.396,754.1,1.592
2673.4,757.1,1.585
2691.39,760.1,1.577
2709.37,763.1,1.569
2727.363,766.1,1.563
2745.42,769.1,1.556
2763.441,772.1,1.549
2781.5,775.1,1.537
2799.525,778.1,1.527
2817.57,781.1,1.520
2835.65,784.1,1.512
2853.72,787.1,1.507
2871.771,790.1,1.502
2889.82,793.1,1.496
2907.84,796.1,1.489
2925.85,799.1,1.483
2943.92,802.1,1.475
2961.89,805.1,1.468
2979.91,808.1,1.462
2997.94,811.1,1.455
3015.99,814.1,1.449
3034.01,817.1,1.443
3052.05,820.1,1.436
3070.07,823.1,1.428
3088.095,826.1,1.421
3106.12,829.1,1.415
3124.15,832.1,1.407
3142.179,835.1,1.400
3160.24,838.1,1.393
3178.254,841.1,1.390
3196.26,844.1,1.384
3214.27,847.1,1.375
3232.26,850.1,1.370
3250.31,853.1,1.366
3268.329,856.1,1.360
3286.35,859.1,1.354
3304.33,862.1,1.347
3322.31,865.1,1.339
3340.284,868.1,1.332
3358.275,871.1,1.325
3376.31,874.1,1.317
3394.31,877.1,1.315
3412.34,880.1,1.308
3430.34,883.1,1.301
3448.33,886.1,1.288
3466.33,889.1,1.288
3484.35,892.1,1.282
3502.34,895.1,1.277
3520.33,898.1,1.271
3538.33,901.1,1.267
3556.31,904.1,1.256
3574.33,907.1,1.257
3592.389,910.1,1.252
3610.37,913.1,1.246
3628.368,916.1,1.241
3646.35,919.1,1.237
3664.37,922.1,1.233
3682.36,925.1,1.227
3700.35,928.1,1.222
3718.33,931.1,1.218
3736.34,934.1,1.213
3754.35,937.1,1.209
3772.38,940.1,1.206
3790.42,943.1,1.202
3808.41,946.1,1.199
3826.4,949.1,1.196
3844.37,952.1,1.189
3862.36,955.1,1.182
3880.33,958.1,1.178
3898.25,961.1,1.176
3916.2,964.1,1.173
3934.18,967.1,1.170
3952.182,970.1,1.165
3970.14,973.1,1.161
3988.11,976.1,1.158
4006.06,979.1,1.154
4024.01,982.1,1.149
4041.99,985.1,1.145
4059.98,988.1,1.142
4077.96,991.1,1.138
4095.94,994.1,1.135
4113.91,997.1,1.133
4131.888,1000.1,1.129
4149.91,1003.1,1.126
4167.87,1006.1,1.123
4185.88,1009.1,1.120
4203.91,1012.1,1.116
4221.93,1015.1,1.114
4239.88,1018.1,1.113
4257.837,1021.1,1.109
4275.789,1024.1,1.107
4293.681,1027.1,1.103
4311.65,1030.1,1.100
4329.66,1033.1,1.096
4347.7,1036.1,1.086
4365.72,1039.1,1.090
4383.7,1042.1,1.088
4401.67,1045.1,1.084
4419.627,1048.1,1.080
4437.6,1051.1,1.077
4455.63,1054.1,1.076
4473.62,1057.1,1.073
4491.59,1060.1,1.070
4509.58,1063.1,1.067
4527.55,1066.1,1.062
4545.483,1069.1,1.062
4554.44,1070.6,1.061

File: Aalto_Wood_TGA_N2_10K_R3.csv
Time (s),Temperature (K),Mass (mg)
0,313.2,8.054
83.4786,316.2,8.030
113.6928,319.2,8.018
139.2846,322.2,8.009
162.6846,325.2,8.003
184.677,328.2,7.996
205.2102,331.2,7.993
224.391,334.2,7.990
242.5662,337.2,7.985
259.914,340.2,7.982
276.6588,343.2,7.979
292.9098,346.2,7.976
308.8068,349.2,7.972
324.4572,352.2,7.966
339.8664,355.2,7.960
355.104,358.2,7.958
370.1208,361.2,7.955
385.0062,364.2,7.952
399.8256,367.2,7.947
414.6102,370.2,7.946
429.372,373.2,7.943
444.1338,376.2,7.940
458.9442,379.2,7.938
473.8026,382.2,7.936
488.6796,385.2,7.939
503.6658,388.2,7.937
518.7588,391.2,7.936
533.8338,394.2,7.937
549.0132,397.2,7.937
564.2142,400.2,7.936
579.5316,403.2,7.935
594.8898,406.2,7.935
610.3458,409.2,7.934
625.8894,412.2,7.934
641.5446,415.2,7.931
657.2538,418.2,7.932
673.0872,421.2,7.932
689.0346,424.2,7.932
705.1158,427.2,7.931
721.3152,430.2,7.930
737.6418,433.2,7.928
754.0632,436.2,7.928
770.6262,439.2,7.925
787.257,442.2,7.923
804.0078,445.2,7.920
820.8546,448.2,7.917
837.7866,451.2,7.913
854.8014,454.2,7.909
871.893,457.2,7.903
889.0572,460.2,7.898
906.2292,463.2,7.891
923.5134,466.2,7.883
940.8864,469.2,7.875
958.2852,472.2,7.867
975.7758,475.2,7.857
993.3108,478.2,7.846
1010.93,481.2,7.833
1028.589,484.2,7.819
1046.313,487.2,7.806
1064.1,490.2,7.791
1081.89,493.2,7.777
1099.749,496.2,7.762
1117.641,499.2,7.745
1135.56,502.2,7.727
1153.5,505.2,7.707
1171.46,508.2,7.687
1189.45,511.2,7.665
1207.43,514.2,7.641
1225.41,517.2,7.615
1243.48,520.2,7.588
1261.51,523.2,7.556
1279.57,526.2,7.522
1297.644,529.2,7.485
1315.71,532.2,7.447
1333.79,535.2,7.407
1351.87,538.2,7.363
1369.91,541.2,7.317
1387.99,544.2,7.266
1406.09,547.2,7.213
1424.18,550.2,7.155
1442.26,553.2,7.097
1460.38,556.2,7.034
1478.48,559.2,6.968
1496.59,562.2,6.897
1514.739,565.2,6.825
1532.87,568.2,6.740
1551,571.2,6.661
1569.11,574.2,6.569
1587.24,577.2,6.474
1605.37,580.2,6.377
1623.51,583.2,6.275
1641.64,586.2,6.169
1659.76,589.2,6.054
1677.87,592.2,5.935
1695.99,595.2,5.812
1714.11,598.2,5.681
1732.27,601.2,5.547
1750.386,604.2,5.406
1768.52,607.2,5.261
1786.6,610.2,5.110
1804.71,613.2,4.955
1822.85,616.2,4.796
1840.97,619.2,4.627
1859.12,622.2,4.453
1877.25,625.2,4.272
1895.43,628.2,4.077
1913.562,631.2,3.872
1931.7,634.2,3.654
1949.86,637.2,3.430
1967.96,640.2,3.192
1986.09,643.2,2.951
2004.2,646.2,2.716
2022.35,649.2,2.492
2040.48,652.2,2.301
2058.53,655.2,2.153
2076.6,658.2,2.052
2094.62,661.2,1.991
2112.651,664.2,1.957
2130.69,667.2,1.932
2148.702,670.2,1.909
2166.76,673.2,1.889
2184.82,676.2,1.867
2202.84,679.2,1.848
2220.91,682.2,1.828
2238.97,685.2,1.811
2257.05,688.2,1.793
2275.071,691.2,1.774
2293.15,694.2,1.756
2311.185,697.2,1.741
2329.22,700.2,1.724
2347.25,703.2,1.707
2365.32,706.2,1.691
2383.32,709.2,1.674
2401.317,712.2,1.658
2419.28,715.2,1.644
2437.257,718.2,1.630
2455.18,721.2,1.616
2473.1,724.2,1.604
2490.98,727.2,1.591
2508.91,730.2,1.578
2526.86,733.2,1.566
2544.82,736.2,1.553
2562.76,739.2,1.543
2580.696,742.2,1.534
2598.606,745.2,1.523
2616.53,748.2,1.513
2634.48,751.2,1.504
2652.444,754.2,1.496
2670.4,757.2,1.488
2688.35,760.2,1.480
2706.318,763.2,1.472
2724.26,766.2,1.464
2742.28,769.2,1.457
2760.27,772.2,1.450
2778.273,775.2,1.442
2796.27,778.2,1.430
2814.31,781.2,1.424
2832.372,784.2,1.418
2850.42,787.2,1.414
2868.52,790.2,1.408
2886.61,793.2,1.402
2904.71,796.2,1.396
2922.849,799.2,1.392
2941.023,802.2,1.387
2959.19,805.2,1.382
2977.38,808.2,1.376
2995.58,811.2,1.371
3013.8,814.2,1.365
3032,817.2,1.360
3050.2,820.2,1.355
3068.42,823.2,1.349
3086.64,826.2,1.343
3104.83,829.2,1.338
3123.084,832.2,1.333
3141.36,835.2,1.329
3159.63,838.2,1.323
3177.903,841.2,1.318
3196.152,844.2,1.314
3214.43,847.2,1.308
3232.695,850.2,1.306
3250.93,853.2,1.303
3269.13,856.2,1.299
3287.33,859.2,1.294
3305.48,862.2,1.288
3323.61,865.2,1.281
3341.7,868.2,1.277
3359.77,871.2,1.272
3377.817,874.2,1.267
3395.88,877.2,1.265
3413.94,880.2,1.261
3431.98,883.2,1.255
3449.99,886.2,1.245
3467.98,889.2,1.246
3485.98,892.2,1.242
3503.95,895.2,1.240
3521.93,898.2,1.236
3539.86,901.2,1.232
3557.81,904.2,1.224
3575.8,907.2,1.226
3593.75,910.2,1.221
3611.69,913.2,1.219
3629.619,916.2,1.217
3647.55,919.2,1.214
3665.48,922.2,1.212
3683.41,925.2,1.208
3701.34,928.2,1.206
3719.27,931.2,1.203
3737.26,934.2,1.200
3755.232,937.2,1.198
3773.16,940.2,1.197
3791.1,943.2,1.195
3809.03,946.2,1.194
3827.01,949.2,1.192
3845.01,952.2,1.187
3862.95,955.2,1.184
3880.87,958.2,1.183
3898.77,961.2,1.183
3916.67,964.2,1.181
3934.6,967.2,1.181
3952.53,970.2,1.176
3970.53,973.2,1.173
3988.49,976.2,1.171
4006.47,979.2,1.169
4024.47,982.2,1.166
4042.452,985.2,1.163
4060.446,988.2,1.162
4078.42,991.2,1.160
4096.41,994.2,1.158
4114.434,997.2,1.157
4132.46,1000.2,1.157
4150.44,1003.2,1.155
4168.44,1006.2,1.153
4186.42,1009.2,1.151
4204.44,1012.2,1.149
4222.47,1015.2,1.149
4240.42,1018.2,1.149
4258.42,1021.2,1.147
4276.44,1024.2,1.146
4294.46,1027.2,1.144
4312.473,1030.2,1.143
4330.46,1033.2,1.140
4348.443,1036.2,1.132
4366.46,1039.2,1.137
4384.43,1042.2,1.136
4402.44,1045.2,1.134
4420.428,1048.2,1.131
4438.437,1051.2,1.129
4456.4,1054.2,1.128
4474.37,1057.2,1.126
4492.34,1060.2,1.125
4510.34,1063.2,1.125
4528.32,1066.2,1.121
4546.308,1069.2,1.122
4555.29,1070.7,1.121