Folder: matl-db/Wood/Calibration_Data/Aalto

Note: Wood/Calibration_Data/Aalto/Readme.md
Dear all,

At Aalto, we were able to perform the TGA measurements using the STA device. In addition, DSC data are available; however, these were not measured using a separate dedicated DSC instrument.

Test Conditions:

Heating rate: 10 K·min⁻¹

Temperature program: Stabilization at 40 °C, followed by heating up to 800 °C

Initial sample moisture content: The stabilization step effectively acted as a drying stage; therefore, the exact initial moisture content is uncertain

Initial sample mass: Approximately 8 mg (due to instrument limitations, lower sample masses were not feasible)

Sample geometry: Sawdust chips

Carrier gas and flow rate: Nitrogen, 70 mL·min⁻¹

Crucible type and volume: Aluminum oxide (alumina), 85 µL

Crucible lid: None

Instrument and furnace: NETZSCH STA 449 F3 Jupiter coupled with QMS 403 Aeolos Quadro

File: Aalto_ExpDat_mcfp_STA_10N2800Trial01-1.csv
##Temp./›C,Time/min,DSC/(uV/mg),Mass/%,Gas Flow(purge2)/(ml/min),Gas Flow(protective)/(ml/min),DTG/(%/min),Sensit./(uV/mW)
40,0,-4.31E-03,100,0.00E+00,70,-0.81372,1
44.48987,1.66359,-3.09E-02,99.92565,0.00E+00,70,-2.75E-02,1
48.97973,2.31552,-2.53E-02,99.88758,0.00E+00,70,-3.80E-02,1
53.4696,2.88305,-2.08E-02,99.8771,0.00E+00,70,-6.01E-02,1
57.95946,3.40252,-2.70E-02,99.81402,0.00E+00,70,-0.12904,1
62.44933,3.8781,-4.01E-02,99.74021,0.00E+00,70,-0.1748,1
66.9392,4.31559,-5.48E-02,99.66338,0.00E+00,70,-0.18648,1
71.42906,4.73214,-7.23E-02,99.57369,0.00E+00,70,-0.19659,1
75.91893,5.13106,-9.07E-02,99.50947,0.00E+00,70,-0.22232,1
80.40879,5.52083,-0.11303,99.40763,0.00E+00,70,-0.18468,1
84.89866,5.90216,-0.14015,99.36024,0.00E+00,70,-0.11506,1
89.38853,6.27678,-0.17543,99.32411,0.00E+00,70,-0.1441,1
93.87839,6.64748,-0.21218,99.24148,0.00E+00,70,-0.17654,1
98.36826,7.01596,-0.25234,99.20395,0.00E+00,70,-0.1202,1
102.858,7.38404,-0.28965,99.15725,0.00E+00,70,-7.91E-02,1
107.348,7.75361,-0.32483,99.1407,0.00E+00,70,-2.51E-02,1
111.838,8.12597,-0.35776,99.14968,0.00E+00,70,-5.14E-02,1
116.328,8.50099,-0.38992,99.09655,0.00E+00,70,-3.28E-02,1
120.818,8.87769,-0.41924,99.11261,0.00E+00,70,-1.31E-02,1
125.307,9.25652,-0.44911,99.10195,0.00E+00,70,-4.12E-02,1
129.797,9.63781,-0.47976,99.0899,0.00E+00,70,-3.59E-02,1
134.287,10.02079,-0.5085,99.06237,0.00E+00,70,-5.27E-02,1
138.777,10.40787,-0.53644,99.05231,0.00E+00,70,-6.13E-02,1
143.267,10.79799,-0.56384,99.0291,0.00E+00,70,-4.13E-02,1
147.757,11.19206,-0.59307,98.99877,0.00E+00,70,-6.01E-02,1
152.247,11.59025,-0.61993,98.98249,0.00E+00,70,-4.91E-02,1
156.737,11.9924,-0.643,98.95569,0.00E+00,70,-6.87E-02,1
161.226,12.39998,-0.66648,98.93227,0.00E+00,70,-8.76E-02,1
165.716,12.81103,-0.6888,98.87817,0.00E+00,70,-0.1276,1
170.206,13.22743,-0.71172,98.83785,0.00E+00,70,-0.13528,1
174.696,13.6467,-0.7334,98.76854,0.00E+00,70,-0.17942,1
179.186,14.06938,-0.75686,98.67864,0.00E+00,70,-0.23906,1
183.676,14.49423,-0.77893,98.5667,0.00E+00,70,-0.24569,1
188.166,14.9235,-0.801,98.44704,0.00E+00,70,-0.32942,1
192.655,15.35476,-0.82308,98.29894,0.00E+00,70,-0.40761,1
197.145,15.78861,-0.84727,98.09922,0.00E+00,70,-0.46559,1
201.635,16.22415,-0.87136,97.87717,0.00E+00,70,-0.5181,1
206.125,16.66264,-0.897,97.65281,0.00E+00,70,-0.56235,1
210.615,17.10262,-0.92346,97.38966,0.00E+00,70,-0.61931,1
215.105,17.54515,-0.94935,97.11078,0.00E+00,70,-0.62736,1
219.595,17.989,-0.9798,96.82765,0.00E+00,70,-0.63737,1
224.085,18.43395,-1.00936,96.54518,0.00E+00,70,-0.62688,1
228.574,18.8809,-1.03924,96.18975,0.00E+00,70,-0.80761,1
233.064,19.32887,-1.07004,95.82557,0.00E+00,70,-0.91039,1
237.5541,19.77669,-1.10172,95.45432,0.00E+00,70,-0.90755,1
242.044,20.22626,-1.13136,94.99478,0.00E+00,70,-1.10459,1
246.534,20.67621,-1.16378,94.48171,0.00E+00,70,-1.20807,1
251.0237,21.12671,-1.19551,93.88532,0.00E+00,70,-1.399,1
255.514,21.57742,-1.22878,93.22843,0.00E+00,70,-1.5198,1
260.003,22.02857,-1.2623,92.50752,0.00E+00,70,-1.7247,1
264.4933,22.47973,-1.29362,91.69723,0.00E+00,70,-1.87583,1
268.983,22.93,-1.3259,90.79765,0.00E+00,70,-2.04737,1
273.473,23.38166,-1.3567,89.80035,0.00E+00,70,-2.30727,1
277.9629,23.83231,-1.3874,88.74087,0.00E+00,70,-2.40943,1
282.453,24.28439,-1.41673,87.66782,0.00E+00,70,-2.62551,1
286.943,24.73623,-1.44484,86.36298,0.00E+00,70,-2.89219,1
291.4325,25.18877,-1.47428,85.02959,0.00E+00,70,-3.19226,1
295.922,25.64023,-1.49974,83.52551,0.00E+00,70,-3.32084,1
300.412,26.09292,-1.52712,81.98629,0.00E+00,70,-3.65495,1
304.902,26.54558,-1.54919,80.26002,0.00E+00,70,-3.9718,1
309.392,26.99771,-1.56829,78.37036,0.00E+00,70,-4.26169,1
313.882,27.44957,-1.58575,76.39471,0.00E+00,70,-4.67703,1
318.372,27.90071,-1.59944,74.1516,0.00E+00,70,-5.00082,1
322.862,28.35277,-1.60759,71.84474,0.00E+00,70,-5.29664,1
327.351,28.80474,-1.61372,69.3781,0.00E+00,70,-5.60489,1
331.841,29.25738,-1.61904,66.76129,0.00E+00,70,-5.93183,1
336.331,29.71019,-1.62167,63.99409,0.00E+00,70,-6.23754,1
340.821,30.16199,-1.61854,61.14184,0.00E+00,70,-6.55185,1
345.311,30.61422,-1.60816,58.07254,0.00E+00,70,-6.96377,1
349.801,31.06605,-1.58822,54.83172,0.00E+00,70,-7.45233,1
354.291,31.51826,-1.55192,51.36457,0.00E+00,70,-8.04595,1
358.78,31.97102,-1.5079,47.54452,0.00E+00,70,-8.78548,1
363.27,32.42317,-1.45149,43.39353,0.00E+00,70,-9.44809,1
367.76,32.87579,-1.38565,39.00028,0.00E+00,70,-9.80147,1
372.25,33.32792,-1.32709,34.56225,0.00E+00,70,-9.50849,1
376.74,33.77996,-1.2946,30.43369,0.00E+00,70,-8.15284,1
381.23,34.23074,-1.30581,27.22706,0.00E+00,70,-5.69875,1
385.72,34.68059,-1.35592,25.34625,0.00E+00,70,-3.09503,1
390.21,35.12938,-1.40707,24.42276,0.00E+00,70,-1.44482,1
394.699,35.57934,-1.43512,23.94173,0.00E+00,70,-0.93481,1
399.189,36.03027,-1.45139,23.56836,0.00E+00,70,-0.86934,1
403.679,36.48142,-1.46624,23.17641,0.00E+00,70,-0.75638,1
408.169,36.93216,-1.47974,22.86876,0.00E+00,70,-0.7277,1
412.659,37.38213,-1.48823,22.54159,0.00E+00,70,-0.71967,1
417.149,37.83211,-1.4924,22.2193,0.00E+00,70,-0.70776,1
421.639,38.28179,-1.48318,21.90647,0.00E+00,70,-0.68908,1
426.128,38.73046,-1.47439,21.60237,0.00E+00,70,-0.67621,1
430.618,39.17985,-1.46153,21.29559,0.00E+00,70,-0.65791,1
435.108,39.62942,-1.44263,21.01344,0.00E+00,70,-0.62406,1
439.598,40.07843,-1.41643,20.72563,0.00E+00,70,-0.59634,1
444.088,40.52765,-1.38363,20.48006,0.00E+00,70,-0.59612,1
448.578,40.97588,-1.34626,20.20701,0.00E+00,70,-0.54926,1
453.068,41.42459,-1.29292,19.97673,0.00E+00,70,-0.51238,1
457.558,41.87234,-1.22869,19.74431,0.00E+00,70,-0.51243,1
462.0474,42.32117,-1.15932,19.51022,0.00E+00,70,-0.4727,1
466.537,42.76896,-1.09141,19.31618,0.00E+00,70,-0.39469,1
471.027,43.21691,-1.0205,19.15356,0.00E+00,70,-0.40703,1
475.517,43.66532,-0.95535,18.98123,0.00E+00,70,-0.37305,1
480.007,44.11549,-0.89484,18.799,0.00E+00,70,-0.36895,1
484.497,44.56561,-0.84592,18.65267,0.00E+00,70,-0.31483,1
488.9866,45.01639,-0.80389,18.49853,0.00E+00,70,-0.33139,1
493.476,45.4679,-0.77444,18.38281,0.00E+00,70,-0.26581,1
497.966,45.92036,-0.7588,18.24596,0.00E+00,70,-0.31653,1
502.4562,46.37342,-0.7599,18.07436,0.00E+00,70,-0.41408,1
506.946,46.82679,-0.77815,17.91253,0.00E+00,70,-0.28741,1
511.436,47.28061,-0.8147,17.79683,0.00E+00,70,-0.1953,1
515.9258,47.7357,-0.87369,17.73125,0.00E+00,70,-0.17632,1
520.416,48.19118,-0.95411,17.61558,0.00E+00,70,-0.25146,1
524.906,48.64616,-1.04962,17.52817,0.00E+00,70,-0.20919,1
529.395,49.10192,-1.1546,17.42777,0.00E+00,70,-0.22225,1
533.885,49.55742,-1.27281,17.3199,0.00E+00,70,-0.24032,1
538.375,50.01182,-1.38887,17.20659,0.00E+00,70,-0.2079,1
542.865,50.46514,-1.50247,17.12808,0.00E+00,70,-0.18145,1
547.355,50.91786,-1.61261,17.03452,0.00E+00,70,-0.19736,1
551.845,51.36969,-1.71852,16.89005,0.00E+00,70,-0.33336,1
556.335,51.82077,-1.81968,16.79194,0.00E+00,70,-0.19728,1
560.824,52.27075,-1.91253,16.72389,0.00E+00,70,-0.17596,1
565.314,52.72029,-1.9966,16.63507,0.00E+00,70,-0.15353,1
569.804,53.16996,-2.07258,16.58136,0.00E+00,70,-0.19782,1
574.294,53.61875,-2.13931,16.47293,0.00E+00,70,-0.15445,1
578.784,54.06691,-2.19875,16.46346,0.00E+00,70,-0.11296,1
583.274,54.51504,-2.25237,16.34993,0.00E+00,70,-0.17312,1
587.764,54.96253,-2.29601,16.29836,0.00E+00,70,-0.19008,1
592.254,55.41167,-2.33217,16.18124,0.00E+00,70,-0.23105,1
596.743,55.86041,-2.3594,16.07992,0.00E+00,70,-0.23641,1
601.233,56.3086,-2.37657,15.97974,0.00E+00,70,-0.12371,1
605.723,56.75688,-2.38282,15.94484,0.00E+00,70,-0.1387,1
610.213,57.20543,-2.37885,15.87375,0.00E+00,70,-0.24055,1
614.703,57.65418,-2.36465,15.76361,0.00E+00,70,-0.12556,1
619.193,58.1035,-2.33869,15.7066,0.00E+00,70,-0.14718,1
623.683,58.55292,-2.31012,15.64113,0.00E+00,70,-0.16725,1
628.172,59.00135,-2.27773,15.57119,0.00E+00,70,-0.2049,1
632.662,59.44967,-2.24088,15.50013,0.00E+00,70,-5.77E-02,1
637.152,59.89788,-2.20203,15.46699,0.00E+00,70,-0.1266,1
641.642,60.34691,-2.16233,15.39574,0.00E+00,70,-0.1095,1
646.132,60.79503,-2.12439,15.35313,0.00E+00,70,-0.10363,1
650.622,61.24355,-2.0881,15.30422,0.00E+00,70,-0.12204,1
655.112,61.69142,-2.05401,15.25492,0.00E+00,70,-0.11946,1
659.602,62.13978,-2.02072,15.19717,0.00E+00,70,-9.08E-02,1
664.091,62.58832,-1.99053,15.15821,0.00E+00,70,-7.02E-02,1
668.581,63.03704,-1.96367,15.13086,0.00E+00,70,-9.26E-02,1
673.071,63.48531,-1.9404,15.10653,0.00E+00,70,-6.44E-02,1
677.561,63.93468,-1.91465,15.04399,0.00E+00,70,-0.15829,1
682.051,64.38284,-1.89365,14.9738,0.00E+00,70,-9.43E-02,1
686.5407,64.8315,-1.87182,14.96851,0.00E+00,70,-2.00E-02,1
691.031,65.27953,-1.85053,15.02104,0.00E+00,70,-0.10405,1
695.52,65.72786,-1.8335,14.86245,0.00E+00,70,6.22E-02,1
700.0103,66.17672,-1.81176,14.91088,0.00E+00,70,-0.15702,1
704.5,66.62417,-1.79164,14.82538,0.00E+00,70,-0.16247,1
708.99,67.07199,-1.76137,14.74739,0.00E+00,70,-0.18228,1
713.4799,67.52066,-1.73878,14.72362,0.00E+00,70,-0.14674,1
717.97,67.96866,-1.7209,14.62519,0.00E+00,70,-4.72E-02,1
722.46,68.41698,-1.70023,14.62856,0.00E+00,70,2.41E-02,1
726.9495,68.86557,-1.68045,14.62952,0.00E+00,70,-4.33E-02,1
731.439,69.31363,-1.66319,14.6054,0.00E+00,70,-8.20E-02,1
735.929,69.76298,-1.64587,14.56045,0.00E+00,70,-7.48E-02,1
740.4191,70.21035,-1.62671,14.52315,0.00E+00,70,-3.13E-02,1
744.909,70.65761,-1.60756,14.54227,0.00E+00,70,-2.07E-02,1
749.399,71.10597,-1.5882,14.51009,0.00E+00,70,-7.35E-02,1
753.889,71.555,-1.57009,14.4805,0.00E+00,70,-9.79E-02,1
758.379,72.00357,-1.55356,14.41993,0.00E+00,70,-0.17075,1
762.868,72.45235,-1.53928,14.26579,0.00E+00,70,-8.65E-02,1
767.358,72.90102,-1.52492,14.34496,0.00E+00,70,-7.87E-03,1
771.848,73.349,-1.52261,14.31804,0.00E+00,70,-7.60E-02,1
776.338,73.79702,-1.50719,14.27086,0.00E+00,70,-7.74E-02,1
780.828,74.2455,-1.49514,14.2425,0.00E+00,70,-4.94E-02,1
785.318,74.69372,-1.48166,14.23362,0.00E+00,70,-6.50E-02,1
789.808,75.1415,-1.47164,14.19716,0.00E+00,70,-0.13978,1
794.297,75.58994,-1.43943,14.1646,0.00E+00,70,5.51E-02,1
797.79,75.93923,-1.42411,14.16675,0.00E+00,70,-8.88E-02,1

File: Aalto_ExpDat_mcfp_STA_10N2800Trial03-1.csv
##Temp./?C,Time/min,DSC/(uV/mg),Mass/%,Gas Flow(purge2)/(ml/min),Gas Flow(protective)/(ml/min),DTG/(%/min),Sensit./(uV/mW)
39.979,0,-3.40E-03,100,0.00E+00,70,6.15784,1
44.479,1.64853,-4.79E-02,99.58869,0.00E+00,70,-0.32075,1
48.979,2.30757,-4.82E-02,99.41879,0.00E+00,70,-0.20556,1
53.479,2.88293,-4.71E-02,99.3148,0.00E+00,70,-0.16856,1
57.979,3.40523,-5.29E-02,99.24637,0.00E+00,70,-0.15196,1
62.479,3.87973,-6.68E-02,99.16092,0.00E+00,70,-0.20969,1
66.979,4.31995,-8.15E-02,99.07169,0.00E+00,70,-0.1836,1
71.479,4.73484,-9.80E-02,98.98567,0.00E+00,70,-0.18282,1
75.979,5.13535,-0.11615,98.92173,0.00E+00,70,-0.24331,1
80.479,5.52509,-0.13725,98.80649,0.00E+00,70,-0.25524,1
84.979,5.90731,-0.16389,98.72081,0.00E+00,70,-0.20299,1
89.479,6.28302,-0.19676,98.65695,0.00E+00,70,-0.16691,1
93.979,6.65469,-0.23332,98.58569,0.00E+00,70,-0.15729,1
98.479,7.02372,-0.27209,98.54691,0.00E+00,70,-0.11886,1
102.979,7.39279,-0.31108,98.49777,0.00E+00,70,-0.11692,1
107.479,7.76314,-0.34614,98.4582,0.00E+00,70,-7.93E-02,1
111.979,8.136,-0.38072,98.44775,0.00E+00,70,-6.03E-02,1
116.479,8.51071,-0.4148,98.41499,0.00E+00,70,-2.50E-02,1
120.979,8.88881,-0.44416,98.41784,0.00E+00,70,-6.52E-03,1
125.479,9.26914,-0.47712,98.4196,0.00E+00,70,-2.83E-02,1
129.979,9.65084,-0.50857,98.40158,0.00E+00,70,-1.98E-02,1
134.479,10.03656,-0.54021,98.39329,0.00E+00,70,-1.70E-03,1
138.979,10.4243,-0.5686,98.40418,0.00E+00,70,-4.23E-02,1
143.479,10.8162,-0.59696,98.36838,0.00E+00,70,-3.17E-02,1
147.979,11.21164,-0.62646,98.36398,0.00E+00,70,-1.32E-02,1
152.479,11.61135,-0.65351,98.36167,0.00E+00,70,-2.97E-02,1
156.979,12.01564,-0.67869,98.33628,0.00E+00,70,-6.25E-02,1
161.479,12.42439,-0.70131,98.3194,0.00E+00,70,-9.59E-02,1
165.979,12.83761,-0.7231,98.26113,0.00E+00,70,-8.53E-02,1
170.479,13.2549,-0.74593,98.23606,0.00E+00,70,-0.12478,1
174.979,13.67639,-0.76613,98.16823,0.00E+00,70,-0.17382,1
179.479,14.10128,-0.78781,98.06311,0.00E+00,70,-0.22369,1
183.979,14.52796,-0.80837,97.98974,0.00E+00,70,-0.22562,1
188.479,14.95776,-0.82824,97.88172,0.00E+00,70,-0.31868,1
192.979,15.3895,-0.84763,97.71048,0.00E+00,70,-0.3828,1
197.479,15.82372,-0.86623,97.54362,0.00E+00,70,-0.44611,1
201.979,16.26107,-0.88748,97.32523,0.00E+00,70,-0.4923,1
206.479,16.70074,-0.90747,97.11724,0.00E+00,70,-0.51523,1
210.979,17.14274,-0.93112,96.85035,0.00E+00,70,-0.63201,1
215.479,17.58591,-0.95645,96.57605,0.00E+00,70,-0.58942,1
219.979,18.03091,-0.98543,96.31973,0.00E+00,70,-0.63996,1
224.479,18.47722,-1.01285,96.01137,0.00E+00,70,-0.69708,1
228.979,18.92468,-1.04414,95.69436,0.00E+00,70,-0.75098,1
233.479,19.37295,-1.0753,95.33772,0.00E+00,70,-0.82809,1
237.979,19.82215,-1.1077,94.9546,0.00E+00,70,-0.95239,1
242.479,20.27259,-1.14098,94.49182,0.00E+00,70,-1.10015,1
246.979,20.72266,-1.17582,93.95623,0.00E+00,70,-1.25444,1
251.479,21.17346,-1.21221,93.35751,0.00E+00,70,-1.39908,1
255.979,21.62428,-1.24992,92.69211,0.00E+00,70,-1.53738,1
260.479,22.07493,-1.2876,91.97182,0.00E+00,70,-1.72121,1
264.979,22.5269,-1.32204,91.1286,0.00E+00,70,-1.94073,1
269.479,22.9788,-1.35715,90.23002,0.00E+00,70,-2.05168,1
273.979,23.43011,-1.39304,89.26353,0.00E+00,70,-2.30104,1
278.479,23.88298,-1.42845,88.15569,0.00E+00,70,-2.4901,1
282.979,24.3359,-1.46297,87.00125,0.00E+00,70,-2.66725,1
287.479,24.78906,-1.4982,85.75544,0.00E+00,70,-2.912,1
291.979,25.24153,-1.53285,84.38724,0.00E+00,70,-3.13072,1
296.479,25.6946,-1.56448,82.89155,0.00E+00,70,-3.52805,1
300.979,26.14727,-1.59535,81.24531,0.00E+00,70,-3.77424,1
305.479,26.59924,-1.62371,79.42357,0.00E+00,70,-4.08178,1
309.979,27.05267,-1.64952,77.52476,0.00E+00,70,-4.36743,1
314.479,27.50542,-1.67339,75.485,0.00E+00,70,-4.73216,1
318.979,27.95767,-1.69194,73.24779,0.00E+00,70,-5.07207,1
323.479,28.41073,-1.70824,70.88605,0.00E+00,70,-5.3962,1
327.979,28.86284,-1.72137,68.39057,0.00E+00,70,-5.702,1
332.479,29.31555,-1.73211,65.71845,0.00E+00,70,-6.04089,1
336.979,29.76831,-1.73634,62.89937,0.00E+00,70,-6.34136,1
341.479,30.21963,-1.73453,59.97863,0.00E+00,70,-6.6533,1
345.979,30.67187,-1.72575,56.87947,0.00E+00,70,-7.04567,1
350.479,31.12333,-1.70945,53.60775,0.00E+00,70,-7.55021,1
354.979,31.57618,-1.68299,50.05404,0.00E+00,70,-8.15972,1
359.479,32.02929,-1.65278,46.20929,0.00E+00,70,-8.85269,1
363.979,32.48266,-1.6134,42.03861,0.00E+00,70,-9.46809,1
368.479,32.93594,-1.57731,37.64281,0.00E+00,70,-9.65904,1
372.979,33.38791,-1.55864,33.32311,0.00E+00,70,-8.95444,1
377.479,33.83837,-1.56654,29.59601,0.00E+00,70,-7.13981,1
381.979,34.28716,-1.62084,26.92737,0.00E+00,70,-4.47543,1
386.479,34.73484,-1.67196,25.55196,0.00E+00,70,-2.22968,1
390.979,35.19793,-1.89011,24.90894,0.00E+00,70,-1.07215,1
395.479,35.65549,-1.99392,24.50464,0.00E+00,70,-0.85903,1
399.979,36.10824,-2.03815,24.13488,0.00E+00,70,-0.80829,1
404.479,36.56129,-2.05613,23.77855,0.00E+00,70,-0.75223,1
408.979,37.01481,-2.07551,23.44935,0.00E+00,70,-0.71103,1
413.479,37.4664,-2.09628,23.11857,0.00E+00,70,-0.65318,1
417.979,37.91794,-2.1171,22.85578,0.00E+00,70,-0.62927,1
422.479,38.37025,-2.13343,22.57369,0.00E+00,70,-0.60921,1
426.979,38.82257,-2.15538,22.29927,0.00E+00,70,-0.60559,1
431.479,39.27426,-2.17926,22.01831,0.00E+00,70,-0.60536,1
435.979,39.72562,-2.20262,21.74718,0.00E+00,70,-0.57493,1
440.479,40.17776,-2.22595,21.49542,0.00E+00,70,-0.55797,1
444.979,40.63057,-2.25717,21.24671,0.00E+00,70,-0.52029,1
449.479,41.08291,-2.29468,21.02495,0.00E+00,70,-0.47776,1
453.979,41.53604,-2.34192,20.81435,0.00E+00,70,-0.47092,1
458.479,41.98886,-2.39062,20.6093,0.00E+00,70,-0.45296,1
462.979,42.44177,-2.44992,20.39826,0.00E+00,70,-0.43527,1
467.479,42.89532,-2.50454,20.21651,0.00E+00,70,-0.38611,1
471.979,43.351,-2.55905,20.04294,0.00E+00,70,-0.39091,1
476.479,43.80564,-2.62296,19.87032,0.00E+00,70,-0.36208,1
480.979,44.2566,-2.68288,19.71639,0.00E+00,70,-0.32586,1
485.479,44.70659,-2.73053,19.56779,0.00E+00,70,-0.31638,1
489.979,45.15619,-2.7645,19.42482,0.00E+00,70,-0.29783,1
494.479,45.60655,-2.79033,19.30424,0.00E+00,70,-0.28898,1
498.979,46.05735,-2.80893,19.17371,0.00E+00,70,-0.37075,1
503.479,46.50865,-2.82263,18.94808,0.00E+00,70,-0.407,1
507.979,46.95951,-2.8257,18.81762,0.00E+00,70,-0.29147,1
512.479,47.41125,-2.82088,18.68608,0.00E+00,70,-0.2406,1
516.979,47.86285,-2.82095,18.60001,0.00E+00,70,-0.23184,1
521.479,48.31397,-2.82096,18.45765,0.00E+00,70,-0.28533,1
525.979,48.76413,-2.82565,18.35703,0.00E+00,70,-0.27957,1
530.479,49.21515,-2.8326,18.22278,0.00E+00,70,-0.27675,1
534.979,49.66513,-2.83898,18.101,0.00E+00,70,-0.2693,1
539.479,50.11631,-2.84358,17.97236,0.00E+00,70,-0.26575,1
543.979,50.56689,-2.84914,17.86213,0.00E+00,70,-0.27191,1
548.479,51.0175,-2.85699,17.72763,0.00E+00,70,-0.29938,1
552.979,51.46825,-2.86185,17.59113,0.00E+00,70,-0.2893,1
557.479,51.919,-2.86884,17.46465,0.00E+00,70,-0.3038,1
561.979,52.36965,-2.87252,17.32857,0.00E+00,70,-0.27025,1
566.479,52.82088,-2.87814,17.22528,0.00E+00,70,-0.19267,1
570.979,53.27103,-2.88284,17.1416,0.00E+00,70,-0.26756,1
575.479,53.72102,-2.8916,16.98236,0.00E+00,70,-0.24181,1
579.979,54.17188,-2.89123,16.90774,0.00E+00,70,-0.22218,1
584.479,54.6225,-2.89489,16.79325,0.00E+00,70,-0.26333,1
588.979,55.07221,-2.89732,16.67886,0.00E+00,70,-0.30258,1
593.479,55.52168,-2.90198,16.53956,0.00E+00,70,-0.29232,1
597.979,55.97125,-2.90325,16.40947,0.00E+00,70,-0.30603,1
602.479,56.42205,-2.90088,16.30437,0.00E+00,70,-0.17279,1
606.979,56.87234,-2.89917,16.19935,0.00E+00,70,-0.2802,1
611.479,57.32208,-2.89892,16.07848,0.00E+00,70,-0.32651,1
615.979,57.77219,-2.89765,15.94793,0.00E+00,70,-0.19523,1
620.479,58.22249,-2.89756,15.84057,0.00E+00,70,-0.22405,1
624.979,58.67222,-2.89384,15.74245,0.00E+00,70,-0.21527,1
629.479,59.12178,-2.89172,15.64246,0.00E+00,70,-0.24992,1
633.979,59.57212,-2.88877,15.56377,0.00E+00,70,-0.15635,1
638.479,60.02316,-2.88799,15.46702,0.00E+00,70,-0.21936,1
642.979,60.4728,-2.88477,15.37129,0.00E+00,70,-0.18934,1
647.479,60.92268,-2.88088,15.28775,0.00E+00,70,-0.18995,1
651.979,61.37273,-2.87081,15.19372,0.00E+00,70,-0.21593,1
656.479,61.82224,-2.86856,15.10395,0.00E+00,70,-0.19541,1
660.979,62.27232,-2.86036,15.01522,0.00E+00,70,-0.16613,1
665.479,62.72255,-2.85449,14.95544,0.00E+00,70,-0.15304,1
669.979,63.17373,-2.84791,14.87974,0.00E+00,70,-0.14412,1
674.479,63.6235,-2.845,14.81599,0.00E+00,70,-0.17874,1
678.979,64.07286,-2.83985,14.71603,0.00E+00,70,-0.24765,1
683.479,64.52249,-2.83044,14.60075,0.00E+00,70,-0.17049,1
687.979,64.97091,-2.82473,14.56292,0.00E+00,70,-0.10586,1
692.479,65.41974,-2.81507,14.51031,0.00E+00,70,-0.14262,1
696.979,65.8697,-2.80316,14.43012,0.00E+00,70,-0.16839,1
701.479,66.31878,-2.79165,14.3641,0.00E+00,70,-0.15653,1
705.979,66.76768,-2.78022,14.28346,0.00E+00,70,-0.18664,1
710.479,67.2166,-2.76884,14.19671,0.00E+00,70,-0.15613,1
714.979,67.66631,-2.75611,14.13998,0.00E+00,70,-0.14093,1
719.479,68.11596,-2.74404,14.07344,0.00E+00,70,-0.14719,1
723.979,68.56516,-2.72869,14.02224,0.00E+00,70,-0.10953,1
728.479,69.01496,-2.71174,13.9633,0.00E+00,70,-0.13041,1
732.979,69.46452,-2.69919,13.9069,0.00E+00,70,-0.13008,1
737.479,69.91497,-2.68231,13.83969,0.00E+00,70,-0.13981,1
741.979,70.3655,-2.66518,13.7907,0.00E+00,70,-6.76E-02,1
746.479,70.81423,-2.65455,13.75848,0.00E+00,70,-0.11671,1
750.979,71.26315,-2.63922,13.70581,0.00E+00,70,-0.13201,1
755.479,71.71098,-2.62657,13.63898,0.00E+00,70,-0.15097,1
759.979,72.16104,-2.6049,13.57053,0.00E+00,70,-0.21845,1
764.479,72.61191,-2.58229,13.49995,0.00E+00,70,-4.69E-02,1
768.979,73.06168,-2.56715,13.47367,0.00E+00,70,-0.10887,1
773.479,73.5109,-2.55206,13.39674,0.00E+00,70,-0.15527,1
777.979,73.96004,-2.52967,13.33334,0.00E+00,70,-9.73E-02,1
782.479,74.41057,-2.50383,13.29403,0.00E+00,70,-9.69E-02,1
786.979,74.85984,-2.47985,13.25361,0.00E+00,70,-0.15179,1
791.479,75.30947,-2.45726,13.08567,0.00E+00,70,-0.13938,1
795.979,75.75805,-2.4315,13.14949,0.00E+00,70,-1.87E-02,1
797.479,75.90741,-2.42337,13.14187,0.00E+00,70,-3.27E-02,1