Folder: matl-db/Wood/Calibration_Data/FPL (part 3)

File: FPL_Wood_Cone_50kW_hor_R6.csv
Time (s),Mass (g),HRR (kW/m2),TC Top (K),TC back 1 (K),TC back 2 (K)
0,100.1,2.13373,310.01,293.658,293.682
8,82.9666,-1.33179,525.674,293.748,293.706
16,82.25552,136.444,717.21,293.838,293.754
24,81.1307,178.895,800.317,294.286,293.883
32,80.2422,143.404,861.178,295.654,293.905
40,79.4732,122.728,883.642,298.464,294.015
48,78.8598,118.961,904.511,302.311,294.142
56,78.22227,112.356,926.262,307.832,294.293
64,77.65508,102.931,945.987,313.07,294.384
72,77.0609,97.4595,967.552,319.761,294.542
80,76.5545,95.0507,970.912,325.555,294.844
88,76.0151,89.9848,973.854,332.015,295.142
96,75.5118,88.5341,982.71,338.402,295.587
104,75.0227,89.0191,990.022,344.98,296.053
112,74.5287,84.7487,981.916,351.557,296.646
120,74.0075,83.0943,991.017,357.815,297.314
128,73.6424,78.4642,1003.859,367.001,298.206
136,73.1137,79.195,1014.189,373.373,298.983
144,72.7136,80.5697,997.159,377.854,300.08
152,72.232,79.5863,1014.94,380.835,301.15
160,71.7722,75.0973,1035.248,384.488,302.283
168,71.3255,79.7298,1013.925,388.807,303.523
176,70.88191,76.2763,1014.271,393.282,304.94
184,70.4606,80.2434,1035.882,398.122,306.383
192,70.0307,75.0227,1052.047,402.894,307.841
200,69.5835,76.2268,1035.233,408.969,309.563
208,69.1327,75.4273,1043.841,414.766,311.206
216,68.6924,80.7209,1045.811,422.124,313.07
224,68.2433,76.6711,1050.943,428.869,314.734
232,67.843,78.4625,1050.649,436.167,316.68
240,67.4204,75.6614,1059.524,444.589,318.631
248,66.95311,79.9119,1064.799,452.443,320.687
256,66.4498,75.2889,1058.776,461.008,322.715
264,66.0666,75.5757,1055.498,468.778,324.777
272,65.6374,77.0769,1064.115,477.168,327.205
280,65.192,79.2716,1056.123,484.971,329.175
288,64.7596,79.4963,1056.6,494.172,331.718
296,64.3057,75.2904,1043.562,501.584,333.946
304,63.896,77.4177,1048.647,509.67,336.418
312,63.4097,75.7815,1077.164,517.55,338.859
320,62.9734,76.3901,1048.977,525.435,341.363
328,62.5431,77.3568,1054.926,532.919,343.936
336,62.0775,76.9433,1083.712,539.536,346.333
344,61.6328,76.388,1076.551,547.417,349.144
352,61.1891,75.202,1064.476,554.153,351.601
360,60.77019,74.8983,1063.335,562.126,354.535
368,60.31456,75.2355,1075.415,568.984,357.014
376,59.8705,76.0771,1072.51,577.193,359.907
384,59.44008,77.3224,1086.259,584.153,362.265
392,58.9983,76.0326,1084.503,592.067,364.873
400,58.55652,79.1288,1074.009,599.635,367.287
408,58.0656,77.4528,1059.451,607.235,369.868
416,57.6196,79.2028,1062.135,614.314,372.426
424,57.1411,81.4807,1060.205,620.264,374.704
432,56.7433,79.625,1049.89,626.751,377.044
440,56.2601,78.8347,1060.897,632.227,378.676
448,55.8866,81.062,1064.321,638.885,380.147
456,55.4071,83.1222,1055.728,644.474,381.072
464,54.9305,78.2241,1056.686,650.496,381.941
472,54.4887,76.9341,1058.736,656.386,382.595
480,54.0243,78.5377,1060.418,662.432,383.407
488,53.6007,79.2285,1056.928,668.44,384.34
496,53.181,79.9586,1058.408,674.218,385.188
504,52.6513,79.7595,1057.189,681.303,386.459
512,52.2724,79.8812,1061.186,687.95,387.696
520,51.7691,78.0616,1063.388,696.078,389.263
528,51.3437,80.2606,1062.574,703.693,390.79
536,50.9605,81.197,1068.982,711.912,392.606
544,50.45757,78.1034,1073.012,718.665,394.434
552,50.0192,81.6491,1075.539,726.304,396.625
560,49.5723,81.2638,1073.363,733.463,398.909
568,49.1467,79.3745,1075.46,740.307,401.208
576,48.6777,77.971,1089.73,748.618,403.948
584,48.3002,81.7332,1082.476,756.146,406.565
592,47.8032,82.7079,1084.673,764.286,409.599
600,47.3484,82.7031,1090.506,770.518,412.41
608,46.9547,81.1273,1092.107,777.869,415.735
616,46.4581,80.004,1096.888,783.907,418.722
624,46.0654,82.9233,1092.298,790.495,421.951
632,45.6015,81.3089,1086.323,795.799,425.265
640,45.1501,83.7649,1087.572,801.296,428.727
648,44.7146,82.3529,1088.128,806.76,432.099
656,44.2872,81.2184,1080.542,811.587,435.252
664,43.84424,80.4012,1097.55,816.477,438.931
672,43.42082,80.0423,1107.064,820.209,442.104
680,43.0026,80.3068,1082.267,825.388,445.86
688,42.5504,83.6896,1090.076,829.678,449.091
696,42.0739,82.091,1091.582,834.369,452.849
704,41.6042,83.5996,1104.001,837.877,456.125
712,41.2438,84.2363,1094.952,842.087,459.626
720,40.7514,84.1914,1105.509,845.531,463.108
728,40.3037,84.0343,1105.574,849.233,466.386
736,39.856,84.9329,1109.085,853.939,470.196
744,39.4134,83.4227,1106.194,858.083,473.561
752,38.9892,86.8095,1105.343,862.866,477.486
760,38.5179,88.4832,1094.057,866.514,480.724
768,38.0839,87.6282,1108.184,869.556,484.493
776,37.6373,82.2066,1107.629,872.505,487.855
784,37.20575,85.5256,1111.239,875.884,491.385
792,36.7764,88.0647,1111.078,879.795,495.024
800,36.3259,88.0302,1096.826,883.653,498.709
808,35.8557,88.804,1114.859,886.799,502.175
816,35.4094,90.8982,1114.055,890.178,505.539
824,34.9535,90.1321,1105.308,893.871,509.631
832,34.4858,89.271,1113.885,896.512,512.92
840,34.0728,90.5447,1112.153,898.946,516.77
848,33.6309,90.8575,1120.509,901.33,520.176
856,33.1393,90.6489,1117.395,904.307,523.976
864,32.6581,92.7368,1117.91,906.675,527.432
872,32.1843,92.3702,1118.456,909.153,531.513
880,31.6782,95.9716,1115.625,911.31,535.151
888,31.1719,93.2975,1125.191,913.848,538.593
896,30.5951,94.6305,1124.323,917.324,542.784
904,30.0446,95.2568,1125.312,919.529,546.382
912,29.4981,97.8389,1127.136,922.779,550.746
920,29.3061,100.008,1132.374,925.486,554.448
928,28.7689,94.0509,1130.68,927.595,559.046
936,28.28045,93.9716,1129.677,929.707,562.818
944,27.783,94.5905,1122.555,932.534,567.149
952,27.2631,100.285,1126.124,934.71,571.198
960,26.78686,98.3607,1120.611,936.266,575.336
968,26.2563,99.1832,1123.729,937.267,580.002
976,25.7554,96.9733,1131.088,940.234,584.031
984,25.1517,101.313,1118.987,943.154,588.649
992,24.6625,102.77,1134.048,944.994,592.906
1000,24.0743,100.046,1136.043,947.35,597.666
1008,23.5173,99.9284,1124.759,949.25,602.078
1016,22.9244,103.117,1123.614,952.102,606.523
1024,22.51726,102.772,1129.23,953.732,611.229
1032,21.9115,101.134,1130.362,954.498,616.481
1040,21.343,103.511,1133.028,956.956,621.339
1048,20.76327,106.229,1124.654,958.454,625.871
1056,20.2168,107.271,1121.846,960.712,631.445
1064,19.7718,108.376,1125.626,962.392,635.754
1072,19.12561,107.961,1125.072,964.229,641.625
1080,18.5854,109.753,1123.735,965.53,647.293
1088,18.0342,111.79,1103.175,966.642,653.621
1096,17.5258,114.183,1097.742,968.039,659.081
1104,16.9776,111.595,1117.673,970.091,666.301
1112,16.362,109.981,1066.913,972.087,673.429
1120,15.8052,114.539,1062.528,974.367,682.217
1128,15.1715,111.607,1103.528,976.419,693.348
1136,14.5633,113.119,1056.029,976.857,711.324
1144,14.0029,113.406,1046.088,979.149,726.265
1152,13.4155,118.188,1067.996,981.482,738.677
1160,12.8151,112.641,1042.112,982.981,751.811
1168,12.1891,112.628,1020.359,984.827,767.789
1176,11.6949,112.29,1000.089,987.132,778.101
1184,11.2733,112.018,1001.894,988.956,780.021
1192,10.6921,114.513,989.447,990.743,786.174
1200,10.1343,112.097,1002.513,992.946,791.984
1208,9.600236,112.004,1004.365,993.399,795.522
1216,9.011156,111.762,1010.335,993.554,798.305
1224,8.646667,108.104,976.7,995.798,808.076
1232,8.090618,104.331,951.751,998.892,822.298
1240,7.6485,103.492,945.975,1001.15,830.223
1248,7.190535,103.903,928.502,1002.42,835.252
1256,6.708775,97.218,937.309,1005.608,835.011
1264,6.31096,93.0436,941.951,1006.72,834.294
1272,5.893848,92.9038,911.002,1007.29,831.691
1280,5.520825,86.2743,917.703,1008.544,833.873
1288,5.181109,85.8109,956.673,1008.39,836.781
1296,4.845392,79.5119,939.24,1008.965,840.221
1304,4.530967,80.7254,928.03,1009.332,842.759
1312,4.224783,73.9021,919.878,1010.519,845.578
1320,3.922631,66.8511,912.071,1011.965,849.682
1328,3.663453,62.7258,902.323,1013.529,853.054
1336,3.429526,65.0831,938.106,1014.615,857.658
1344,3.317028,60.4362,957.57,1016.132,861.3
1352,3.085209,59.425,923.023,1017.57,865.201
1360,2.876486,55.7605,959.447,1018.159,869.134
1368,2.61368,52.9695,959.509,1019.789,872.133
1376,2.40614,53.8163,932.649,1022.274,876.45
1384,2.238166,47.4733,890.166,1022.947,879.52
1392,2.047106,47.6176,889.175,1026.466,882.525
1400,1.732816,48.6438,869.375,1027.811,885.101
1408,1.597432,46.1358,923.286,1029.882,888.85
1416,1.395077,46.2453,892.281,1032.433,891.271
1424,1.277551,44.8788,937.489,1033.28,894.013
1432,1.133206,46.0106,922.749,1035.953,896.796
1440,1.073968,41.1814,924.935,1037.388,898.855
1448,0.947078,41.6642,966.27,1036.916,901.451
1456,0.832652,43.5714,955.897,1038.286,903.975
1464,0.696216,36.9592,947.259,1039.903,906.246
1472,0.569687,37.7622,950.928,1040.387,908.21
1480,0.507771,35.5726,943.705,1040.131,910.476
1488,0.410698,35.4239,900.275,1040.829,912.167
1496,0.259626,35.6953,916.121,1042.866,913.904
1504,0.137414,39.722,934.949,1042.562,915.671
1512,0.058421,40.3906,914.337,1042.169,917.469
1520,0.007969,34.7883,887.048,1043.321,918.91
1528,-0.079321,34.8838,892.747,1043.022,920.692
1536,-0.18956,33.7107,902.5,1043.272,922.468
1544,-0.258113,34.7697,875.028,1045.273,923.959
1552,-0.41827,37.2399,881.33,1041.859,925.674
1560,-0.424239,35.417,900.569,1040.966,927.132
1568,-0.569877,33.1142,866.387,1040.778,928.867
1576,-0.637201,35.2577,887.244,1038.575,930.266
1584,-0.727084,33.7726,876.224,1037.53,931.602
1592,-0.822601,34.3686,879.301,1038.226,932.913
1600,-0.88869,33.8062,876.359,1038.579,934.128
1608,-1.000121,34.9174,874.015,1037.876,935.299
1616,-1.043294,34.2344,863.49,1036.57,936.222
1620,-1.118008,31.8624,872.69,1036.412,937.07

File: FPL_Wood_TGA_N2_10K_R1.csv
Time (s),Temperature (K),Mass (mg)
0,303.15,6.522797
16,313.817,6.524287
32,324.483,6.524172
48,335.15,6.520642
64,345.817,6.513586
80,356.483,6.500271
96,367.15,6.47751
112,377.817,6.453579
128,378.15,6.144502
144,378.15,6.144587
160,378.15,6.144389
176,378.15,6.144402
192,378.15,6.143862
208,378.15,6.144201
224,378.15,6.144201
240,378.15,6.144201
256,378.15,6.144101
272,378.15,6.144309
288,378.15,6.144102
304,373.358,6.144275
320,366.692,6.144217
336,360.025,6.143729
352,353.358,6.143558
368,346.692,6.143364
384,340.025,6.143414
400,333.358,6.143266
416,326.692,6.14319
432,320.025,6.14311
448,313.358,6.143215
464,306.692,6.14327
480,303.15,6.145301
496,303.15,6.145701
512,303.15,6.145502
528,303.15,6.145502
544,303.15,6.145645
560,303.15,6.145586
576,303.15,6.14568
592,303.15,6.14571
608,303.15,6.145628
624,303.15,6.14528
640,303.15,6.145362
656,303.15,6.145501
672,303.15,6.145601
688,303.15,6.145798
704,303.15,6.145305
720,303.15,6.145626
736,303.15,6.145802
752,303.15,6.145802
768,303.15,6.145901
784,303.15,6.145535
800,303.15,6.145802
816,303.15,6.145902
832,303.15,6.146135
848,303.15,6.145902
864,303.15,6.146001
880,303.15,6.146001
896,303.15,6.146001
912,303.15,6.145925
928,303.15,6.145901
944,303.15,6.146072
960,303.15,6.146113
976,303.15,6.146372
992,303.15,6.146238
1008,303.15,6.146502
1024,303.15,6.146484
1040,303.15,6.146501
1056,303.15,6.146602
1072,303.15,6.146562
1088,305.733,6.147452
1104,308.4,6.147763
1120,311.067,6.147716
1136,313.733,6.147713
1152,316.4,6.148056
1168,319.067,6.147989
1184,321.733,6.148109
1200,324.4,6.14809
1216,327.067,6.14806
1232,329.733,6.148303
1248,332.4,6.148318
1264,335.067,6.148354
1280,337.733,6.148304
1296,340.4,6.148255
1312,343.067,6.148248
1328,345.733,6.148506
1344,348.4,6.148204
1360,351.067,6.148168
1376,353.733,6.148114
1392,356.4,6.148619
1408,359.067,6.148372
1424,361.733,6.14787
1440,364.4,6.148744
1456,367.067,6.148132
1472,369.733,6.148102
1488,372.4,6.14796
1504,375.067,6.147956
1520,377.733,6.147684
1536,380.4,6.147089
1552,383.067,6.147221
1568,385.733,6.147124
1584,388.4,6.146996
1600,391.067,6.146802
1616,393.733,6.14651
1632,396.4,6.146172
1648,399.067,6.146225
1664,401.733,6.146117
1680,404.4,6.145521
1696,407.067,6.14559
1712,409.733,6.145412
1728,412.4,6.145101
1744,415.067,6.144827
1760,417.733,6.144554
1776,420.4,6.144504
1792,423.067,6.143814
1808,425.733,6.143387
1824,428.4,6.143065
1840,431.067,6.1427
1856,433.733,6.142295
1872,436.4,6.141484
1888,439.067,6.141149
1904,441.733,6.140708
1920,444.4,6.139976
1936,447.067,6.139206
1952,449.733,6.138326
1968,452.4,6.137728
1984,455.067,6.136788
2000,457.733,6.135521
2016,460.4,6.134257
2032,463.067,6.132995
2048,465.733,6.131203
2064,468.4,6.129108
2080,471.067,6.127168
2096,473.733,6.124527
2112,476.4,6.121709
2128,479.067,6.118525
2144,481.733,6.114784
2160,484.4,6.111241
2176,487.067,6.107041
2192,489.733,6.101863
2208,492.4,6.096695
2224,495.067,6.090923
2240,497.733,6.08463
2256,500.4,6.077833
2272,503.067,6.070461
2288,505.733,6.062647
2304,508.4,6.053702
2320,511.067,6.043816
2336,513.733,6.033108
2352,516.4,6.021531
2368,519.067,6.008784
2384,521.733,5.995089
2400,524.4,5.98087
2416,527.067,5.965663
2432,529.733,5.949602
2448,532.4,5.932776
2464,535.067,5.914616
2480,537.733,5.895061
2496,540.4,5.874135
2512,543.067,5.852303
2528,545.733,5.828815
2544,548.4,5.803745
2560,551.067,5.776938
2576,553.733,5.749144
2592,556.4,5.718447
2608,559.067,5.686242
2624,561.733,5.652003
2640,564.4,5.615449
2656,567.067,5.576637
2672,569.733,5.535607
2688,572.4,5.491607
2704,575.067,5.444966
2720,577.733,5.394961
2736,580.4,5.341722
2752,583.067,5.284388
2768,585.733,5.22324
2784,588.4,5.157544
2800,591.067,5.088255
2816,593.733,5.01414
2832,596.4,4.935873
2848,599.067,4.85327
2864,601.733,4.766509
2880,604.4,4.675978
2896,607.067,4.581926
2912,609.733,4.484326
2928,612.4,4.383194
2944,615.067,4.278449
2960,617.733,4.168892
2976,620.4,4.054538
2992,623.067,3.933593
3008,625.733,3.804645
3024,628.4,3.666241
3040,631.067,3.516735
3056,633.733,3.356017
3072,636.4,3.185096
3088,639.067,3.009259
3104,641.733,2.836245
3120,644.4,2.677218
3136,647.067,2.542214
3152,649.733,2.437232
3168,652.4,2.360574
3184,655.067,2.306726
3200,657.733,2.268698
3216,660.4,2.239901
3232,663.067,2.216033
3248,665.733,2.195148
3264,668.4,2.175593
3280,671.067,2.156882
3296,673.733,2.138681
3312,676.4,2.121168
3328,679.067,2.103523
3344,681.733,2.0861
3360,684.4,2.069259
3376,687.067,2.052203
3392,689.733,2.035231
3408,692.4,2.018331
3424,695.067,2.001731
3440,697.733,1.985374
3456,700.4,1.969067
3472,703.067,1.953032
3488,705.733,1.937187
3504,708.4,1.921198
3520,711.067,1.906236
3536,713.733,1.891057
3552,716.4,1.876751
3568,719.067,1.862559
3584,721.733,1.848859
3600,724.4,1.835579
3616,727.067,1.822902
3632,729.733,1.81049
3648,732.4,1.799027
3664,735.067,1.787793
3680,737.733,1.77706
3696,740.4,1.766756
3712,743.067,1.757025
3728,745.733,1.74737
3744,748.4,1.738199
3760,751.067,1.729633
3776,753.733,1.720825
3792,756.4,1.712569
3808,759.067,1.704577
3824,761.733,1.69688
3840,764.4,1.689507
3856,767.067,1.682115
3872,769.733,1.674884
3888,772.4,1.668125
3904,775.067,1.661168
3920,777.733,1.6546
3936,780.4,1.648168
3952,783.067,1.641418
3968,785.733,1.634954
3984,788.4,1.628913
4000,791.067,1.622812
4016,793.733,1.61713
4032,796.4,1.611133
4048,799.067,1.604765
4064,801.733,1.599207
4080,804.4,1.594028
4096,807.067,1.588553
4112,809.733,1.583353
4128,812.4,1.578249
4144,815.067,1.572912
4160,817.733,1.56762
4176,820.4,1.562717
4192,823.067,1.557707
4208,825.733,1.552843
4224,828.4,1.548281
4240,831.067,1.543488
4256,833.733,1.538784
4272,836.4,1.534184
4288,839.067,1.529731
4304,841.733,1.525185
4320,844.4,1.520803
4336,847.067,1.516522
4352,849.733,1.512177
4368,852.4,1.508156
4384,855.067,1.503851
4400,857.733,1.499509
4416,860.4,1.495614
4432,863.067,1.491588
4448,865.733,1.487626
4464,868.4,1.483812
4480,871.067,1.480115
4496,873.733,1.47634
4512,876.4,1.472958
4528,879.067,1.469304
4544,881.733,1.465662
4560,884.4,1.462437
4576,887.067,1.459449
4592,889.733,1.456833
4608,892.4,1.453724
4612,893.067,1.453037

File: FPL_Wood_TGA_N2_10K_R2.csv
Time (s),Temperature (K),Mass (mg)
0,303.15,5.184297
16,313.817,5.185447
32,324.483,5.185289
48,335.15,5.181671
64,345.817,5.174377
80,356.483,5.160892
96,367.15,5.1379
112,377.817,5.1157
128,378.15,4.886738
144,378.15,4.886885
160,378.15,4.886786
176,378.15,4.886699
192,378.15,4.8866
208,378.15,4.886487
224,378.15,4.8866
240,378.15,4.886499
256,378.15,4.886499
272,378.15,4.886507
288,378.15,4.886499
304,373.358,4.886552
320,366.692,4.886458
336,360.025,4.886097
352,353.358,4.886137
368,346.692,4.88606
384,340.025,4.886024
400,333.358,4.885992
416,326.692,4.885906
432,320.025,4.885882
448,313.358,4.885799
464,306.692,4.885935
480,303.15,4.887599
496,303.15,4.887899
512,303.15,4.8879
528,303.15,4.8879
544,303.15,4.888065
560,303.15,4.888035
576,303.15,4.888178
592,303.15,4.888009
608,303.15,4.887926
624,303.15,4.887626
640,303.15,4.887799
656,303.15,4.887799
672,303.15,4.888
688,303.15,4.8881
704,303.15,4.888398
720,303.15,4.888224
736,303.15,4.8883
752,303.15,4.8883
768,303.15,4.888499
784,303.15,4.888133
800,303.15,4.8883
816,303.15,4.8883
832,303.15,4.888433
848,303.15,4.8883
864,303.15,4.8884
880,303.15,4.888409
896,303.15,4.888499
912,303.15,4.888399
928,303.15,4.888599
944,303.15,4.8887
960,303.15,4.888911
976,303.15,4.8891
992,303.15,4.889136
1008,303.15,4.889299
1024,303.15,4.889199
1040,303.15,4.889299
1056,303.15,4.889673
1072,303.15,4.889497
1088,305.733,4.890516
1104,308.4,4.890581
1120,311.067,4.890738
1136,313.733,4.890514
1152,316.4,4.890998
1168,319.067,4.890898
1184,321.733,4.890713
1200,324.4,4.890901
1216,327.067,4.891051
1232,329.733,4.891181
1248,332.4,4.891023
1264,335.067,4.891207
1280,337.733,4.891289
1296,340.4,4.89124
1312,343.067,4.891194
1328,345.733,4.891357
1344,348.4,4.891219
1360,351.067,4.891302
1376,353.733,4.89126
1392,356.4,4.891481
1408,359.067,4.891427
1424,361.733,4.891492
1440,364.4,4.891224
1456,367.067,4.89115
1472,369.733,4.891076
1488,372.4,4.890937
1504,375.067,4.890831
1520,377.733,4.890639
1536,380.4,4.890533
1552,383.067,4.89048
1568,385.733,4.89009
1584,388.4,4.890005
1600,391.067,4.889936
1616,393.733,4.889794
1632,396.4,4.889547
1648,399.067,4.889551
1664,401.733,4.88958
1680,404.4,4.889092
1696,407.067,4.889107
1712,409.733,4.88908
1728,412.4,4.888815
1744,415.067,4.888472
1760,417.733,4.888187
1776,420.4,4.888031
1792,423.067,4.887701
1808,425.733,4.887434
1824,428.4,4.887178
1840,431.067,4.886872
1856,433.733,4.886624
1872,436.4,4.886155
1888,439.067,4.885647
1904,441.733,4.885249
1920,444.4,4.884575
1936,447.067,4.884092
1952,449.733,4.883638
1968,452.4,4.883004
1984,455.067,4.881993
2000,457.733,4.881203
2016,460.4,4.880038
2032,463.067,4.878911
2048,465.733,4.877536
2064,468.4,4.875846
2080,471.067,4.873965
2096,473.733,4.87172
2112,476.4,4.869408
2128,479.067,4.866338
2144,481.733,4.863405
2160,484.4,4.860132
2176,487.067,4.856595
2192,489.733,4.852503
2208,492.4,4.848216
2224,495.067,4.843229
2240,497.733,4.838071
2256,500.4,4.832312
2272,503.067,4.826172
2288,505.733,4.819633
2304,508.4,4.811996
2320,511.067,4.80386
2336,513.733,4.795093
2352,516.4,4.785355
2368,519.067,4.77482
2384,521.733,4.763592
2400,524.4,4.751829
2416,527.067,4.739428
2432,529.733,4.726487
2448,532.4,4.712822
2464,535.067,4.697876
2480,537.733,4.682339
2496,540.4,4.665623
2512,543.067,4.647892
2528,545.733,4.629031
2544,548.4,4.608524
2560,551.067,4.587152
2576,553.733,4.564589
2592,556.4,4.539955
2608,559.067,4.514013
2624,561.733,4.486395
2640,564.4,4.45691
2656,567.067,4.425546
2672,569.733,4.392442
2688,572.4,4.356912
2704,575.067,4.319297
2720,577.733,4.278879
2736,580.4,4.236156
2752,583.067,4.189854
2768,585.733,4.140847
2784,588.4,4.088383
2800,591.067,4.032579
2816,593.733,3.972755
2832,596.4,3.910295
2848,599.067,3.844058
2864,601.733,3.774539
2880,604.4,3.702349
2896,607.067,3.627369
2912,609.733,3.549638
2928,612.4,3.469404
2944,615.067,3.386239
2960,617.733,3.299803
2976,620.4,3.209403
2992,623.067,3.114224
3008,625.733,3.012344
3024,628.4,2.903726
3040,631.067,2.786098
3056,633.733,2.659762
3072,636.4,2.525305
3088,639.067,2.38637
3104,641.733,2.249362
3120,644.4,2.122765
3136,647.067,2.01445
3152,649.733,1.929402
3168,652.4,1.867094
3184,655.067,1.823424
3200,657.733,1.79274
3216,660.4,1.769787
3232,663.067,1.751132
3248,665.733,1.734882
3264,668.4,1.719472
3280,671.067,1.705036
3296,673.733,1.690803
3312,676.4,1.676812
3328,679.067,1.663505
3344,681.733,1.650054
3360,684.4,1.636895
3376,687.067,1.623515
3392,689.733,1.610501
3408,692.4,1.597132
3424,695.067,1.584399
3440,697.733,1.571764
3456,700.4,1.559206
3472,703.067,1.546628
3488,705.733,1.534576
3504,708.4,1.522162
3520,711.067,1.510423
3536,713.733,1.498957
3552,716.4,1.48764
3568,719.067,1.476651
3584,721.733,1.465997
3600,724.4,1.455668
3616,727.067,1.445969
3632,729.733,1.436427
3648,732.4,1.427445
3664,735.067,1.418596
3680,737.733,1.410404
3696,740.4,1.402311
3712,743.067,1.39486
3728,745.733,1.387434
3744,748.4,1.380467
3760,751.067,1.373558
3776,753.733,1.366937
3792,756.4,1.360894
3808,759.067,1.354569
3824,761.733,1.348572
3840,764.4,1.342964
3856,767.067,1.33726
3872,769.733,1.331732
3888,772.4,1.326515
3904,775.067,1.32105
3920,777.733,1.315945
3936,780.4,1.311108
3952,783.067,1.30581
3968,785.733,1.301007
3984,788.4,1.296161
4000,791.067,1.29149
4016,793.733,1.286793
4032,796.4,1.282472
4048,799.067,1.277369
4064,801.733,1.273092
4080,804.4,1.269072
4096,807.067,1.265077
4112,809.733,1.260936
4128,812.4,1.256708
4144,815.067,1.252772
4160,817.733,1.248801
4176,820.4,1.244819
4192,823.067,1.241098
4208,825.733,1.237148
4224,828.4,1.233574
4240,831.067,1.229716
4256,833.733,1.226107
4272,836.4,1.222723
4288,839.067,1.219096
4304,841.733,1.215706
4320,844.4,1.212199
4336,847.067,1.209058
4352,849.733,1.20554
4368,852.4,1.202383
4384,855.067,1.199174
4400,857.733,1.195685
4416,860.4,1.192253
4432,863.067,1.189741
4448,865.733,1.186597
4464,868.4,1.18341
4480,871.067,1.180544
4496,873.733,1.177564
4512,876.4,1.174952
4528,879.067,1.171956
4544,881.733,1.169162
4560,884.4,1.166658
4576,887.067,1.164317
4592,889.733,1.162317
4608,892.4,1.159761
4612,893.067,1.159276