Folder: matl-db/Wood/Calibration_Data/FPL (part 2)

File: FPL_Wood_Cone_50kW_hor_R4.csv
Time (s),Mass (g),HRR (kW/m2),TC Top (K),TC back 1 (K),TC back 2 (K)
0,99.37,7.08598,32.274,20.5,20.056
8,83.8878,2.99585,239.25,20.572,20.039
16,77.7205,137.214,387.493,20.681,20.03
24,74.3298,210.786,486.115,21.096,19.946
32,69.4606,161.197,539.155,22.484,20.049
40,67.0538,124.234,584.926,25.492,19.891
48,66.2771,108.997,611.708,29.746,19.79
56,65.6709,105.384,641.483,35.554,19.864
64,65.0532,102.67,663.712,40.993,19.984
72,64.3759,93.5597,677.271,47.556,20.142
80,64.0286,92.9437,681.994,53.208,20.254
88,63.5761,85.704,688.563,59.143,20.472
96,63.1752,86.6493,702.913,65.532,20.682
104,62.8973,80.9795,696.215,71.84,20.869
112,62.5309,79.8495,706.355,77.886,21.222
120,62.1308,80.0319,707.321,83.066,21.597
128,61.7718,80.7923,717.465,89.263,22.133
136,61.3283,78.0623,708.285,94.193,22.651
144,60.8891,78.5326,713.348,99.521,23.285
152,60.4067,79.7233,718.254,104.923,24.022
160,59.8742,75.6871,718.075,110.291,24.855
168,59.5762,78.3011,727.42,115.182,25.856
176,59.0721,78.5237,736.583,120.115,26.884
184,59.1297,78.247,732.728,125.14,28.055
192,58.6706,75.6576,744.618,129.828,29.277
200,58.2319,78.8919,743.509,135.218,30.737
208,57.84685,74.024,735.115,140.029,32.093
216,57.4382,77.525,758.574,145.568,33.75
224,57.027,74.661,753.366,150.608,35.252
232,56.5029,76.4612,750.283,156.316,36.938
240,56.1004,75.0079,751.621,162.385,38.765
248,55.6609,76.5148,764.473,168.708,40.582
256,55.3162,75.9902,764.621,175.393,42.463
264,54.8752,75.1419,757.435,181.594,44.353
272,54.384,72.0455,769.4,188.74,46.62
280,53.9979,73.1067,766.831,194.675,48.597
288,53.6642,76.1533,763.161,201.634,51.037
296,53.695,78.0517,763.562,207.898,53.172
304,53.2902,74.0667,766.683,214.417,55.536
312,52.8289,77.8802,770.757,220.918,58.086
320,52.2865,75.6046,766.082,227.261,60.618
328,51.8946,76.6136,775.717,233.817,63.258
336,51.5388,77.4771,771.366,239.849,65.657
344,51.1394,73.4304,774.563,246.845,68.556
352,51.1261,75.3321,775.722,252.675,70.931
360,50.56566,74.2158,770.515,259.428,73.818
368,50.0241,74.6945,785.69,264.869,76.233
376,49.5849,76.9045,796.952,270.836,78.824
384,49.186,77.0764,784.228,276.783,81.366
392,48.6328,76.2497,790.165,282.469,83.83
400,48.113,76.484,785.981,288.107,86.227
408,47.8797,77.9346,786.59,293.393,88.37
416,47.6864,78.7753,784.077,299.5,90.824
424,47.0176,78.6045,783.032,304.831,92.749
432,46.3512,78.8459,775.405,310.692,95.103
440,45.9458,79.0636,783.033,315.766,96.877
448,45.405,80.4006,800.386,321.03,98.737
456,44.9519,80.4862,799.082,326.414,100.515
464,44.5473,77.5577,790.181,332.066,102.145
472,44.0476,78.2842,795.361,337.213,103.601
480,43.6207,78.3261,798.148,342.449,104.755
488,43.2139,75.2019,799.313,348.74,106.007
496,42.8384,76.6156,806.983,354.413,106.941
504,42.4004,79.5473,807.973,361.497,108.092
512,42.6421,77.1303,808.123,367.245,109.144
520,42.0435,79.9957,801.22,374.681,110.522
528,41.679,81.8916,788.039,381.369,111.839
536,41.10094,82.7333,821.469,388.85,113.387
544,40.585,81.6247,789.879,397.082,115.037
552,40.0268,80.5856,784.378,405.461,116.776
560,39.5932,79.0989,801.175,413.172,118.692
568,39.195,80.7642,812.312,419.797,120.474
576,38.721,82.4318,797.092,427.132,122.797
584,38.2503,79.8661,799.029,433.204,124.865
592,37.8762,80.5334,795.215,439.985,127.392
600,37.2534,82.44,799.787,445.287,129.62
608,36.9221,80.2096,817.532,451.107,132.2
616,36.4627,80.2762,806.787,457.273,134.805
624,35.9519,85.683,814.961,463.613,137.487
632,35.7386,84.1501,831.752,469.867,140.45
640,35.25447,84.5696,815.812,475.645,143.182
648,34.9787,82.3482,832.219,482.225,146.226
656,34.4088,84.3235,811.623,490.902,148.979
664,33.8734,85.3696,811.087,499.488,152.215
672,33.3741,84.3389,814.33,506.094,155.078
680,32.9189,85.0586,798.804,513.342,158.203
688,32.5346,83.0935,808.77,520.303,161.296
696,32.4802,88.0104,806.203,527.441,164.485
704,32.3277,86.8293,809.347,533.822,167.574
712,31.8212,86.1004,820.894,539.151,170.555
720,31.3677,85.8059,810.956,545.637,174.022
728,30.7805,85.9592,826.188,551.125,177.058
736,30.2686,86.4328,834.199,556.767,180.626
744,29.7555,87.7352,829.141,561.747,183.696
752,29.2579,87.5416,818.977,566.985,187.249
760,28.8309,88.3663,815.674,571.22,190.288
768,28.5045,87.2845,812.457,575.727,193.74
776,27.831,92.5638,820.077,580.101,197.08
784,27.4254,90.1955,819.847,584.485,200.211
792,27.1268,86.9227,813.855,589.915,203.821
800,26.7393,90.3768,825.881,594.192,206.982
808,26.4266,87.35066,816.221,598.862,210.675
816,25.8763,91.5073,817.323,602.518,213.905
824,25.552,90.1394,829.426,605.648,217.544
832,25.0521,92.6982,839.768,608.331,220.717
840,24.7295,91.6141,848.624,611.948,224.452
848,24.4209,90.7824,850.7,615.523,228.101
856,23.7001,92.4783,829.299,618.92,231.839
864,23.0668,94.798,832.47,621.702,235.474
872,22.5425,90.8609,839.403,624.832,238.982
880,22.0752,95.5603,829.97,628.298,242.979
888,21.6485,96.0343,828.53,630.652,246.887
896,21.2774,94.5848,832.206,633.207,251.068
904,20.7686,94.5439,822.542,635.446,254.252
912,20.2055,94.9251,837.203,638.071,257.941
920,19.8013,95.6263,830.169,640.486,261.555
928,19.3553,95.5267,810.375,643.422,265.363
936,18.8659,95.6713,812.12,645.697,269.13
944,18.3895,96.824,831.741,647.99,272.688
952,17.8881,100.901,818.463,650.351,276.933
960,17.4901,97.5199,818.157,652.494,280.683
968,16.9697,96.8544,807.588,655.089,285.118
976,16.41551,97.0663,813.014,657.008,288.915
984,15.908,99.0514,806.004,659.306,293.515
992,15.4619,100.879,810.14,660.811,297.645
1000,15.0659,102.423,793.778,662.875,302.296
1008,14.58379,105.164,804.903,665.289,306.826
1016,14.1417,102.09,796.01,666.895,311.616
1024,13.7091,102.061,797.268,668.764,316.266
1032,13.2624,102.084,802.147,670.48,320.776
1040,12.8248,106.623,796.737,673.544,325.997
1048,12.4085,108.398,792.257,675.39,330.634
1056,11.9104,106.532,796.308,677.859,336.044
1064,11.36,111.246,803.955,679.28,340.731
1072,10.7791,107.794,798.026,680.836,345.744
1080,10.2641,108.504,793.245,682.351,350.581
1088,9.739298,114.461,795.149,683.696,355.994
1096,9.176774,110.575,779.534,685.324,361.437
1104,8.655037,112.657,783.066,687.359,366.706
1112,8.085309,110.954,770.138,688.46,372.841
1120,7.604536,110.525,779.412,689.568,378.183
1128,7.125799,112.437,769.731,691.487,384.278
1136,6.524847,118,778.243,693.429,389.668
1144,6.029831,113.881,760.887,695.472,396.165
1152,5.539057,113.823,772.912,696.936,401.781
1160,5.017049,113.949,757.687,698.082,408.542
1168,4.410474,116.389,779.227,698.815,415.227
1176,3.706938,115.355,769.233,700.316,423.271
1184,2.96701,114.81,762.992,701.692,431.744
1192,2.355168,114.291,791.212,702.752,439.997
1200,1.813731,116.12,767.664,703.308,450.175
1208,1.034081,117.462,775.961,705.363,458.835
1216,0.651849,111.514,755.363,706.516,468.738
1224,0.25538,111.497,779.28,707.24,477.07
1232,-0.073479,108.576,757.119,707.905,485.5
1240,-0.332069,107.172,760.22,708.306,493.592
1248,-0.309134,107.08,761.898,709.09,501.07
1256,-0.264621,105.811,756.826,708.906,506.998
1264,-0.500017,103.444,761.796,710.129,513.125
1272,-0.953313,101.67,769.586,710.751,519.985
1280,-1.255635,94.138,769.658,711.972,525.559
1288,-1.784748,91.9591,777.49,712.72,531.968
1296,-2.477558,90.5894,753.551,713.536,536.94
1304,-2.936256,84.9798,774.744,714.526,542.122
1312,-3.432201,80.8553,782.071,715.739,546.642
1320,-4.0915,82.7818,793.237,717.912,551.741
1328,-4.592282,76.2611,803.472,720.105,556.77
1336,-5.060621,70.3275,805.415,722.11,561.957
1344,-4.687756,65.2242,812.637,723.886,567.545
1352,-5.370969,64.8239,814.457,725.929,572.004
1360,-5.910845,61.7221,817.132,727.962,577.406
1368,-6.352033,55.9844,833.261,728.842,583.069
1376,-6.859389,53.1184,842.208,729.3,589.101
1384,-6.07386,53.5768,823.143,731.032,594.406
1392,-6.173753,49.4581,842.376,732.923,600.214
1400,-6.823057,50.4748,836.861,735.835,605.108
1408,-6.977186,47.2931,821.111,737.62,609.537
1416,-7.316093,44.918,785.464,739.252,614.3
1424,-7.570654,45.6039,763.758,740.965,617.885
1432,-7.783136,43.7981,760.144,742.494,621.618
1440,-7.379411,45.7869,725.027,742.474,624.539
1448,-7.063002,46.5745,725.131,745.202,627.66
1456,-7.261781,40.2139,725.964,745.723,630.3
1464,-7.546057,40.9035,730.244,747.263,632.885
1472,-7.791676,41.9291,719.353,748.105,635.142
1480,-7.745049,39.6015,727.094,749.027,637.095
1488,-7.866958,37.2896,722.187,749.163,639.238
1496,-8.185034,37.4481,722.489,750.996,640.958
1504,-8.470581,38.175,713.157,753.023,642.852
1512,-8.773146,36.0815,690.521,754.12,644.407
1520,-9.080922,38.1414,701.549,755.136,646.006
1528,-9.317315,37.6907,691.924,755.793,647.509
1536,-9.024232,37.7429,675.747,758.913,649.042
1544,-8.730409,37.3572,673.892,757.108,650.354
1552,-9.141393,39.0113,667.045,757.386,651.452
1560,-9.511,35.3567,664.863,761.42,652.56
1568,-8.716845,35.1853,673.082,761.808,653.537
1576,-9.163395,34.1646,631.046,760.249,654.574
1584,-9.48195,32.8403,638.139,761.203,655.496
1592,-9.704773,36.4812,635.783,763.4,656.576
1600,-9.882365,33.6209,621.573,765.231,657.423
1608,-10.12753,32.4737,613.145,763.565,658.356
1616,-10.2566,32.469,607.299,763.291,659.16
1624,-10.4696,31.9332,608.479,764.044,659.918
1632,-10.5169,31.0108,609.878,763.54,660.813
1640,-9.933512,36.2424,580.306,766.214,661.551
1648,-10.1144,32.7064,609.227,766.991,662.525
1656,-9.925155,34.352,582.181,767.816,663.396
1664,-10.0609,30.255,580.594,766.216,664.373
1672,-10.3408,30.5565,580.183,769.287,665.149
1673,-10.3169,30.5265,580.737,769.494,665.285

File: FPL_Wood_Cone_50kW_hor_R5.csv
Time (s),Mass (g),HRR (kW/m2),TC Top (K),TC back 1 (K),TC back 2 (K)
0,95.96,4.18356,307.092,293.294,293.752
9,95.03799,2.84521,468.483,293.399,293.796
18,94.7694,179.094,628.508,293.65,293.834
27,93.4915,181.007,842.89,294.254,293.82
36,92.7,124.753,850.66,296.048,294.138
45,92.0998,110.184,910.51,299.969,294.254
54,91.4785,102.049,984.104,305.978,294.492
63,90.9106,98.918,986.821,312.771,294.596
72,90.2805,92.0002,972.933,320.415,294.881
81,89.7327,89.5221,972.279,328.932,295.094
90,89.1733,84.9519,973.057,337.502,295.426
99,88.7342,85.3022,980.856,345.53,296
108,88.1852,86.7681,1005.001,353.745,296.563
117,87.6722,82.6217,1005.742,362.596,297.248
126,87.203,87.9419,1018.62,371.888,298.241
135,86.7117,84.4234,1018.137,380.814,299.231
144,86.13752,85.6187,997.592,388.431,300.408
153,85.7311,83.6374,1009.141,395.92,301.758
162,85.2892,83.1606,1033.604,404.22,303.335
171,84.7241,82.4931,1029.339,412.487,304.825
180,84.2874,78.6346,1029.033,421.049,306.546
189,83.79739,75.2066,1042.783,430.578,308.431
198,83.3515,77.8303,1022.911,441.165,310.49
207,82.8767,74.8329,1045.833,449.539,312.451
216,82.4418,74.1348,1038.4,458.033,314.508
225,81.983,73.0855,1035.398,468.255,316.811
234,81.5448,73.0419,1044.141,478.861,319.202
243,81.0337,77.1018,1046.417,488.991,321.501
252,80.65876,74.008,1043.541,499.111,323.864
261,80.1732,75.4392,1058.514,510.508,326.461
270,79.7762,72.2067,1046.634,520.512,329.12
279,79.3299,70.26157,1045.023,529.816,331.767
288,78.8895,70.0921,1061.088,538.863,334.429
297,78.4913,68.3684,1067.691,548.041,337.301
306,78.054,69.7834,1056.793,557.088,340.242
315,77.5956,68.7417,1059.349,565.34,343.026
324,77.2096,68.5873,1050.043,573.675,345.95
333,76.7504,71.2477,1057.689,582.973,349.149
342,76.0308,70.8612,1047.281,592.612,352.314
351,75.653,68.4215,1058.613,601.447,355.381
360,75.2269,68.7706,1056.901,609.942,358.329
369,74.73,68.1035,1045.538,619.316,361.568
378,74.2747,67.7211,1055.263,627.03,364.867
387,73.834,65.7179,1056.09,634.934,368.221
396,73.3966,68.4218,1066.045,642.166,371.447
405,72.9364,69.2111,1062.447,649.663,374.685
414,72.5442,65.0776,1063.059,656.769,377.59
423,72.0583,65.9969,1061.745,662.291,379.756
432,71.5911,67.641,1066.934,667.137,381.378
441,71.1939,66.7761,1066.746,672.324,382.887
450,70.721,67.5892,1065.702,678.506,384.372
459,70.2774,66.9457,1067.688,684.133,385.932
468,69.8347,69.3042,1070.169,690.102,387.554
477,69.4584,71.5143,1070.176,696.202,389.618
486,68.994,67.8993,1066.096,701.28,391.937
495,68.5025,68.6374,1074.277,706.61,394.379
504,68.06029,67.985,1068.671,712.077,397.043
513,67.62186,68.6837,1060.546,717.512,400.263
522,67.1877,71.3805,1074.296,723.202,403.667
531,66.7179,71.3262,1078.837,728.862,407.047
540,66.2809,69.7929,1078.219,734.526,410.67
549,65.7645,69.5273,1085.597,740.95,414.858
558,65.366,70.0355,1075.331,747.349,419.072
567,64.8644,74.1408,1077.66,753.836,423.181
576,64.46966,73.9757,1070.986,760.137,427.402
585,63.9364,72.648,1096.199,766.924,431.956
594,63.5527,73.9611,1062.253,773.82,436.414
603,63.1164,74.4639,1085.212,781.027,440.611
612,62.6165,74.668,1079.333,788.128,444.862
621,62.1559,73.9785,1082.965,795.286,449.486
630,61.72926,71.9193,1086.553,801.843,453.967
639,61.2877,73.0582,1077.45,808.015,458.195
648,60.84,74.0528,1080.946,813.42,462.391
657,60.4201,78.0082,1078.689,819.378,467.069
666,59.9284,77.7873,1063.316,823.574,471.487
675,59.51143,75.2431,1070.042,827.544,475.661
684,59.0118,76.6257,1056.23,832.105,479.883
693,58.5751,76.8963,1093.588,836.47,484.381
702,58.1242,77.0975,1069.135,840.492,488.665
711,57.66396,75.4302,1079.014,844.641,492.777
720,57.2574,73.5848,1087.328,848.122,496.89
729,56.7991,73.477,1076.19,851.733,501.381
738,56.3254,75.1669,1048.504,854.982,505.663
747,55.8812,74.0822,1067.705,859.007,509.738
756,55.4597,72.881,1085.109,862.393,513.756
765,55.0498,72.822,1049.558,866.14,518.187
774,54.6194,79.5365,1037.698,868.928,522.334
783,54.2011,75.3673,1066.479,871.765,526.372
792,53.7715,78.7509,1051.286,874.551,530.32
801,53.3255,74.0451,1046.397,876.557,534.345
810,52.8934,77.8589,1047.35,878.523,538.706
819,52.4618,80.0506,1048.33,879.746,542.586
828,52.0266,77.0743,1022.038,881.56,546.551
837,51.5366,77.6587,1055.768,884.55,550.885
846,51.1434,77.0426,1039.839,887.622,555.16
855,50.7583,77.6426,1061.278,890.386,559.187
864,50.3105,79.9299,1053.325,892.984,563.254
873,49.8907,77.4136,1050.873,895.963,567.779
882,49.4307,80.8486,1049.229,898.152,572.119
891,49.0157,76.616,1085.437,899.171,576.251
900,48.556,77.7053,1059.91,900.245,580.371
909,48.0841,78.3256,1022.424,902.727,584.357
918,47.6653,79.4837,1064.274,904.436,588.486
927,47.1345,80.4145,1055.375,905.837,592.5
936,46.7291,85.8333,1035.87,908.169,596.5
945,46.3431,85.8626,1032.068,910.601,600.919
954,45.8882,85.6036,1030.548,912.341,605.167
963,45.4127,87.4451,1060.789,914.316,609.154
972,44.9627,84.0016,1061.456,916.128,613.179
981,44.4531,85.2135,1033.334,919.452,617.817
990,43.9925,88.2585,1050.887,922.527,622.395
999,43.5244,92.307,1044.647,924.481,626.845
1008,42.9967,93.0154,1086.196,926.745,631.646
1017,42.5325,92.0867,1056.262,926.584,637.569
1026,42.0332,93.0429,1047.469,925.915,643.241
1035,41.4316,97.9952,1098.791,926.474,648.557
1044,40.9253,95.5232,1109.388,926.606,653.969
1053,40.4313,101.286,1051.554,926.564,659.943
1062,39.8564,100.914,1129.164,925.968,665.923
1071,39.3333,97.0001,1126.772,926.779,672.446
1080,38.7549,96.5808,1126.227,927.278,678.145
1089,38.20401,104.245,1118.74,928.97,685.02
1098,37.6713,99.7183,1120.474,930.41,691.992
1107,37.0553,106.894,1082.781,930.831,698.668
1116,36.5022,107.842,1118.168,931.277,705.463
1125,35.9332,104.718,1155.837,931.998,713.702
1134,35.3486,109.504,1099.833,932.34,720.352
1143,34.7639,107.549,1083.22,933.249,726.816
1152,34.1742,104.696,1128.366,935.83,732.997
1161,33.5549,107.936,1151.969,936.394,739.874
1170,33.0011,109.918,1172.826,936.16,746.093
1179,32.37698,105.409,1137.165,937.564,752.455
1188,31.8302,107.86,1165.46,940.256,758.372
1197,31.207,109.472,1173.937,942.736,765.808
1206,30.63965,107.6,1189.091,944.597,772.157
1215,30.0078,107.144,1157.174,946.127,778.743
1224,29.4532,107.484,1159.514,949.249,785.463
1233,28.8569,107.434,1096.701,953.577,794.38
1242,28.328,108.168,1181.996,956.03,801.901
1251,27.7546,106.328,1140.665,956.676,809.017
1260,27.2266,103.769,1164.731,957.884,815.639
1269,26.6292,109.525,1166.255,958.536,822.554
1278,26.088,103.064,1082.481,960.952,828.131
1287,25.60994,100.688,1101.583,964.349,833.458
1296,25.0428,97.4125,1046.968,967.068,838.677
1305,24.5706,89.3459,1092.783,969.461,843.282
1314,24.1337,90.572,1049.016,971.186,847.401
1323,23.7341,82.7988,1073.998,972.459,851.454
1332,23.32685,80.0126,1031.577,974.587,855.706
1341,22.949,76.883,1013.226,976.735,859.373
1350,22.5315,73.6394,952.911,979.712,862.859
1359,22.2302,72.5597,1023.839,982.542,866.265
1368,21.9015,66.2791,964.152,983.307,869.936
1377,21.6113,67.2292,961.187,985.187,873.306
1386,21.2409,64.353,973.38,986.676,876.465
1395,21.0216,59.6109,932.818,988.67,879.679
1404,20.7681,58.9365,904.435,990.828,883.07
1413,20.4796,54.4385,914.597,992.326,885.922
1422,20.2516,55.5577,863.008,993.965,888.506
1431,20.0442,48.3128,862.603,996.192,891.03
1440,19.8618,49.5759,884.379,999.05,893.51
1449,19.6589,52.0132,858.164,1000.411,895.698
1458,19.52137,47.7594,860.659,1002.093,897.625
1467,19.2965,46.0304,863.555,1003.357,899.416
1476,19.1585,45.2555,846.291,1005.14,901.357
1485,18.9493,45.6665,860.399,1006.566,903.023
1494,18.787,45.5217,854.524,1007.906,904.543
1503,18.6603,43.4055,864.637,1010.443,905.903
1512,18.49648,41.9027,849.649,1011.633,907.409
1521,18.32507,38.9546,852.464,1012.947,908.78
1530,18.2232,41.7924,852.409,1014.237,910.067
1539,18.0558,39.8735,864.534,1015.038,911.345
1548,17.9403,37.579,872.513,1016.434,912.756
1557,17.82972,37.3364,844.617,1018.197,913.965
1566,17.6741,34.6277,865.493,1019.146,915.074
1575,17.5758,35.5328,869.183,1019.248,916.31
1584,17.3812,38.8121,846.325,1020.454,917.617
1593,17.3013,35.6615,854.134,1020.751,918.786
1602,17.1991,38.2928,880.21,1020.73,919.995
1611,17.0919,36.2231,871.695,1020.647,921.158
1620,16.9784,34.2725,850.512,1024.074,922.32
1629,16.9187,33.7351,849.396,1025.161,923.278
1638,16.7694,32.3976,836.338,1026.761,924.369
1647,16.7008,30.3989,844.345,1027.21,925.399
1656,16.5499,32.7847,843.644,1028.9,926.633
1665,16.5167,33.8556,849.708,1030.299,927.617
1674,16.338,33.7393,844.95,1030.936,928.656
1683,16.2854,35.1024,850.205,1031.535,929.616
1692,16.1581,29.3195,842.67,1032.302,930.627
1701,16.0744,29.5593,847.349,1032.212,931.595
1710,15.9607,32.7272,832.684,1032.606,932.546
1719,15.92609,31.9554,831.025,1036.727,933.512
1728,15.8334,31.8703,837.559,1035.474,934.625
1737,15.7066,29.5845,844.875,1035.004,935.526
1746,15.6196,27.5241,826.196,1040.471,936.387
1755,15.5818,28.5987,824.841,1039.952,937.468
1764,15.4086,29.9313,777.386,1046.404,938.657
1773,15.3503,28.3928,768.435,1048.82,939.817
1782,15.258,30.8006,780.799,1048.99,940.959
1791,15.17,30.3597,771.064,1052.457,942.233
1800,15.067,30.0408,771.297,1051.231,943.27
1809,14.99833,32.2697,807.477,1048.76,944.195
1818,14.9572,29.5876,776.289,1055.576,945.259
1825,14.8072,30.1666,766.021,1063.24,946.219