Folder: matl-db/Wood/Calibration_Data/FPL (part 4)

File: FPL_Wood_TGA_N2_10K_R3.csv
Time (s),Temperature (K),Mass (mg)
0,303.15,5.43515
16,313.817,5.436358
32,324.483,5.436213
48,335.15,5.432706
64,345.817,5.425452
80,356.483,5.412321
96,367.15,5.389601
112,377.817,5.367642
128,378.15,5.1237
144,378.15,5.123785
160,378.15,5.123787
176,378.15,5.123799
192,378.15,5.1236
208,378.15,5.1237
224,378.15,5.123605
240,378.15,5.1236
256,378.15,5.123485
272,378.15,5.123807
288,378.15,5.1238
304,373.358,5.12404
320,366.692,5.123918
336,360.025,5.123528
352,353.358,5.123407
368,346.692,5.123343
384,340.025,5.123536
400,333.358,5.123303
416,326.692,5.123157
432,320.025,5.123077
448,313.358,5.123015
464,306.692,5.123044
480,303.15,5.1247
496,303.15,5.1249
512,303.15,5.125
528,303.15,5.125
544,303.15,5.125162
560,303.15,5.125184
576,303.15,5.125278
592,303.15,5.125309
608,303.15,5.125227
624,303.15,5.125
640,303.15,5.1251
656,303.15,5.1252
672,303.15,5.125576
688,303.15,5.125502
704,303.15,5.125601
720,303.15,5.125524
736,303.15,5.1258
752,303.15,5.1258
768,303.15,5.125999
784,303.15,5.125732
800,303.15,5.1259
816,303.15,5.1259
832,303.15,5.126132
848,303.15,5.125998
864,303.15,5.1261
880,303.15,5.1262
896,303.15,5.1261
912,303.15,5.1261
928,303.15,5.1262
944,303.15,5.1262
960,303.15,5.126312
976,303.15,5.126434
992,303.15,5.126438
1008,303.15,5.1267
1024,303.15,5.1266
1040,303.15,5.126599
1056,303.15,5.1268
1072,303.15,5.12676
1088,305.733,5.127707
1104,308.4,5.127763
1120,311.067,5.127941
1136,313.733,5.127767
1152,316.4,5.128158
1168,319.067,5.128211
1184,321.733,5.128392
1200,324.4,5.128439
1216,327.067,5.128413
1232,329.733,5.12856
1248,332.4,5.128547
1264,335.067,5.128572
1280,337.733,5.128637
1296,340.4,5.128584
1312,343.067,5.12852
1328,345.733,5.128765
1344,348.4,5.128626
1360,351.067,5.128571
1376,353.733,5.128742
1392,356.4,5.128806
1408,359.067,5.12892
1424,361.733,5.128974
1440,364.4,5.128665
1456,367.067,5.128759
1472,369.733,5.128806
1488,372.4,5.128679
1504,375.067,5.128525
1520,377.733,5.128336
1536,380.4,5.128174
1552,383.067,5.128087
1568,385.733,5.127837
1584,388.4,5.127383
1600,391.067,5.127478
1616,393.733,5.127416
1632,396.4,5.127295
1648,399.067,5.127191
1664,401.733,5.126994
1680,404.4,5.126852
1696,407.067,5.126846
1712,409.733,5.126758
1728,412.4,5.126476
1744,415.067,5.126499
1760,417.733,5.126065
1776,420.4,5.125826
1792,423.067,5.125563
1808,425.733,5.12521
1824,428.4,5.125073
1840,431.067,5.124561
1856,433.733,5.124239
1872,436.4,5.123824
1888,439.067,5.123363
1904,441.733,5.12301
1920,444.4,5.122456
1936,447.067,5.121803
1952,449.733,5.12101
1968,452.4,5.120496
1984,455.067,5.11958
2000,457.733,5.118795
2016,460.4,5.117542
2032,463.067,5.116261
2048,465.733,5.114931
2064,468.4,5.113204
2080,471.067,5.111281
2096,473.733,5.10912
2112,476.4,5.106525
2128,479.067,5.103833
2144,481.733,5.100553
2160,484.4,5.097356
2176,487.067,5.093828
2192,489.733,5.089502
2208,492.4,5.084895
2224,495.067,5.080129
2240,497.733,5.074557
2256,500.4,5.068556
2272,503.067,5.062176
2288,505.733,5.055463
2304,508.4,5.047784
2320,511.067,5.039325
2336,513.733,5.030128
2352,516.4,5.020329
2368,519.067,5.00944
2384,521.733,4.997814
2400,524.4,4.985591
2416,527.067,4.972742
2432,529.733,4.958946
2448,532.4,4.945093
2464,535.067,4.929719
2480,537.733,4.913415
2496,540.4,4.896143
2512,543.067,4.877709
2528,545.733,4.857981
2544,548.4,4.837107
2560,551.067,4.814585
2576,553.733,4.791147
2592,556.4,4.76555
2608,559.067,4.738501
2624,561.733,4.70976
2640,564.4,4.679194
2656,567.067,4.64658
2672,569.733,4.612253
2688,572.4,4.575055
2704,575.067,4.536095
2720,577.733,4.494
2736,580.4,4.44939
2752,583.067,4.401312
2768,585.733,4.350003
2784,588.4,4.295258
2800,591.067,4.236901
2816,593.733,4.174863
2832,596.4,4.109356
2848,599.067,4.040306
2864,601.733,3.967858
2880,604.4,3.89236
2896,607.067,3.813973
2912,609.733,3.732943
2928,612.4,3.648966
2944,615.067,3.562129
2960,617.733,3.47177
2976,620.4,3.377344
2992,623.067,3.277658
3008,625.733,3.171497
3024,628.4,3.057154
3040,631.067,2.933842
3056,633.733,2.80118
3072,636.4,2.66019
3088,639.067,2.514213
3104,641.733,2.370263
3120,644.4,2.237465
3136,647.067,2.124327
3152,649.733,2.035778
3168,652.4,1.971122
3184,655.067,1.925599
3200,657.733,1.893734
3216,660.4,1.869814
3232,663.067,1.850287
3248,665.733,1.833121
3264,668.4,1.817111
3280,671.067,1.801839
3296,673.733,1.787076
3312,676.4,1.772464
3328,679.067,1.75835
3344,681.733,1.744113
3360,684.4,1.730203
3376,687.067,1.716392
3392,689.733,1.702556
3408,692.4,1.688706
3424,695.067,1.675426
3440,697.733,1.662133
3456,700.4,1.648821
3472,703.067,1.635789
3488,705.733,1.62298
3504,708.4,1.609847
3520,711.067,1.597696
3536,713.733,1.585722
3552,716.4,1.573797
3568,719.067,1.562344
3584,721.733,1.551367
3600,724.4,1.540511
3616,727.067,1.530231
3632,729.733,1.520219
3648,732.4,1.510866
3664,735.067,1.501665
3680,737.733,1.493031
3696,740.4,1.484711
3712,743.067,1.476763
3728,745.733,1.469026
3744,748.4,1.461524
3760,751.067,1.454377
3776,753.733,1.447091
3792,756.4,1.440675
3808,759.067,1.434326
3824,761.733,1.427976
3840,764.4,1.422105
3856,767.067,1.416092
3872,769.733,1.410413
3888,772.4,1.404772
3904,775.067,1.399166
3920,777.733,1.393794
3936,780.4,1.388729
3952,783.067,1.383167
3968,785.733,1.378004
3984,788.4,1.372957
4000,791.067,1.368084
4016,793.733,1.363382
4032,796.4,1.358616
4048,799.067,1.353335
4064,801.733,1.348784
4080,804.4,1.344833
4096,807.067,1.340243
4112,809.733,1.335987
4128,812.4,1.331787
4144,815.067,1.327568
4160,817.733,1.323403
4176,820.4,1.319231
4192,823.067,1.315189
4208,825.733,1.31115
4224,828.4,1.307446
4240,831.067,1.303537
4256,833.733,1.299821
4272,836.4,1.296072
4288,839.067,1.292459
4304,841.733,1.288645
4320,844.4,1.285103
4336,847.067,1.281744
4352,849.733,1.278097
4368,852.4,1.274765
4384,855.067,1.271346
4400,857.733,1.267689
4416,860.4,1.264607
4432,863.067,1.261545
4448,865.733,1.258187
4464,868.4,1.25518
4480,871.067,1.251953
4496,873.733,1.248821
4512,876.4,1.246097
4528,879.067,1.243167
4544,881.733,1.240136
4560,884.4,1.237643
4576,887.067,1.235062
4592,889.733,1.233071
4608,892.4,1.230389
4612,893.067,1.229957