Folder: matl-db/Wood/Calibration_Data/FPL

Note: Wood/Calibration_Data/FPL/README.md
# README File for USDA Forest Products Lab (FPL)

### Experimental Conditions: TGA/DSC

A Mettler Toledo TGA/DSC 3+ was used to conduct Thermogravimetric Analysis (TGA) experiments.



* Heating Rate: 10 K/min
* Temperature program

  * Initial Temperature: 303 K
  * Isothermal Hold to Dry: 378 K for 180 s
  * Isothermal Hold: 303 K for 600 s
  * Maximum Temperature: 893 K
  * Final Isotherm: None

* Sample mass: 6 mg +/- 0.7 mg
* Sample geometry: Powdered
* Calibration type: Before each experiment, a baseline test was performed using an empty crucible. Temperature/Heat flow calibration are performed every 12 months (or 100 tests, whichever is sooner) using a set of 5 reference materials with melting temperatures between 60-820 C.
* Crucible

  * Type: AL
  * Volume: 40 uL
  * Inner Diameter: 5.52 mm
  * Outer Diameter: 7.81 mm
  * Mass: 49.2 mg
  * Lid: True
  * Note: Al- crucibles (tzero, outer diameter 7.81 mm / volume 40 uL) with a pierced lid (a small hole in the lid allowed for gaseous decomposition products to escape).

* Carrier Gas

  * Type: Nitrogen
  * Flow rate: 50 ml/min
  * Note: Ultra High Purity (UHP) Nitrogen

* Instrument

  * Type: Mettler Toledo TGA/DSC 3+
  * Furnace Type: Ceramic
  * Notes: None

|Test Name|O2 volume %|Initial Sample Mass (mg)|
|-|:-:|:-:|
|FPL-Wood\_TGA\_N2\_10K\_R1|0|6.696|
|FPL-Wood\_TGA\_N2\_10K\_R2|0|5.311|
|FPL-Wood\_TGA\_N2\_10K\_R3|0|5.566|

### 

### Experimental Conditions, Cone calorimeter

* Test Standard: ASTM E1354
* Extraction flow rate: 24L/s
* Sample Surface Area: 0.00884 m2 (nominal)
* Sample holder dimensions:

  * Square pan: 106mm x 106mm x 25mm
  * Retainer frame: True
  * Retaining grid: None

* Backing Insulation: (~2.54 cm thick) dry refractory fiber conforming to ASTM E1354.
* Thermocouple location: None
* Ignition Source: spark ignitor



###### Test Heating Conditions

|Test Name|Heat Flux (kW/m2)|Heater Temperature (K)|thickness (cm)|t\_ign (s)|t\_flameout (s)|
|-|:-:|:-:|:-:|:-:|:-:|
|FPL-Wood\_Cone\_50KW\_hor\_R1|50|753|2.56|13|1563|
|FPL-Wood\_Cone\_50KW\_hor\_R2|50|753|2.55|14|1694|
|FPL-Wood\_Cone\_50KW\_hor\_R3|50|753|2.56|11|1501|

##### Test Summary

Cone Calorimeter experiments were conducted on an FTT iCone Mini (West Sussex, UK) at 1 heat flux (50 kW/m2) with an exhaust flow of 24 L/s using the standardized cone calorimeter procedure (ASTM E1354-25). Samples were wrapped in aluminum foil per the ASTM E1354 standard and placed upon ceramic wool insulation for testing. The optional retainer frame from ASTN 1354 was used. At 1410 seconds into FPL-Wood\_Cone\_50kW\_hor\_R2 connection to the DAQ was lost so flame out was recorded manually.

File: FPL_Wood_Cone_50kW_hor_R1.csv
Time (s),Mass (g),HRR (kW/m2)
0,98.95,-1.74772
6,111.711,0.789878
12,111.665,18.1715
18,111.158,164.063
24,110.445,184.343
30,109.856,155.329
36,109.31,143.834
42,108.829,123.011
48,108.415,111.941
54,108.005,101.212
60,107.632,102.499
66,107.244,96.0966
72,106.899,90.6626
78,106.5544,91.4704
84,106.224,87.6941
90,105.912,80.5207
96,105.624,80.6408
102,105.273,81.1677
108,105.018,76.8494
114,104.688,77.9064
120,104.431,76.8079
126,104.132,74.7761
132,103.882,74.6315
138,103.599,71.9222
144,103.344,70.9625
150,103.0338,72.0035
156,102.814,70.1777
162,102.497,72.1614
168,102.31,67.7505
174,101.966,70.3733
180,101.765,66.6618
186,101.482,68.0055
192,101.215,62.0653
198,100.979,64.8649
204,100.745,66.2868
210,100.462,64.0947
216,100.191,66.6335
222,99.9355,64.071
228,99.6553,65.7456
234,99.3524,66.069
240,99.0758,66.0886
246,98.8523,66.9971
252,98.5605,63.5713
258,98.2863,66.0156
264,97.9962,67.3687
270,97.7409,68.1518
276,97.463,65.6228
282,97.1692,67.4459
288,96.8641,65.2534
294,96.5719,63.9255
300,96.2887,67.8577
306,95.9841,67.9935
312,95.7109,69.4739
318,95.3692,68.9208
324,95.0924,69.6331
330,94.8084,67.2663
336,94.4946,68.0071
342,94.1843,67.1084
348,93.8933,70.3606
354,93.5911,70.4404
360,93.2514,73.1787
366,92.99,69.564
372,92.6474,72.4359
378,92.3426,69.058
384,92.0344,71.6817
390,91.7047,69.839
396,91.4178,73.9101
402,91.1013,73.6762
408,90.7968,70.1593
414,90.4909,69.1904
420,90.162,68.5549
426,89.8835,71.06
432,89.5297,69.4867
438,89.2636,68.8069
444,88.9486,68.8608
450,88.6666,72.1152
456,88.3448,69.3394
462,88.0372,70.7206
468,87.7644,67.6101
474,87.4136,69.8983
480,87.1105,68.3291
486,86.8076,70.7062
492,86.5397,71.6802
498,86.2131,72.9716
504,85.925,70.8524
510,85.5833,70.9618
516,85.3423,70.0708
522,84.9841,71.3977
528,84.7096,69.1875
534,84.40859,67.9003
540,84.1182,68.6788
546,83.8234,67.7648
552,83.5275,71.1313
558,83.22174,68.6475
564,82.9372,71.9901
570,82.6596,69.717
576,82.3373,69.9623
582,82.0639,70.5233
588,81.7345,69.6669
594,81.4242,70.1529
600,81.1505,69.1357
606,80.887,71.725
612,80.5539,68.1293
618,80.2574,71.506
624,80.0106,68.49
630,79.6941,65.8582
636,79.3782,69.2179
642,79.1715,71.1687
648,78.8292,70.395
654,78.5466,68.0231
660,78.2164,71.3392
666,77.9498,69.3788
672,77.6873,70.7237
678,77.3941,70.17
684,77.0616,69.4693
690,76.8128,71.5852
696,76.50032,69.5393
702,76.2083,69.5412
708,75.9227,73.2538
714,75.6047,70.7633
720,75.3092,70.8414
726,75.0035,70.7766
732,74.7663,71.3707
738,74.4828,71.5722
744,74.2001,72.211
750,73.8933,69.8603
756,73.5889,68.8164
762,73.3018,72.8253
768,73.0466,70.6622
774,72.7231,72.231
780,72.4402,70.4496
786,72.1824,71.9308
792,71.8543,72.2211
798,71.5748,75.2473
804,71.27978,72.9453
810,70.9736,72.3286
816,70.7526,74.1861
822,70.40383,71.4261
828,70.1637,74.7956
834,69.8691,73.4078
840,69.567,73.6635
846,69.3027,72.6477
852,68.9858,74.5568
858,68.6525,73.9728
864,68.389,77.6771
870,68.0886,76.2034
876,67.8358,77.2258
882,67.4978,73.6152
888,67.2381,75.8853
894,66.9117,77.0342
900,66.6607,76.1456
906,66.3297,79.1648
912,66.0552,74.4724
918,65.7434,78.6539
924,65.4478,77.9553
930,65.181,79.3904
936,64.8589,78.0423
942,64.5852,80.1236
948,64.2856,75.3296
954,63.9938,78.9786
960,63.6788,77.1462
966,63.4261,77.8215
972,63.0662,78.5108
978,62.79525,80.8831
984,62.43928,82.1376
990,62.1749,80.5703
996,61.8951,83.2602
1002,61.5354,83.7628
1008,61.2795,83.5818
1014,60.9596,82.1923
1020,60.6427,83.8709
1026,60.344,89.2554
1032,60.0587,88.0248
1038,59.6844,88.3853
1044,59.3858,87.0042
1050,59.0505,88.1042
1056,58.713,86.6244
1062,58.4325,88.7672
1068,58.0893,91.4545
1074,57.763,91.0976
1080,57.37124,93.2245
1086,57.0905,94.7161
1092,56.7161,95.2651
1098,56.4107,94.5716
1104,56.0392,95.3409
1110,55.6986,94.2196
1116,55.3225,95.3844
1122,54.9674,100.953
1128,54.6719,98.6296
1134,54.2372,100.56
1140,53.9201,102.672
1146,53.5301,100.952
1152,53.1954,100.734
1158,52.8359,100.878
1164,52.4509,103.337
1170,52.0343,102.898
1176,51.671,101.986
1182,51.2844,107.34
1188,50.9617,103.158
1194,50.5689,102.909
1200,50.1557,101.069
1206,49.8103,104.774
1212,49.3469,103.205
1218,49.033,104.935
1224,48.6363,105.903
1230,48.2409,107.448
1236,47.8557,104.556
1242,47.443,106.18
1248,47.0362,109.796
1254,46.6226,107.337
1260,46.2169,106.627
1266,45.8692,111.144
1272,45.4815,113.635
1278,45.0618,108.976
1284,44.6415,107.883
1290,44.2579,108.57
1296,43.83051,111.573
1302,43.4462,109.277
1308,43.0575,109.715
1314,42.6479,110.234
1320,42.2725,111.293
1326,41.8915,109.096
1332,41.4659,107.921
1338,41.0567,113.149
1344,40.6423,108.432
1350,40.2797,112.709
1356,39.8493,111.529
1362,39.4674,111.953
1368,39.0705,110.59
1374,38.6899,110.399
1380,38.3032,110.498
1386,37.8818,109.43
1392,37.5177,107.568
1398,37.1319,108.804
1404,36.7997,108.663
1410,36.40085,103.504
1416,36.0342,99.8167
1422,35.65958,102.196
1428,35.3318,102.279
1434,35.0123,102.29
1440,34.6567,96.0021
1446,34.3241,93.4872
1452,34.0751,92.0581
1458,33.7569,91.4862
1464,33.44756,90.3481
1470,33.1587,88.1121
1476,32.8387,85.3395
1482,32.5934,81.3835
1488,32.3307,80.8001
1494,32.068,79.7612
1500,31.8596,75.7491
1506,31.5613,72.7242
1512,31.3667,72.8909
1518,31.1699,70.1441
1524,31.0003,65.6633
1530,30.795,67.097
1536,30.6114,63.6203
1542,30.4295,60.184
1548,30.2654,59.7995
1554,30.1272,56.1258
1560,30.0068,54.5808
1566,29.8451,52.5337
1572,29.73113,49.3191
1578,29.6055,48.4638
1584,29.4961,48.4169
1590,29.4536,46.4232
1596,29.3119,45.9916
1602,29.2283,44.1791
1608,29.1324,42.5155
1614,29.0191,43.6172
1620,28.9376,44.3326
1626,28.8746,42.2709
1632,28.7588,42.0607
1638,28.7072,40.9435
1644,28.5981,38.4725
1650,28.5105,42.1189
1656,28.4699,41.4601
1662,28.3552,39.8012
1668,28.2792,38.6571
1674,28.2028,38.5689
1680,28.136,38.3298
1686,28.06454,38.9742
1692,27.9757,39.6731
1698,27.9454,37.883
1704,27.8651,37.2706
1710,27.7702,37.7331
1716,27.7357,36.5965
1722,27.6601,35.4335
1728,27.5665,35.5053
1734,27.4753,34.4472
1740,27.4551,33.2803
1746,27.387,34.925
1752,27.3112,34.7079
1758,27.22873,37.0291
1764,27.1978,34.5994
1770,27.0957,32.2744
1773,27.0563,34.5798

File: FPL_Wood_Cone_50kW_hor_R2.csv
Time (s),Mass (g),HRR (kW/m2)
0,105.22,2.49887
5,121.512,3.31999
10,121.484,2.22988
15,121.204,102.052
20,120.614,184.842
25,120.011,204.058
30,119.414,177.914
35,118.989,161.826
40,118.5,143.495
45,118.04,134.331
50,117.64,129.602
55,117.339,114.995
60,116.953,116.095
65,116.586,115.361
70,116.277,111.118
75,115.882,107.795
80,115.601,103.051
85,115.273,102.017
90,114.963,101.487
95,114.744,97.9332
100,114.416,94.9713
105,114.137,95.2696
110,113.824,98.3397
115,113.586,91.3593
120,113.278,87.9477
125,113.023,88.9485
130,112.745,85.4428
135,112.501,86.0127
140,112.241,84.7268
145,111.985,85.6288
150,111.736,83.1928
155,111.465,83.5795
160,111.221,82.9186
165,110.99,80.4862
170,110.709,79.5938
175,110.476,80.4488
180,110.236,80.0332
185,109.959,76.2701
190,109.651,77.0778
195,109.435,77.6697
200,109.216,78.0172
205,108.895,76.746
210,108.705,76.1446
215,108.444,75.5451
220,108.19,75.7566
225,107.932,76.3671
230,107.673,73.8332
235,107.399,77.0227
240,107.166,75.577
245,106.887,76.3459
250,106.647,74.4027
255,106.424,74.7318
260,106.141,74.025
265,105.874,76.2505
270,105.6,74.3096
275,105.349,73.3624
280,105.079,75.7597
285,104.867,72.9791
290,104.565,75.0337
295,104.271,77.3793
300,103.992,77.8619
305,103.732,75.4394
310,103.45,76.9938
315,103.162,77.6345
320,102.925,76.8136
325,102.685,77.7432
330,102.377,77.3157
335,102.095,76.5096
340,101.83,79.29645
345,101.54,77.2688
350,101.276,79.5606
355,101.018,76.5497
360,100.705,75.7744
365,100.456,77.3489
370,100.152,77.7564
375,99.8623,77.9665
380,99.6415,76.8245
385,99.3315,76.7958
390,99.0646,77.4127
395,98.788,76.5357
400,98.5014,77.4361
405,98.2445,75.9825
410,97.95074,79.0805
415,97.6527,77.4727
420,97.3937,78.2527
425,97.09861,77.0294
430,96.8324,75.1008
435,96.5512,78.6501
440,96.3092,78.4169
445,96.0152,78.5161
450,95.724,76.3366
455,95.4454,78.8617
460,95.1514,81.5771
465,94.8695,78.9051
470,94.592,77.9483
475,94.3288,79.0318
480,94.033,81.3774
485,93.7679,79.9464
490,93.4761,79.4182
495,93.215,80.037
500,92.8997,80.2145
505,92.6804,78.0735
510,92.3425,83.2298
515,92.09791,78.6325
520,91.7907,76.9595
525,91.5289,80.3731
530,91.22134,78.24
535,90.95918,77.5279
540,90.6507,82.382
545,90.3369,82.0262
550,90.1271,84.2026
555,89.8437,82.8935
560,89.5393,83.0076
565,89.23956,79.4215
570,88.9719,82.1477
575,88.6616,81.2507
580,88.3952,83.7915
585,88.114,83.8765
590,87.8721,79.8942
595,87.5527,85.2427
600,87.28801,83.0804
605,87.0083,80.9554
610,86.7228,79.3645
615,86.4195,82.2473
620,86.1416,81.7764
625,85.8824,81.6351
630,85.6141,81.8144
635,85.3073,83.1606
640,85.0145,83.824
645,84.76,84.0448
650,84.48304,80.8808
655,84.2082,82.469
660,83.9153,80.5682
665,83.6422,82.2127
670,83.3602,84.1577
675,83.101,86.4695
680,82.78598,87.0282
685,82.5585,86.159
690,82.2844,85.4639
695,82.0014,82.2785
700,81.6913,81.0793
705,81.424,84.4529
710,81.1665,81.4461
715,80.8792,82.6499
720,80.5812,86.7346
725,80.3343,85.1322
730,80.05013,84.5941
735,79.7518,84.3277
740,79.506,84.1345
745,79.2259,84.592
750,78.8979,86.2048
755,78.6628,86.2415
760,78.3965,86.7594
765,78.142,84.2918
770,77.8043,87.5885
775,77.5515,84.4259
780,77.2798,87.2586
785,76.9834,84.6515
790,76.7092,86.0243
795,76.4236,90.0948
800,76.1577,87.9706
805,75.8871,90.9345
810,75.6166,93.7324
815,75.3175,90.6038
820,75.0711,90.9477
825,74.7387,90.965
830,74.4746,87.1808
835,74.2256,89.5362
840,73.952,89.9378
845,73.6496,88.9704
850,73.3494,92.308
855,73.0439,93.2706
860,72.7843,88.0972
865,72.4919,91.911
870,72.22975,89.4382
875,71.90651,89.4617
880,71.625,91.9041
885,71.3373,90.1045
890,71.0624,91.9906
895,70.7727,91.7699
900,70.4939,93.2741
905,70.1825,92.8463
910,69.922,93.8811
915,69.6305,93.0717
920,69.34,95.6395
925,69.0364,96.5386
930,68.7086,94.5816
935,68.3939,94.1104
940,68.0833,96.9802
945,67.8315,96.038
950,67.5072,96.003
955,67.2341,97.3229
960,66.9199,97.7791
965,66.5896,98.8005
970,66.3238,98.9988
975,66.0549,98.2985
980,65.68802,99.3731
985,65.3521,99.1309
990,65.06647,104.885
995,64.8054,101.971
1000,64.4752,103.086
1005,64.17373,104.095
1010,63.8314,102.023
1015,63.4796,107.281
1020,63.1832,103.394
1025,62.8409,101.284
1030,62.6014,109.35
1035,62.2315,108.975
1040,61.9204,106.267
1045,61.5978,107.301
1050,61.2916,107.48
1055,60.9187,107.536
1060,60.6325,107.348
1065,60.3136,108.032
1070,59.9632,109.478
1075,59.6219,110.503
1080,59.2957,114.527
1085,58.9681,110.572
1090,58.6349,113.864
1095,58.2718,111.015
1100,57.9787,113.974
1105,57.611,112.881
1110,57.2758,108.525
1115,56.9428,113.539
1120,56.5835,112.358
1125,56.2123,113.656
1130,55.89502,111.995
1135,55.511,115.285
1140,55.2291,115.541
1145,54.8446,116.619
1150,54.4873,116.437
1155,54.147,112.729
1160,53.7696,116.726
1165,53.4067,116.185
1170,53.0375,117.837
1175,52.7034,120.289
1180,52.3588,116.051
1185,52.0203,118.92
1190,51.6535,123.187
1195,51.3271,119.013
1200,50.9567,121.77
1205,50.56646,123.355
1210,50.2097,118.899
1215,49.8368,121.743
1220,49.5218,120.761
1225,49.173,119.483
1230,48.8152,120.638
1235,48.3994,121.022
1240,48.032,120.608
1245,47.6204,118.707
1250,47.2874,118.557
1255,46.9323,120.912
1260,46.5615,120.653
1265,46.2475,121.082
1270,45.8606,121.298
1275,45.52855,117.509
1280,45.1871,117.385
1285,44.8025,118.904
1290,44.3936,119.602
1295,44.077,120.435
1300,43.73476,117.768
1305,43.3729,115.973
1310,43.0555,118.112
1315,42.7086,120.08
1320,42.4045,117.846
1325,42.0819,112.032
1330,41.7272,113.91
1335,41.4193,109.699
1340,41.0957,106.585
1345,40.8316,107.648
1350,40.4891,103.84
1355,40.2377,100.741
1360,39.9561,105.505
1365,39.6492,100.207
1370,39.3754,96.7729
1375,39.1192,99.2999
1380,38.86226,94.7194
1385,38.6026,91.4463
1390,38.3381,90.5813
1395,38.1066,89.3074
1400,37.9174,91.6359
1405,37.7022,92.5397
1410,34.8962,90.2412

File: FPL_Wood_Cone_50kW_hor_R3.csv
Time (s),Mass (g),HRR (kW/m2)
0,99.18926,2.17897
6,99.1465,1.51962
12,99.12956,1.81635
18,98.7418,131.792
24,97.9816,198.503
30,97.3767,157.601
36,96.8606,129.471
42,96.4126,118.138
48,95.9986,111.584
54,95.6131,109.094
60,95.22021,99.2433
66,94.8725,95.012
72,94.5359,90.5273
78,94.18207,88.4797
84,93.8375,82.9306
90,93.5699,80.2418
96,93.2738,81.1013
102,92.9808,78.5698
108,92.6952,78.3549
114,92.4118,74.1318
120,92.122,71.8244
126,91.8201,73.2921
132,91.5508,72.6358
138,91.2093,74.3139
144,90.97,72.7976
150,90.7051,69.5586
156,90.4075,69.6974
162,90.0986,68.0519
168,89.8407,66.1334
174,89.5865,67.0429
180,89.3231,65.8417
186,89.0672,66.3114
192,88.7909,66.7917
198,88.5239,65.4718
204,88.2202,67.4416
210,87.9475,66.0458
216,87.6495,67.1447
222,87.4331,66.5159
228,87.1343,65.3269
234,86.8333,65.0063
240,86.5532,67.2346
246,86.2787,66.8004
252,85.9822,65.5209
258,85.7285,63.4625
264,85.4002,66.2479
270,85.1724,65.5693
276,84.8673,63.394
282,84.5808,63.9495
288,84.27,66.4917
294,83.9901,63.9506
300,83.67159,67.2549
306,83.4165,69.1859
312,83.0929,68.8805
318,82.7996,68.4134
324,82.4758,67.9435
330,82.1239,66.9082
336,81.8698,68.6956
342,81.53329,68.185
348,81.2322,70.0489
354,80.9223,71.3109
360,80.58234,68.0089
366,80.28802,73.874
372,79.9507,72.0163
378,79.6545,72.0428
384,79.33666,75.7874
390,79.0308,71.8169
396,78.7177,74.2875
402,78.3692,72.7981
408,78.0202,75.018
414,77.7228,73.8135
420,77.4118,74.052
426,77.0508,75.1819
432,76.7727,73.6938
438,76.4119,74.4808
444,76.1719,73.2517
450,75.7851,76.1402
456,75.4492,76.3747
462,75.1902,78.4174
468,74.8286,76.9688
474,74.525,76.2113
480,74.1618,76.9015
486,73.8431,76.5509
492,73.54229,77.5576
498,73.2187,75.5112
504,72.919,78.3644
510,72.6205,77.6206
516,72.2567,76.7435
522,71.9171,75.4005
528,71.5998,77.6118
534,71.2868,77.65
540,70.97531,76.772
546,70.6705,77.2087
552,70.3308,78.3386
558,70.0325,76.8506
564,69.7358,77.4564
570,69.3599,77.6881
576,69.0168,76.5111
582,68.7231,76.8569
588,68.4077,75.9676
594,68.0983,76.4328
600,67.7544,77.2099
606,67.4721,75.4757
612,67.15478,77.2985
618,66.8003,78.5804
624,66.4991,78.2151
630,66.2007,75.0106
636,65.866,73.954
642,65.5466,72.0286
648,65.19,74.4661
654,64.9092,75.7773
660,64.587,75.9536
666,64.2931,76.4707
672,63.9681,74.1383
678,63.65123,74.958
684,63.3517,76.5732
690,63.0237,76.6882
696,62.7239,77.7348
702,62.4585,80.3442
708,62.1057,75.2845
714,61.8167,73.4326
720,61.4801,77.79
726,61.1564,76.7819
732,60.8757,75.8974
738,60.5645,78.4704
744,60.2348,76.9604
750,59.9379,76.0604
756,59.6568,77.1695
762,59.33533,75.6471
768,59.0035,77.5034
774,58.714,71.457
780,58.4079,77.147
786,58.067,77.7523
792,57.7516,77.5699
798,57.4398,77.5036
804,57.1425,80.5584
810,56.8076,81.6675
816,56.5119,81.3265
822,56.1997,79.4924
828,55.8742,82.6024
834,55.5842,82.0458
840,55.2456,80.5831
846,54.9461,80.9575
852,54.5966,84.3453
858,54.29319,83.0371
864,53.9688,82.5809
870,53.6443,85.7629
876,53.2957,84.6495
882,52.9715,85.8583
888,52.6402,85.3176
894,52.3337,88.4844
900,51.9849,88.9331
906,51.6267,89.4073
912,51.294,91.2178
918,50.9507,89.9965
924,50.62848,91.9555
930,50.3065,89.9319
936,49.942,85.9635
942,49.5786,90.9803
948,49.2198,96.7583
954,48.9027,96.3988
960,48.4937,92.8682
966,48.1527,93.9109
972,47.8181,92.4765
978,47.5139,96.3329
984,47.1313,94.2658
990,46.7457,101.068
996,46.3977,95.4779
1002,46.0029,102.051
1008,45.59977,102.312
1014,45.2614,101.72
1020,44.9124,104.493
1026,44.5233,103.618
1032,44.1344,101.236
1038,43.7168,102.298
1044,43.3507,107.233
1050,43.0014,106.448
1056,42.5719,104.705
1062,42.2588,109.039
1068,41.81107,108.772
1074,41.4391,107.882
1080,41.0115,107.937
1086,40.6359,108.598
1092,40.21199,112.101
1098,39.81,113.51
1104,39.3703,111.91
1110,39.0464,110.168
1116,38.5899,110.576
1122,38.1458,111.048
1128,37.7512,112.303
1134,37.3269,111.603
1140,36.8949,114.387
1146,36.5142,115.191
1152,36.0234,115.752
1158,35.6202,120.052
1164,35.215,120.064
1170,34.7532,119.305
1176,34.35342,115.183
1182,33.8915,116.243
1188,33.4618,115.505
1194,32.9916,115.729
1200,32.6467,118.518
1206,32.2138,119.031
1212,31.773,117.086
1218,31.3569,115.813
1224,30.8957,115.344
1230,30.4913,118.215
1236,30.0844,114.95
1242,29.6857,112.743
1248,29.2762,109.373
1254,28.9248,105.834
1260,28.5397,108.13
1266,28.1629,101.577
1272,27.761,102.153
1278,27.4387,100.958
1284,27.0716,100.475
1290,26.74172,99.1517
1296,26.4062,100.564
1302,26.0767,94.4608
1308,25.7971,95.743
1314,25.4666,93.2773
1320,25.1797,91.3531
1326,24.9009,83.102
1332,24.6332,82.258
1338,24.3817,79.4654
1344,24.1372,82.6554
1350,23.8641,75.7585
1356,23.6662,73.9306
1362,23.38735,74.1265
1368,23.2081,72.6711
1374,22.954,72.0919
1380,22.7937,69.5925
1386,22.5736,65.0693
1392,22.4168,61.7448
1398,22.1772,62.4147
1404,22.0579,58.9496
1410,21.9289,57.8458
1416,21.7666,59.3902
1422,21.5893,54.723
1428,21.4795,53.802
1434,21.3132,55.9493
1440,21.162,51.7653
1446,21.034,49.4508
1452,20.9527,49.5564
1458,20.8235,48.7858
1464,20.7007,48.4351
1470,20.5578,45.814
1476,20.4331,44.6782
1482,20.3551,47.251
1488,20.2358,43.4748
1494,20.1432,43.3106
1500,19.9905,42.9936
1506,19.9136,40.8997
1512,19.84244,41.0981
1518,19.6837,40.7388
1524,19.6227,40.1893
1530,19.5089,41.8219
1536,19.4381,40.9748
1542,19.333,38.924
1548,19.2482,38.0856
1554,19.1922,40.08
1560,19.0711,40.7375
1566,18.9805,38.2609
1572,18.9452,37.5364
1578,18.8474,36.7924
1584,18.705,35.8884
1590,18.6837,36.0861
1596,18.58071,35.2197
1602,18.4932,35.1565
1608,18.4778,35.1897
1614,18.3602,35.0809
1620,18.2485,37.4034
1626,18.2011,38.2925
1632,18.1706,35.8102
1638,18.0759,35.8389
1644,17.9846,34.7018
1650,17.9612,33.5962
1656,17.929,33.7485
1662,17.77632,31.8379
1668,17.73726,32.0781
1674,17.67618,32.65
1680,17.6432,33.6815
1686,17.533,32.8245
1692,17.4182,31.047
1698,17.369,30.195
1704,17.375,30.6772
1710,17.2501,33.8975
1716,17.2442,32.1325
1722,17.2009,32.7322
1728,17.1164,33.6637
1734,17.0506,30.6141
1740,17.0196,33.5572
1746,16.87448,31.3771
1752,16.8803,32.8014
1758,16.8443,32.4826
1764,16.7346,30.0017
1765,16.7661,29.164