Folder: matl-db/Wood/Calibration_Data/FSRI (part 4)

File: FSRI_STA_N2_3K_R1.csv
Time (s),Temperature (K),Mass (mg),Heat Flow Rate (W/g)
0.0,324.0,3.9936,0.022
82.764,326.5,3.9914,0.0527
145.864,329.0,3.9905,0.064
203.223,331.5,3.9887,0.0724
257.51,334.0,3.9875,0.0769
309.965,336.5,3.9858,0.0823
361.362,339.0,3.9848,0.0864
412.003,341.5,3.9825,0.0898
461.934,344.0,3.9816,0.0928
511.604,346.5,3.9801,0.091
561.404,349.0,3.9782,0.0882
610.804,351.5,3.9786,0.0878
660.179,354.0,3.977,0.0888
709.386,356.5,3.9752,0.0866
758.664,359.0,3.975,0.0866
807.743,361.5,3.9741,0.0856
856.708,364.0,3.9744,0.0855
905.254,366.5,3.9742,0.0863
954.468,369.0,3.9728,0.0849
1003.43,371.5,3.9729,0.0847
1052.32,374.0,3.9723,0.0836
1101.39,376.5,3.9729,0.0839
1149.96,379.0,3.973,0.0823
1198.88,381.5,3.9707,0.0863
1248.01,384.0,3.9719,0.0871
1297.01,386.5,3.9723,0.0877
1345.58,389.0,3.9711,0.0882
1394.29,391.5,3.9709,0.0907
1443.04,394.0,3.9706,0.0906
1491.81,396.5,3.9695,0.0903
1540.34,399.0,3.9706,0.0904
1588.76,401.5,3.9706,0.0943
1637.2,404.0,3.9712,0.0953
1685.82,406.5,3.9713,0.0975
1734.46,409.0,3.9695,0.0989
1782.96,411.5,3.9698,0.0978
1831.47,414.0,3.9693,0.0991
1879.97,416.5,3.9691,0.102
1928.32,419.0,3.9681,0.1022
1976.85,421.5,3.9665,0.1029
2025.26,424.0,3.9657,0.1036
2073.66,426.5,3.9665,0.1054
2122.02,429.0,3.9651,0.1059
2170.47,431.5,3.9661,0.1061
2218.94,434.0,3.9635,0.1069
2267.38,436.5,3.9598,0.1073
2315.99,439.0,3.9595,0.1063
2364.57,441.5,3.9587,0.1072
2413.1,444.0,3.9575,0.109
2461.63,446.5,3.9542,0.1105
2510.28,449.0,3.9515,0.113
2558.93,451.5,3.9481,0.1119
2607.36,454.0,3.9477,0.1147
2655.69,456.5,3.9436,0.1145
2704.17,459.0,3.9401,0.114
2752.65,461.5,3.9362,0.1148
2801.09,464.0,3.9341,0.1156
2849.19,466.5,3.9284,0.1164
2897.78,469.0,3.9247,0.1183
2946.3,471.5,3.9195,0.1146
2994.65,474.0,3.9148,0.1155
3043.12,476.5,3.9098,0.1161
3091.53,479.0,3.9079,0.1149
3139.89,481.5,3.9037,0.1161
3188.29,484.0,3.8962,0.1171
3236.74,486.5,3.8924,0.1191
3285.29,489.0,3.8871,0.1169
3333.87,491.5,3.8828,0.1164
3382.5,494.0,3.8778,0.1203
3430.99,496.5,3.8721,0.1194
3479.58,499.0,3.8655,0.1202
3528.05,501.5,3.8596,0.1218
3576.61,504.0,3.8518,0.1222
3624.99,506.5,3.8423,0.1214
3673.42,509.0,3.8335,0.1206
3721.99,511.5,3.8239,0.1219
3770.75,514.0,3.8123,0.1229
3819.42,516.5,3.7997,0.1247
3867.96,519.0,3.7867,0.1234
3916.64,521.5,3.7718,0.1204
3965.26,524.0,3.7557,0.1212
4014.07,526.5,3.74,0.1215
4062.59,529.0,3.723,0.125
4111.17,531.5,3.7042,0.1249
4159.76,534.0,3.6858,0.1263
4208.3,536.5,3.6639,0.1261
4256.86,539.0,3.6421,0.1253
4305.58,541.5,3.6178,0.1249
4354.21,544.0,3.5918,0.1251
4402.87,546.5,3.5622,0.1265
4451.74,549.0,3.5336,0.1295
4500.66,551.5,3.5023,0.1296
4549.6,554.0,3.4679,0.1328
4598.6,556.5,3.4318,0.1357
4647.38,559.0,3.391,0.1398
4696.04,561.5,3.3487,0.1416
4744.83,564.0,3.3068,0.1459
4793.54,566.5,3.2605,0.1494
4842.41,569.0,3.2123,0.1524
4891.25,571.5,3.1606,0.1551
4940.23,574.0,3.1081,0.1593
4989.03,576.5,3.0515,0.1622
5037.82,579.0,2.9923,0.1659
5086.73,581.5,2.9298,0.1709
5135.66,584.0,2.8659,0.1771
5184.65,586.5,2.8027,0.1799
5233.51,589.0,2.7348,0.1825
5282.54,591.5,2.6662,0.1844
5331.31,594.0,2.5941,0.1869
5380.43,596.5,2.5211,0.1912
5429.66,599.0,2.448,0.1961
5478.97,601.5,2.3692,0.2003
5528.14,604.0,2.2885,0.2085
5577.13,606.5,2.2046,0.2124
5626.28,609.0,2.1166,0.2244
5675.4,611.5,2.0243,0.2327
5724.84,614.0,1.9264,0.242
5774.34,616.5,1.8246,0.2496
5823.75,619.0,1.7193,0.2508
5872.87,621.5,1.613,0.2514
5922.09,624.0,1.5077,0.2372
5971.19,626.5,1.4064,0.2193
6020.25,629.0,1.3171,0.1835
6069.02,631.5,1.2395,0.1436
6117.78,634.0,1.1801,0.0978
6166.54,636.5,1.1389,0.0558
6215.51,639.0,1.1131,0.0266
6264.7,641.5,1.0968,0.0079
6313.83,644.0,1.0847,0.0028
6363.25,646.5,1.0731,-0.0003
6412.75,649.0,1.0634,-0.001
6462.36,651.5,1.0538,-0.0059
6511.8,654.0,1.0428,-0.0091
6561.22,656.5,1.035,-0.0095
6610.7,659.0,1.028,-0.0135
6660.29,661.5,1.0189,-0.0185
6710.02,664.0,1.0114,-0.0216
6759.73,666.5,1.0019,-0.0235
6809.2,669.0,0.9928,-0.0264
6858.81,671.5,0.9863,-0.033
6908.5,674.0,0.9768,-0.0346
6958.21,676.5,0.9706,-0.0365
7007.96,679.0,0.9611,-0.0403
7057.64,681.5,0.9535,-0.0426
7107.19,684.0,0.9461,-0.0436
7157.21,686.5,0.9391,-0.0468
7206.96,689.0,0.9318,-0.0493
7256.48,691.5,0.922,-0.049
7305.99,694.0,0.9168,-0.0509
7355.69,696.5,0.9091,-0.0496
7405.55,699.0,0.9046,-0.0476
7455.21,701.5,0.897,-0.0461
7504.96,704.0,0.8905,-0.0423
7554.86,706.5,0.8847,-0.0423
7604.8,709.0,0.8792,-0.0401
7654.63,711.5,0.8719,-0.0401
7704.44,714.0,0.8677,-0.0326
7754.32,716.5,0.8639,-0.0318
7804.4,719.0,0.8592,-0.0301
7854.31,721.5,0.8541,-0.0296
7904.17,724.0,0.8497,-0.0254
7954.28,726.5,0.8462,-0.0279
8004.16,729.0,0.843,-0.029
8054.06,731.5,0.8393,-0.0335
8104.05,734.0,0.8348,-0.0323
8153.91,736.5,0.8318,-0.0361
8203.77,739.0,0.8284,-0.0363
8253.81,741.5,0.8264,-0.0371
8303.76,744.0,0.8228,-0.0351
8353.63,746.5,0.8195,-0.0351
8403.46,749.0,0.8156,-0.0381
8453.38,751.5,0.8138,-0.0403
8503.44,754.0,0.8108,-0.0376
8553.55,756.5,0.8072,-0.0354
8603.69,759.0,0.8028,-0.0349
8653.63,761.5,0.8014,-0.0371
8703.81,764.0,0.798,-0.0323
8754.16,766.5,0.7952,-0.0326
8804.43,769.0,0.7933,-0.0286
8854.81,771.5,0.792,-0.0293
8905.37,774.0,0.7885,-0.0301
8955.79,776.5,0.7865,-0.0318
9005.85,779.0,0.7855,-0.0345
9055.8,781.5,0.7827,-0.035
9105.77,784.0,0.7807,-0.0345
9155.7,786.5,0.7783,-0.0368
9205.93,789.0,0.776,-0.0332
9256.13,791.5,0.7735,-0.0345
9306.37,794.0,0.7721,-0.0345
9356.4,796.5,0.7692,-0.0369
9406.68,799.0,0.7693,-0.0367
9456.9,801.5,0.766,-0.0383
9507.09,804.0,0.7658,-0.0395
9557.32,806.5,0.762,-0.0404
9607.54,809.0,0.7619,-0.0416
9657.82,811.5,0.7595,-0.0417
9708.18,814.0,0.7584,-0.0431
9758.41,816.5,0.7553,-0.0436
9808.58,819.0,0.754,-0.0481
9859.05,821.5,0.751,-0.0452
9909.39,824.0,0.7502,-0.0462
9959.66,826.5,0.746,-0.0463
10010.3,829.0,0.7453,-0.0434
10060.9,831.5,0.7437,-0.0439
10111.5,834.0,0.7427,-0.0437
10161.9,836.5,0.7396,-0.0445
10212,839.0,0.7384,-0.0451
10262.1,841.5,0.7356,-0.046
10312.4,844.0,0.7333,-0.0431
10363,846.5,0.732,-0.0437
10413.8,849.0,0.7286,-0.0385
10464.1,851.5,0.7263,-0.0376
10514.5,854.0,0.7252,-0.035
10564.9,856.5,0.7233,-0.0349
10615.4,859.0,0.7223,-0.0366
10665.8,861.5,0.7187,-0.0385
10716.2,864.0,0.7179,-0.0422
10766.7,866.5,0.7169,-0.0435
10817.3,869.0,0.7137,-0.04
10867.8,871.5,0.7115,-0.0374
10918.2,874.0,0.7096,-0.0377
10968.6,876.5,0.7093,-0.0368
11019.1,879.0,0.7074,-0.0404
11069.7,881.5,0.7067,-0.0384
11120.2,884.0,0.7031,-0.0397
11170.6,886.5,0.7027,-0.0375
11221.2,889.0,0.7007,-0.0326
11272.1,891.5,0.6999,-0.0292
11322.9,894.0,0.6993,-0.0297
11373.6,896.5,0.6975,-0.0277
11424.3,899.0,0.6982,-0.027
11475,901.5,0.6976,-0.0274
11525.8,904.0,0.6962,-0.0321
11576.6,906.5,0.6962,-0.0286
11627.3,909.0,0.6938,-0.0323
11677.8,911.5,0.6929,-0.0281
11729,914.0,0.6918,-0.0083
11779.8,916.5,0.6921,-0.0021
11830.5,919.0,0.69,0.0002
11880.8,921.5,0.6874,-0.0116
11931.8,924.0,0.6854,-0.0101
11983.1,926.5,0.6857,-0.0092
12034,929.0,0.6843,-0.0078
12084.9,931.5,0.6826,-0.0085
12135.4,934.0,0.6834,-0.0237
12186,936.5,0.6815,-0.0173
12236.6,939.0,0.6809,-0.0138
12287.5,941.5,0.6784,-0.0082
12338.5,944.0,0.6769,-0.0089
12389.4,946.5,0.6768,-0.0061
12440.3,949.0,0.6765,-0.0057
12490.9,951.5,0.6757,-0.0088
12541.8,954.0,0.6729,-0.0067
12592.8,956.5,0.6743,-0.0078
12643.9,959.0,0.6725,-0.0069
12694.4,961.5,0.6727,-0.0071
12744.9,964.0,0.6701,-0.007
12795.8,966.5,0.6699,-0.0109
12846.8,969.0,0.6675,-0.0214
12897.6,971.5,0.667,-0.0316
12948.2,974.0,0.6656,-0.0304
12999,976.5,0.6648,-0.039
13050.1,979.0,0.6644,-0.038
13101.3,981.5,0.6619,-0.0495
13152.1,984.0,0.6618,-0.0532
13203,986.5,0.6623,-0.0522
13254.2,989.0,0.6582,-0.05
13305.2,991.5,0.6589,-0.0501
13356.3,994.0,0.656,-0.0504
13407.2,996.5,0.6553,-0.051
13458,999.0,0.6541,-0.0531
13508.8,1001.5,0.6524,-0.0506
13559.2,1004.0,0.6531,-0.0521
13610.6,1006.5,0.6522,-0.0488
13661.8,1009.0,0.6509,-0.0482
13713.1,1011.5,0.6497,-0.0467
13764.3,1014.0,0.6495,-0.0371
13815.2,1016.5,0.6474,-0.0353
13866.3,1019.0,0.647,-0.029
13917.4,1021.5,0.6469,-0.0253
13968.2,1024.0,0.6443,-0.0245
14019,1026.5,0.6446,-0.0247
14070,1029.0,0.645,-0.0232
14121,1031.5,0.6447,-0.0277
14171.9,1034.0,0.6415,-0.0319
14222.7,1036.5,0.6417,-0.0343
14273.8,1039.0,0.6411,-0.0284
14325.3,1041.5,0.6394,-0.0299
14376.3,1044.0,0.6398,-0.0258
14427.1,1046.5,0.638,-0.016
14477.1,1049.0,0.6391,-0.0224
14528.2,1051.5,0.6387,-0.0098
14579.7,1054.0,0.6369,-0.0117
14631.1,1056.5,0.6384,-0.0045
14681.8,1059.0,0.6371,-0.0055
14732.5,1061.5,0.6365,0.0008
14783.4,1064.0,0.6354,-0.0113
14834.1,1066.5,0.6346,-0.0004
14885.5,1069.0,0.636,-0.0053
14916.1,1070.5,0.635,-0.0042

File: FSRI_STA_N2_30K_R3.csv
Time (s),Temperature (K),Mass (mg),Heat Flow Rate (W/g)
0.0,325.5,3.9683,0.0327
24.463,328.0,3.9718,0.1405
37.8791,330.5,3.9713,0.2148
48.3832,333.0,3.9717,0.2749
57.4279,335.5,3.9729,0.3259
65.6461,338.0,3.9726,0.3661
73.2531,340.5,3.9718,0.4014
80.4569,343.0,3.9705,0.4371
87.3315,345.5,3.9715,0.4671
93.9609,348.0,3.9721,0.4924
100.445,350.5,3.9706,0.5185
106.719,353.0,3.9714,0.5442
112.866,355.5,3.97,0.5637
118.899,358.0,3.971,0.5839
124.836,360.5,3.9691,0.6066
130.646,363.0,3.9695,0.6251
136.378,365.5,3.9692,0.6418
142.051,368.0,3.9668,0.6605
147.635,370.5,3.9673,0.6757
153.156,373.0,3.9654,0.6917
158.656,375.5,3.9649,0.7035
164.085,378.0,3.9669,0.7135
169.474,380.5,3.9657,0.7239
174.858,383.0,3.9655,0.7325
180.174,385.5,3.9642,0.7356
185.464,388.0,3.9634,0.7413
190.749,390.5,3.9641,0.7425
195.981,393.0,3.9642,0.745
201.179,395.5,3.9644,0.7489
206.347,398.0,3.9654,0.7499
211.493,400.5,3.9627,0.7482
216.582,403.0,3.9613,0.7522
221.638,405.5,3.9613,0.7566
226.678,408.0,3.9613,0.7607
231.678,410.5,3.9612,0.7653
236.639,413.0,3.9599,0.7704
241.584,415.5,3.9612,0.7789
246.514,418.0,3.9599,0.7861
251.404,420.5,3.9606,0.7928
256.281,423.0,3.9599,0.8017
261.127,425.5,3.9599,0.8125
265.96,428.0,3.9598,0.8179
270.763,430.5,3.9593,0.8277
275.564,433.0,3.9592,0.8355
280.354,435.5,3.9584,0.8432
285.124,438.0,3.9593,0.8515
289.875,440.5,3.9579,0.8618
294.627,443.0,3.9579,0.8727
299.339,445.5,3.9575,0.8814
304.067,448.0,3.9566,0.8928
308.756,450.5,3.9566,0.9032
313.438,453.0,3.957,0.9121
318.102,455.5,3.9569,0.9232
322.73,458.0,3.9568,0.9324
327.36,460.5,3.9557,0.9426
331.95,463.0,3.9566,0.9522
336.544,465.5,3.9567,0.9637
341.146,468.0,3.9553,0.9747
345.732,470.5,3.9549,0.9861
350.301,473.0,3.9533,0.996
354.83,475.5,3.9527,1.0089
359.392,478.0,3.9501,1.0206
363.95,480.5,3.9476,1.0313
368.498,483.0,3.9461,1.0438
373.031,485.5,3.9446,1.0487
377.558,488.0,3.9437,1.0623
382.077,490.5,3.9408,1.0713
386.602,493.0,3.9382,1.083
391.097,495.5,3.9353,1.0879
395.605,498.0,3.9319,1.0992
400.112,500.5,3.9289,1.1122
404.604,503.0,3.9263,1.1183
409.094,505.5,3.9215,1.1288
413.587,508.0,3.9162,1.137
418.069,510.5,3.9135,1.1438
422.552,513.0,3.9071,1.1527
427.018,515.5,3.9017,1.1529
431.5,518.0,3.8964,1.1606
435.963,520.5,3.8917,1.1648
440.41,523.0,3.8881,1.1671
444.9,525.5,3.8834,1.1739
449.36,528.0,3.8783,1.1763
453.813,530.5,3.8727,1.1764
458.276,533.0,3.8665,1.1797
462.726,535.5,3.8581,1.1817
467.179,538.0,3.8499,1.1812
471.621,540.5,3.8409,1.1822
476.038,543.0,3.8338,1.1806
480.495,545.5,3.826,1.1801
484.981,548.0,3.8158,1.1782
489.429,550.5,3.8053,1.173
493.871,553.0,3.7949,1.1719
498.325,555.5,3.7832,1.1712
502.766,558.0,3.7712,1.1686
507.212,560.5,3.7579,1.1664
511.682,563.0,3.744,1.1639
516.124,565.5,3.727,1.1629
520.575,568.0,3.711,1.159
525.037,570.5,3.694,1.1614
529.497,573.0,3.6773,1.159
533.947,575.5,3.6585,1.1588
538.408,578.0,3.6383,1.1591
542.869,580.5,3.6157,1.1572
547.334,583.0,3.5947,1.1591
551.79,585.5,3.5712,1.1635
556.244,588.0,3.5456,1.1676
560.719,590.5,3.518,1.1757
565.19,593.0,3.4879,1.1873
569.668,595.5,3.4562,1.1958
574.135,598.0,3.4229,1.2082
578.616,600.5,3.3886,1.2219
583.096,603.0,3.3501,1.2331
587.577,605.5,3.3122,1.2488
592.069,608.0,3.2709,1.2646
596.544,610.5,3.2255,1.2845
601.067,613.0,3.1784,1.3001
605.559,615.5,3.1292,1.3209
610.059,618.0,3.0764,1.34
614.568,620.5,3.0248,1.36
619.075,623.0,2.9719,1.3701
623.584,625.5,2.9149,1.384
628.096,628.0,2.8575,1.3959
632.623,630.5,2.7973,1.4148
637.152,633.0,2.736,1.431
641.689,635.5,2.6733,1.4525
646.239,638.0,2.6083,1.4832
650.789,640.5,2.5425,1.5152
655.358,643.0,2.475,1.5601
659.934,645.5,2.4059,1.6092
664.526,648.0,2.3334,1.6694
669.138,650.5,2.2562,1.7393
673.745,653.0,2.1763,1.8115
678.377,655.5,2.0938,1.8853
683.001,658.0,2.0075,1.9507
687.629,660.5,1.9163,2.0047
692.234,663.0,1.8231,2.0336
696.822,665.5,1.7298,2.0197
701.36,668.0,1.6381,1.9518
705.884,670.5,1.5517,1.8243
710.361,673.0,1.4726,1.627
714.795,675.5,1.4007,1.3774
719.209,678.0,1.3407,1.0937
723.628,680.5,1.2916,0.8036
728.058,683.0,1.2538,0.5454
732.514,685.5,1.2263,0.3293
737.032,688.0,1.2085,0.172
741.58,690.5,1.1939,0.0787
746.172,693.0,1.1835,0.0227
750.777,695.5,1.1741,-0.0173
755.384,698.0,1.165,-0.0506
760.006,700.5,1.1572,-0.065
764.634,703.0,1.1476,-0.088
769.278,705.5,1.142,-0.1027
773.912,708.0,1.1347,-0.1193
778.557,710.5,1.1272,-0.1382
783.202,713.0,1.1204,-0.1508
787.854,715.5,1.1111,-0.1642
792.505,718.0,1.107,-0.1784
797.159,720.5,1.1014,-0.1856
801.822,723.0,1.0955,-0.1921
806.482,725.5,1.089,-0.1996
811.159,728.0,1.0827,-0.1941
815.838,730.5,1.0783,-0.1973
820.522,733.0,1.0742,-0.1897
825.212,735.5,1.0667,-0.1823
829.903,738.0,1.0618,-0.1702
834.601,740.5,1.0538,-0.1567
839.317,743.0,1.0464,-0.1374
844.035,745.5,1.0406,-0.1216
848.746,748.0,1.0354,-0.0977
853.473,750.5,1.0325,-0.0819
858.182,753.0,1.0301,-0.0631
862.885,755.5,1.0233,-0.0384
867.646,758.0,1.0184,-0.0245
872.388,760.5,1.0164,-0.0089
877.127,763.0,1.0113,0.0014
881.871,765.5,1.0063,0.0211
886.615,768.0,1.0033,0.0318
891.36,770.5,0.9992,0.0449
896.091,773.0,0.995,0.0556
900.851,775.5,0.993,0.0629
905.627,778.0,0.9907,0.0617
910.386,780.5,0.988,0.0659
915.145,783.0,0.9847,0.0696
919.915,785.5,0.9825,0.076
924.67,788.0,0.9822,0.0797
929.448,790.5,0.9789,0.0832
934.227,793.0,0.9734,0.0887
939.007,795.5,0.9721,0.0875
943.77,798.0,0.9729,0.095
948.565,800.5,0.9666,0.0911
953.346,803.0,0.9626,0.0961
958.135,805.5,0.9608,0.0986
962.92,808.0,0.958,0.1024
967.713,810.5,0.9553,0.1028
972.477,813.0,0.9538,0.1036
977.286,815.5,0.9535,0.1054
982.094,818.0,0.9513,0.1017
986.885,820.5,0.9473,0.1048
991.672,823.0,0.9453,0.1059
996.478,825.5,0.9432,0.0999
1001.29,828.0,0.9447,0.1033
1006.11,830.5,0.9418,0.1034
1010.91,833.0,0.9371,0.1058
1015.73,835.5,0.9357,0.1034
1020.54,838.0,0.9314,0.1031
1025.36,840.5,0.9288,0.1032
1030.18,843.0,0.9275,0.0972
1034.99,845.5,0.9245,0.0956
1039.8,848.0,0.9231,0.0981
1044.62,850.5,0.9218,0.0952
1049.44,853.0,0.9214,0.0914
1054.26,855.5,0.9201,0.0929
1059.09,858.0,0.9188,0.0918
1063.92,860.5,0.9162,0.089
1068.74,863.0,0.9162,0.0907
1073.58,865.5,0.9149,0.0908
1078.42,868.0,0.9122,0.0911
1083.23,870.5,0.9095,0.0878
1088.09,873.0,0.9085,0.0889
1092.93,875.5,0.9071,0.0871
1097.76,878.0,0.9045,0.0869
1102.62,880.5,0.9014,0.0824
1107.45,883.0,0.8988,0.0816
1112.32,885.5,0.8985,0.0773
1117.17,888.0,0.8963,0.0721
1122.03,890.5,0.8946,0.0667
1126.89,893.0,0.8923,0.0664
1131.76,895.5,0.8923,0.0652
1136.62,898.0,0.8909,0.0612
1141.48,900.5,0.8896,0.0576
1146.35,903.0,0.8889,0.0554
1151.22,905.5,0.8866,0.0537
1156.1,908.0,0.884,0.0547
1160.98,910.5,0.8826,0.0549
1165.86,913.0,0.8812,0.0466
1170.75,915.5,0.8798,0.0427
1175.64,918.0,0.8789,0.0453
1180.53,920.5,0.8788,0.0391
1185.42,923.0,0.8776,0.0353
1190.31,925.5,0.8768,0.025
1195.2,928.0,0.8746,0.0222
1200.09,930.5,0.8733,0.016
1204.98,933.0,0.8719,0.0081
1209.88,935.5,0.8706,0.0031
1214.79,938.0,0.8696,-0.0009
1219.72,940.5,0.871,-0.0138
1224.64,943.0,0.8683,-0.009
1229.55,945.5,0.867,-0.0189
1234.47,948.0,0.867,-0.0212
1239.39,950.5,0.8657,-0.0282
1244.31,953.0,0.8644,-0.0377
1249.23,955.5,0.8628,-0.0395
1254.16,958.0,0.8604,-0.0454
1259.07,960.5,0.8591,-0.0522
1264,963.0,0.8597,-0.0643
1268.94,965.5,0.8591,-0.0697
1273.86,968.0,0.8584,-0.0659
1278.81,970.5,0.8571,-0.0736
1283.75,973.0,0.8558,-0.0821
1288.69,975.5,0.8546,-0.0898
1293.62,978.0,0.8538,-0.0988
1298.6,980.5,0.8525,-0.1031
1303.55,983.0,0.8525,-0.1143
1308.51,985.5,0.8538,-0.1252
1313.46,988.0,0.8525,-0.1286
1318.43,990.5,0.8525,-0.1326
1323.39,993.0,0.8512,-0.144
1328.35,995.5,0.8504,-0.1474
1333.32,998.0,0.8499,-0.1529
1338.27,1000.5,0.8482,-0.1599
1343.24,1003.0,0.8469,-0.1701
1348.2,1005.5,0.8456,-0.1802
1353.17,1008.0,0.8469,-0.1839
1358.14,1010.5,0.8442,-0.1965
1363.1,1013.0,0.8441,-0.2027
1368.08,1015.5,0.8442,-0.211
1373.04,1018.0,0.843,-0.2123
1378.01,1020.5,0.8442,-0.2141
1383.01,1023.0,0.8436,-0.2174
1387.97,1025.5,0.8421,-0.2284
1392.95,1028.0,0.8428,-0.2297
1397.94,1030.5,0.8415,-0.2348
1402.93,1033.0,0.8418,-0.2391
1407.91,1035.5,0.8413,-0.2426
1412.89,1038.0,0.839,-0.253
1417.87,1040.5,0.8389,-0.2466
1422.85,1043.0,0.8389,-0.2524
1427.85,1045.5,0.839,-0.2503
1432.83,1048.0,0.838,-0.2547
1437.83,1050.5,0.8376,-0.2555
1442.82,1053.0,0.8363,-0.259
1447.81,1055.5,0.8349,-0.2619
1452.8,1058.0,0.8336,-0.2678
1457.81,1060.5,0.8336,-0.2715
1462.8,1063.0,0.8336,-0.2689
1465.87,1064.5,0.8336,-0.273

File: FSRI_TGA_N2_3K_R1.csv
Time (s),Temperature (K),Mass (mg)
0,323.5,3.969
95.2674,326.0,3.971
159.5166,328.5,3.972
217.5024,331.0,3.971
272.0526,333.5,3.972
324.7362,336.0,3.973
376.2594,338.5,3.972
426.9756,341.0,3.971
477.0168,343.5,3.971
526.7058,346.0,3.971
576.471,348.5,3.970
625.9398,351.0,3.971
675.3078,353.5,3.971
724.5324,356.0,3.969
773.8308,358.5,3.969
822.8946,361.0,3.969
871.9248,363.5,3.969
920.4486,366.0,3.968
969.5946,368.5,3.967
1018.63,371.0,3.966
1067.51,373.5,3.966
1116.561,376.0,3.966
1165.24,378.5,3.964
1214.04,381.0,3.966
1263.147,383.5,3.964
1312.2,386.0,3.963
1360.81,388.5,3.964
1409.499,391.0,3.964
1458.264,393.5,3.964
1507.05,396.0,3.965
1555.59,398.5,3.963
1604.02,401.0,3.961
1652.45,403.5,3.961
1701.04,406.0,3.961
1749.69,408.5,3.960
1798.23,411.0,3.961
1846.71,413.5,3.961
1895.21,416.0,3.960
1943.586,418.5,3.961
1992.09,421.0,3.960
2040.52,423.5,3.960
2088.93,426.0,3.960
2137.3,428.5,3.959
2185.722,431.0,3.959
2234.2,433.5,3.958
2282.64,436.0,3.959
2331.22,438.5,3.958
2379.825,441.0,3.958
2428.341,443.5,3.958
2476.87,446.0,3.957
2525.52,448.5,3.957
2574.17,451.0,3.957
2622.64,453.5,3.957
2670.972,456.0,3.957
2719.431,458.5,3.956
2767.93,461.0,3.957
2816.34,463.5,3.957
2864.53,466.0,3.955
2913.02,468.5,3.955
2961.56,471.0,3.954
3009.93,473.5,3.953
3058.37,476.0,3.951
3106.79,478.5,3.949
3155.16,481.0,3.947
3203.56,483.5,3.945
3252,486.0,3.945
3300.49,488.5,3.941
3349.122,491.0,3.938
3397.74,493.5,3.935
3446.25,496.0,3.932
3494.82,498.5,3.930
3543.29,501.0,3.927
3591.87,503.5,3.923
3640.26,506.0,3.918
3688.65,508.5,3.913
3737.2,511.0,3.908
3785.98,513.5,3.902
3834.65,516.0,3.898
3883.2,518.5,3.893
3931.86,521.0,3.888
3980.49,523.5,3.884
4029.28,526.0,3.879
4077.84,528.5,3.873
4126.42,531.0,3.867
4175,533.5,3.860
4223.53,536.0,3.852
4272.09,538.5,3.842
4320.819,541.0,3.835
4369.43,543.5,3.827
4418.07,546.0,3.817
4466.946,548.5,3.807
4515.83,551.0,3.796
4564.81,553.5,3.785
4613.78,556.0,3.773
4662.59,558.5,3.760
4711.27,561.0,3.746
4760.03,563.5,3.729
4808.76,566.0,3.713
4857.61,568.5,3.696
4906.43,571.0,3.680
4955.45,573.5,3.661
5004.25,576.0,3.642
5053.01,578.5,3.620
5101.93,581.0,3.598
5150.85,583.5,3.575
5199.84,586.0,3.549
5248.73,588.5,3.522
5297.75,591.0,3.493
5346.51,593.5,3.462
5395.58,596.0,3.430
5444.82,598.5,3.395
5494.1,601.0,3.356
5543.29,603.5,3.317
5592.35,606.0,3.277
5641.4,608.5,3.232
5690.58,611.0,3.185
5739.96,613.5,3.138
5789.469,616.0,3.086
5838.89,618.5,3.034
5888.05,621.0,2.981
5937.201,623.5,2.923
5986.35,626.0,2.865
6035.44,628.5,2.805
6084.25,631.0,2.745
6132.99,633.5,2.684
6181.75,636.0,2.620
6230.69,638.5,2.554
6279.85,641.0,2.487
6328.97,643.5,2.417
6378.37,646.0,2.344
6427.85,648.5,2.268
6477.46,651.0,2.187
6526.91,653.5,2.105
6576.366,656.0,2.019
6625.81,658.5,1.929
6675.36,661.0,1.838
6725.09,663.5,1.746
6774.807,666.0,1.655
6824.31,668.5,1.567
6873.91,671.0,1.485
6923.568,673.5,1.411
6973.31,676.0,1.348
7023.02,678.5,1.298
7072.74,681.0,1.260
7122.3,683.5,1.231
7172.26,686.0,1.212
7222.03,688.5,1.196
7271.595,691.0,1.185
7321.09,693.5,1.177
7370.75,696.0,1.167
7420.632,698.5,1.159
7470.3,701.0,1.150
7520.03,703.5,1.142
7569.91,706.0,1.136
7619.88,708.5,1.128
7669.63,711.0,1.122
7719.504,713.5,1.112
7769.34,716.0,1.108
7819.45,718.5,1.103
7869.35,721.0,1.096
7919.23,723.5,1.090
7969.29,726.0,1.084
8019.18,728.5,1.078
8069.12,731.0,1.075
8119.11,733.5,1.068
8168.99,736.0,1.063
8218.803,738.5,1.055
8268.834,741.0,1.048
8318.83,743.5,1.042
8368.68,746.0,1.037
8418.51,748.5,1.032
8468.44,751.0,1.031
8518.47,753.5,1.025
8568.57,756.0,1.018
8618.76,758.5,1.016
8668.65,761.0,1.012
8718.81,763.5,1.006
8769.15,766.0,1.003
8819.46,768.5,1.000
8869.76,771.0,0.996
8920.36,773.5,0.993
8970.78,776.0,0.992
9020.89,778.5,0.988
9070.87,781.0,0.985
9120.81,783.5,0.982
9170.73,786.0,0.982
9220.93,788.5,0.979
9271.16,791.0,0.975
9321.384,793.5,0.972
9371.44,796.0,0.973
9421.68,798.5,0.968
9471.939,801.0,0.964
9522.087,803.5,0.961
9572.34,806.0,0.958
9622.548,808.5,0.955
9672.825,811.0,0.954
9723.2,813.5,0.954
9773.41,816.0,0.951
9823.59,818.5,0.948
9874.04,821.0,0.946
9924.393,823.5,0.944
9974.65,826.0,0.945
10025.2,828.5,0.942
10075.9,831.0,0.938
10126.4,833.5,0.936
10176.903,836.0,0.932
10227.1,838.5,0.930
10277.112,841.0,0.929
10327.4,843.5,0.926
10377.9,846.0,0.923
10428.8,848.5,0.922
10479.1,851.0,0.922
10529.517,853.5,0.920
10579.9,856.0,0.919
10630.4,858.5,0.916
10680.834,861.0,0.916
10731.1,863.5,0.915
10781.697,866.0,0.912
10832.2,868.5,0.909
10882.8,871.0,0.909
10933.2,873.5,0.907
10983.6,876.0,0.905
11034.1,878.5,0.902
11084.7,881.0,0.899
11135.1,883.5,0.899
11185.533,886.0,0.897
11236.203,888.5,0.895
11287,891.0,0.892
11337.8,893.5,0.892
11388.5,896.0,0.891
11439.2,898.5,0.890
11490,901.0,0.889
11540.7,903.5,0.886
11591.6,906.0,0.885
11642.3,908.5,0.884
11692.7,911.0,0.881
11743.9,913.5,0.880
11794.683,916.0,0.879
11845.5,918.5,0.879
11895.7,921.0,0.879
11946.675,923.5,0.877
11997.9,926.0,0.875
12048.9,928.5,0.873
12099.9,931.0,0.872
12150.4,933.5,0.871
12201,936.0,0.870
12251.5,938.5,0.871
12302.4,941.0,0.870
12353.4,943.5,0.867
12404.3,946.0,0.867
12455.229,948.5,0.866
12505.812,951.0,0.864
12556.719,953.5,0.863
12607.7,956.0,0.860
12658.8,958.5,0.859
12709.4,961.0,0.860
12759.9,963.5,0.860
12810.7,966.0,0.858
12861.7,968.5,0.857
12912.5,971.0,0.856
12963.153,973.5,0.856
13013.9,976.0,0.854
13065,978.5,0.853
13116.2,981.0,0.852
13167,983.5,0.853
13217.9,986.0,0.853
13269.1,988.5,0.853
13320.132,991.0,0.851
13371.2,993.5,0.851
13422.1,996.0,0.850
13472.952,998.5,0.848
13523.7,1001.0,0.847
13574.2,1003.5,0.846
13625.415,1006.0,0.847
13676.7,1008.5,0.844
13728,1011.0,0.844
13779.207,1013.5,0.844
13830,1016.0,0.843
13881.147,1018.5,0.844
13932.309,1021.0,0.845
13983.1,1023.5,0.843
14033.9,1026.0,0.843
14084.8,1028.5,0.842
14135.904,1031.0,0.843
14186.763,1033.5,0.842
14237.622,1036.0,0.840
14288.6,1038.5,0.839
14340.1,1041.0,0.839
14391.2,1043.5,0.839
14442.1,1046.0,0.839
14492.1,1048.5,0.838
14543,1051.0,0.836
14594.5,1053.5,0.835
14646.1,1056.0,0.834
14696.7,1058.5,0.834
14747.4,1061.0,0.834
14767.8,1062.0,0.834