Folder: matl-db/Wood/Calibration_Data/FSRI (part 9)

File: FSRI_Wood_Perpendicular_Cone_25kW_hor_R2.csv
Time,Mass (g),HRRPUA (kW/m2)
0.0,94.03,5.1
8.0,94.25,5.5
16.0,94.17,4.4
24.0,94.05,2.9
32.0,93.95,2.2
40.0,93.78,1.9
48.0,93.67,1.9
56.0,93.66,4.4
64.0,93.56,4.1
72.0,93.44,-0.2
80.0,93.27,0.1
88.0,93.23,0.7
96.0,93.11,0.4
104.0,92.99,2.1
112.0,92.6,4.2
120.0,91.94,18.5
128.0,91.23,90.1
136.0,90.5,145.2
144.0,89.84,152.2
152.0,89.16,141.5
160.0,88.61,127.5
168.0,88.07,118.8
176.0,87.55,111.9
184.0,87.05,102.7
192.0,86.51,95.3
200.0,86.12,90.9
208.0,85.68,84.7
216.0,85.27,79.7
224.0,84.79,76.4
232.0,84.48,72.4
240.0,84.04,70.8
248.0,83.67,69.6
256.0,83.3,66.6
264.0,82.85,64.6
272.0,82.53,63.2
280.0,82.17,61.8
288.0,81.82,59.2
296.0,81.38,57.6
304.0,81.05,56.4
312.0,80.7,55.5
320.0,80.36,54.1
328.0,80.02,53.9
336.0,79.53,54.2
344.0,79.27,52.0
352.0,78.9,51.3
360.0,78.57,48.8
368.0,78.22,47.4
376.0,77.76,47.7
384.0,77.5,49.1
392.0,77.15,45.9
400.0,76.83,46.2
408.0,76.49,45.4
416.0,76.1,44.5
424.0,75.84,44.1
432.0,75.53,42.9
440.0,75.18,42.0
448.0,74.78,43.6
456.0,74.55,42.3
464.0,74.24,41.6
472.0,73.9,39.7
480.0,73.55,40.1
488.0,73.25,38.3
496.0,72.97,38.9
504.0,72.67,36.2
512.0,72.38,37.0
520.0,72.01,37.0
528.0,71.78,37.3
536.0,71.49,36.0
544.0,71.18,34.4
552.0,70.88,32.9
560.0,70.49,31.8
568.0,70.29,32.1
576.0,70.02,33.1
584.0,69.72,31.4
592.0,69.36,30.7
600.0,69.14,31.7
608.0,68.88,29.5
616.0,68.59,28.6
624.0,68.25,23.4
632.0,68.02,19.9
640.0,67.76,20.2
648.0,67.51,20.0
656.0,67.23,21.0
664.0,66.9,22.9
672.0,66.61,23.5
680.0,66.41,22.2
688.0,66.16,22.2
696.0,65.89,21.8
704.0,65.61,22.3
712.0,65.35,23.1
720.0,65.1,22.6
728.0,64.84,22.2
736.0,64.61,20.9
744.0,64.28,20.5
752.0,64.11,21.7
760.0,63.87,22.3
768.0,63.62,23.3
776.0,63.37,22.3
784.0,63.04,22.6
792.0,62.91,22.6
800.0,62.67,21.6
808.0,62.43,21.3
816.0,62.18,19.5
824.0,61.88,19.0
832.0,61.74,18.9
840.0,61.49,19.1
848.0,61.25,19.7
856.0,60.95,20.1
864.0,60.79,21.8
872.0,60.56,20.9
880.0,60.34,18.8
888.0,60.11,21.1
896.0,59.78,21.5
904.0,59.65,23.1
912.0,59.41,23.0
920.0,59.2,22.5
928.0,58.87,22.7
936.0,58.68,21.9
944.0,58.48,21.7
952.0,58.23,21.9
960.0,57.96,21.3
968.0,57.71,21.2
976.0,57.55,22.5
984.0,57.31,23.2
992.0,57.07,23.0
1000.0,56.74,21.0
1008.0,56.55,21.3
1016.0,56.34,23.9
1024.0,56.07,30.8
1032.0,55.79,31.9
1040.0,55.48,34.0
1048.0,55.29,36.3
1056.0,54.98,36.3
1064.0,54.76,36.7
1072.0,54.45,39.1
1080.0,54.19,41.5
1088.0,53.91,43.3
1096.0,53.62,44.5
1104.0,53.31,45.5
1112.0,52.93,45.8
1120.0,52.74,45.4
1128.0,52.43,48.9
1136.0,52.13,50.1
1144.0,51.79,51.9
1152.0,51.43,52.5
1160.0,51.14,51.8
1168.0,50.85,53.6
1176.0,50.51,52.6
1184.0,50.15,54.1
1192.0,49.83,56.1
1200.0,49.47,58.4
1208.0,49.13,62.1
1216.0,48.79,61.3
1224.0,48.45,63.3
1232.0,48.02,71.3
1240.0,47.7,71.8
1248.0,47.33,68.8
1256.0,46.95,66.2
1264.0,46.48,68.8
1272.0,46.15,70.3
1280.0,45.8,72.7
1288.0,45.39,73.8
1296.0,44.96,73.5
1304.0,44.45,75.6
1312.0,44.09,75.1
1320.0,43.68,78.6
1328.0,43.31,77.1
1336.0,42.74,77.5
1344.0,42.4,79.7
1352.0,41.88,81.0
1360.0,41.48,84.9
1368.0,41.04,86.0
1376.0,40.53,87.0
1384.0,40.09,88.5
1392.0,39.63,87.4
1400.0,39.16,90.0
1408.0,38.66,90.7
1416.0,38.19,89.4
1424.0,37.73,90.9
1432.0,37.28,94.6
1440.0,36.78,92.2
1448.0,36.24,95.0
1456.0,35.85,94.4
1464.0,35.41,95.2
1472.0,34.87,94.5
1480.0,34.42,94.2
1488.0,33.86,95.5
1496.0,33.46,96.1
1504.0,33.04,94.5
1512.0,32.56,94.9
1520.0,32.1,97.5
1528.0,31.64,94.6
1536.0,31.26,91.8
1544.0,30.85,91.5
1552.0,30.44,91.5
1560.0,29.98,88.7
1568.0,29.57,84.8
1576.0,29.25,83.4
1584.0,28.91,88.0
1592.0,28.54,84.7
1600.0,28.08,79.0
1608.0,27.83,77.0
1616.0,27.48,71.8
1624.0,27.14,72.5
1632.0,26.81,69.2
1640.0,26.47,69.2
1648.0,26.21,67.7
1656.0,25.94,67.5
1664.0,25.65,64.8
1672.0,25.34,61.6
1680.0,25.1,60.1
1688.0,24.9,57.8
1696.0,24.65,58.6
1704.0,24.4,55.1
1712.0,24.11,50.9
1720.0,23.97,47.9
1728.0,23.78,43.6
1736.0,23.6,42.4
1744.0,23.42,40.9
1752.0,23.15,38.5
1760.0,23.07,38.0
1768.0,22.9,35.4
1776.0,22.72,32.7
1784.0,22.6,31.5
1792.0,22.37,31.1
1800.0,22.32,30.2
1808.0,22.18,28.5
1816.0,22.05,28.1
1824.0,21.95,26.8
1832.0,21.75,27.0
1840.0,21.71,27.2
1848.0,21.58,27.3
1856.0,21.44,26.2
1864.0,21.28,25.5
1872.0,21.2,25.9
1880.0,21.18,26.5
1888.0,21.05,26.7
1896.0,20.97,25.6
1904.0,20.79,27.6
1912.0,20.76,27.1
1920.0,20.67,27.1
1928.0,20.59,26.4
1936.0,20.48,24.6
1944.0,20.39,23.4
1952.0,20.31,22.1
1960.0,20.23,21.7
1968.0,20.15,21.4
1976.0,20.01,22.8
1984.0,20.01,22.1
1992.0,19.91,22.3
2000.0,19.84,22.5
2008.0,19.77,22.2
2016.0,19.64,23.3
2024.0,19.63,25.7
2032.0,19.54,21.7
2040.0,19.46,20.1
2048.0,19.32,19.8
2056.0,19.31,19.7
2064.0,19.26,19.5
2072.0,19.18,18.5
2080.0,19.1,19.6
2088.0,18.96,19.6
2096.0,18.99,19.6
2104.0,18.92,18.0
2112.0,18.85,17.2
2120.0,18.77,17.6
2121.0,18.75,17.5

File: FSRI_Wood_Perpendicular_Cone_25kW_hor_R3.csv
Time,Mass (g),HRRPUA (kW/m2)
0.0,103.1,5.4
7.0,103.01,8.3
14.0,102.87,4.8
21.0,102.74,3.2
28.0,102.7,3.1
35.0,102.59,1.4
42.0,102.49,3.4
49.0,102.39,3.8
56.0,102.24,3.6
63.0,102.17,6.4
70.0,102.12,10.3
77.0,102.03,11.9
84.0,101.94,9.7
91.0,101.84,12.5
98.0,101.65,13.6
105.0,101.62,15.1
112.0,101.52,16.5
119.0,101.4,14.9
126.0,101.27,11.6
133.0,101.1,8.6
140.0,100.64,9.1
147.0,99.9,20.8
154.0,99.19,119.7
161.0,98.48,174.2
168.0,97.79,176.5
175.0,97.06,162.8
182.0,96.52,151.4
189.0,95.97,141.6
196.0,95.42,130.6
203.0,94.93,121.8
210.0,94.38,112.1
217.0,93.91,101.3
224.0,93.57,98.0
231.0,93.14,96.1
238.0,92.72,92.6
245.0,92.32,87.2
252.0,91.86,80.3
259.0,91.5,76.9
266.0,91.17,75.0
273.0,90.8,74.6
280.0,90.43,72.2
287.0,90.06,71.8
294.0,89.62,69.4
301.0,89.27,68.4
308.0,88.98,66.1
315.0,88.63,61.9
322.0,88.28,61.3
329.0,87.92,59.7
336.0,87.48,60.9
343.0,87.14,60.4
350.0,86.86,60.4
357.0,86.51,61.4
364.0,86.17,65.8
371.0,85.77,63.6
378.0,85.37,58.6
385.0,85.12,53.2
392.0,84.8,51.6
399.0,84.47,50.1
406.0,84.14,49.1
413.0,83.77,49.5
420.0,83.39,48.9
427.0,83.08,48.2
434.0,82.85,46.6
441.0,82.54,47.1
448.0,82.21,47.3
455.0,81.88,47.1
462.0,81.53,47.4
469.0,81.22,46.2
476.0,80.96,44.8
483.0,80.67,44.6
490.0,80.36,44.7
497.0,80.04,43.2
504.0,79.66,46.4
511.0,79.45,46.1
518.0,79.14,44.6
525.0,78.86,42.4
532.0,78.55,40.0
539.0,78.26,39.7
546.0,77.88,38.4
553.0,77.61,40.6
560.0,77.4,40.5
567.0,77.11,39.7
574.0,76.81,38.0
581.0,76.55,37.9
588.0,76.18,37.8
595.0,75.97,37.0
602.0,75.7,36.1
609.0,75.41,34.3
616.0,75.14,31.2
623.0,74.85,30.9
630.0,74.51,29.8
637.0,74.28,30.8
644.0,74.06,30.4
651.0,73.8,31.3
658.0,73.52,33.7
665.0,73.26,33.0
672.0,72.91,33.0
679.0,72.73,34.3
686.0,72.47,34.2
693.0,72.2,32.6
700.0,71.97,33.6
707.0,71.65,34.4
714.0,71.39,35.6
721.0,71.18,34.3
728.0,70.95,32.4
735.0,70.7,32.1
742.0,70.45,31.1
749.0,70.17,31.1
756.0,69.88,31.2
763.0,69.71,32.2
770.0,69.48,31.4
777.0,69.24,30.6
784.0,68.99,29.5
791.0,68.66,29.4
798.0,68.47,30.4
805.0,68.28,30.7
812.0,68.04,34.0
819.0,67.82,34.2
826.0,67.53,29.3
833.0,67.24,27.9
840.0,67.11,26.8
847.0,66.89,27.4
854.0,66.66,27.0
861.0,66.42,25.5
868.0,66.16,29.5
875.0,65.87,31.8
882.0,65.71,31.0
889.0,65.48,29.8
896.0,65.25,29.4
903.0,65.0,29.0
910.0,64.69,31.0
917.0,64.45,32.0
924.0,64.28,31.8
931.0,64.07,31.5
938.0,63.82,32.7
945.0,63.56,34.5
952.0,63.32,36.8
959.0,62.99,38.2
966.0,62.82,40.7
973.0,62.59,39.7
980.0,62.32,39.2
987.0,62.06,40.9
994.0,61.79,41.7
1001.0,61.44,42.6
1008.0,61.27,44.6
1015.0,61.0,47.2
1022.0,60.71,45.9
1029.0,60.45,47.2
1036.0,60.1,48.2
1043.0,59.81,49.0
1050.0,59.59,51.2
1057.0,59.29,51.4
1064.0,59.0,52.7
1071.0,58.67,54.1
1078.0,58.38,55.7
1085.0,57.99,56.0
1092.0,57.74,58.6
1099.0,57.41,59.5
1106.0,57.11,60.0
1113.0,56.79,61.8
1120.0,56.36,65.7
1127.0,56.0,67.2
1134.0,55.75,66.2
1141.0,55.39,66.5
1148.0,55.05,69.1
1155.0,54.67,72.1
1162.0,54.28,72.3
1169.0,53.84,72.9
1176.0,53.54,75.2
1183.0,53.18,75.9
1190.0,52.8,79.7
1197.0,52.4,81.9
1204.0,51.99,81.7
1211.0,51.51,82.4
1218.0,51.2,82.5
1225.0,50.78,84.6
1232.0,50.36,85.0
1239.0,49.92,86.1
1246.0,49.39,88.4
1253.0,49.04,89.0
1260.0,48.64,88.6
1267.0,48.2,90.5
1274.0,47.75,91.7
1281.0,47.24,92.1
1288.0,46.71,89.3
1295.0,46.32,92.0
1302.0,45.85,93.8
1309.0,45.38,94.6
1316.0,44.87,95.6
1323.0,44.32,95.7
1330.0,43.88,95.2
1337.0,43.4,96.2
1344.0,42.86,99.0
1351.0,42.36,100.8
1358.0,41.85,101.6
1365.0,41.28,102.3
1372.0,40.82,105.6
1379.0,40.28,105.1
1386.0,39.75,106.7
1393.0,39.21,109.5
1400.0,38.65,110.2
1407.0,38.1,111.4
1414.0,37.65,109.7
1421.0,37.1,111.9
1428.0,36.58,112.3
1435.0,36.02,112.2
1442.0,35.5,109.5
1449.0,34.92,110.3
1456.0,34.47,109.6
1463.0,33.97,108.5
1470.0,33.45,111.0
1477.0,32.96,107.6
1484.0,32.4,110.6
1491.0,31.95,109.4
1498.0,31.48,111.3
1505.0,31.05,108.0
1512.0,30.57,107.0
1519.0,30.1,105.1
1526.0,29.6,102.1
1533.0,29.16,98.2
1540.0,28.83,98.2
1547.0,28.43,96.1
1554.0,28.04,95.1
1561.0,27.65,93.8
1568.0,27.25,90.3
1575.0,26.91,87.4
1582.0,26.58,85.5
1589.0,26.27,83.7
1596.0,25.98,81.2
1603.0,25.69,77.6
1610.0,25.35,73.0
1617.0,25.07,69.8
1624.0,24.88,65.4
1631.0,24.66,62.1
1638.0,24.42,59.2
1645.0,24.21,56.2
1652.0,23.94,52.4
1659.0,23.83,48.9
1666.0,23.66,47.7
1673.0,23.51,43.9
1680.0,23.33,41.5
1687.0,23.13,38.7
1694.0,22.97,36.7
1701.0,22.93,34.7
1708.0,22.79,31.6
1715.0,22.68,30.5
1722.0,22.55,27.5
1729.0,22.37,25.2
1736.0,22.3,24.6
1743.0,22.25,22.3
1750.0,22.17,20.9
1757.0,22.07,17.9
1764.0,21.98,16.5
1771.0,21.82,13.1
1778.0,21.8,12.2
1785.0,21.72,11.8
1792.0,21.63,11.9
1799.0,21.55,11.6
1806.0,21.45,12.6
1813.0,21.31,11.4
1820.0,21.29,8.8
1827.0,21.24,8.6
1834.0,21.15,8.6
1841.0,21.09,8.6
1848.0,21.01,9.2
1855.0,20.9,10.6
1862.0,20.88,10.8
1869.0,20.81,9.9
1876.0,20.76,9.7
1883.0,20.66,9.1
1890.0,20.53,11.3
1897.0,20.46,11.1
1904.0,20.46,10.4
1911.0,20.41,9.9
1918.0,20.35,9.3
1925.0,20.27,8.1
1932.0,20.12,8.8
1939.0,20.05,8.8
1940.0,20.04,8.9

File: FSRI_Wood_Perpendicular_Cone_50kW_hor_R1.csv
Time,Mass (g),HRRPUA (kW/m2)
0.0,100.94,0.1
5.0,100.78,1.7
10.0,100.69,6.9
15.0,100.53,16.6
20.0,100.41,16.8
25.0,100.11,17.0
30.0,99.54,14.2
35.0,98.81,31.4
40.0,98.09,120.0
45.0,97.26,202.9
50.0,96.6,231.0
55.0,95.98,243.0
60.0,95.42,232.3
65.0,94.86,222.0
70.0,94.28,213.6
75.0,93.72,198.9
80.0,93.19,182.1
85.0,92.61,174.0
90.0,92.17,172.2
95.0,91.68,160.4
100.0,91.26,160.8
105.0,90.88,156.9
110.0,90.44,145.0
115.0,89.99,143.5
120.0,89.61,141.1
125.0,89.17,141.2
130.0,88.69,134.6
135.0,88.34,131.5
140.0,87.97,133.1
145.0,87.61,129.0
150.0,87.27,120.3
155.0,86.9,120.2
160.0,86.52,118.9
165.0,86.11,112.6
170.0,85.74,109.2
175.0,85.38,103.7
180.0,85.01,102.1
185.0,84.68,102.3
190.0,84.35,101.7
195.0,84.0,99.6
200.0,83.65,94.8
205.0,83.28,96.4
210.0,82.88,92.1
215.0,82.53,91.2
220.0,82.19,89.8
225.0,81.9,86.6
230.0,81.56,88.1
235.0,81.24,88.0
240.0,80.88,85.5
245.0,80.54,84.5
250.0,80.09,83.1
255.0,79.76,82.1
260.0,79.45,82.6
265.0,79.1,81.7
270.0,78.85,81.4
275.0,78.54,79.8
280.0,78.22,78.7
285.0,77.87,80.1
290.0,77.53,77.6
295.0,77.2,77.8
300.0,76.88,77.6
305.0,76.63,76.1
310.0,76.32,74.7
315.0,76.02,75.2
320.0,75.7,73.3
325.0,75.37,72.9
330.0,75.01,73.4
335.0,74.74,72.6
340.0,74.45,72.6
345.0,74.23,72.3
350.0,73.92,73.1
355.0,73.58,71.6
360.0,73.3,71.2
365.0,72.94,70.7
370.0,72.64,70.0
375.0,72.37,70.2
380.0,72.11,68.9
385.0,71.85,68.8
390.0,71.55,69.0
395.0,71.26,70.6
400.0,70.99,68.2
405.0,70.65,68.6
410.0,70.39,68.8
415.0,70.08,69.5
420.0,69.87,68.1
425.0,69.59,67.7
430.0,69.33,68.2
435.0,69.08,68.2
440.0,68.69,67.8
445.0,68.42,68.5
450.0,68.12,69.0
455.0,67.89,69.1
460.0,67.69,70.0
465.0,67.41,70.2
470.0,67.12,69.4
475.0,66.87,69.1
480.0,66.53,68.6
485.0,66.26,70.1
490.0,65.99,70.0
495.0,65.75,69.2
500.0,65.55,67.4
505.0,65.26,68.0
510.0,65.0,68.9
515.0,64.74,69.8
520.0,64.46,70.1
525.0,64.14,71.2
530.0,63.86,72.0
535.0,63.62,71.7
540.0,63.42,72.1
545.0,63.16,72.9
550.0,62.88,74.1
555.0,62.68,72.2
560.0,62.26,72.6
565.0,61.99,74.4
570.0,61.74,75.4
575.0,61.5,73.6
580.0,61.27,76.5
585.0,60.99,75.1
590.0,60.71,76.2
595.0,60.47,75.7
600.0,60.15,77.6
605.0,59.9,76.6
610.0,59.61,76.4
615.0,59.4,76.2
620.0,59.13,78.6
625.0,58.86,78.9
630.0,58.57,78.9
635.0,58.28,79.9
640.0,57.97,80.1
645.0,57.67,80.6
650.0,57.46,80.4
655.0,57.23,83.5
660.0,56.99,82.4
665.0,56.7,86.2
670.0,56.36,86.3
675.0,56.04,85.9
680.0,55.73,87.9
685.0,55.44,89.6
690.0,55.18,90.4
695.0,54.9,91.3
700.0,54.6,92.1
705.0,54.27,93.6
710.0,53.91,93.6
715.0,53.57,95.0
720.0,53.25,96.3
725.0,52.94,97.9
730.0,52.67,100.9
735.0,52.35,102.5
740.0,52.0,105.2
745.0,51.64,104.9
750.0,51.33,108.1
755.0,50.91,108.1
760.0,50.55,110.8
765.0,50.18,112.5
770.0,49.91,113.5
775.0,49.54,115.4
780.0,49.19,114.7
785.0,48.81,117.8
790.0,48.36,122.8
795.0,47.96,125.2
800.0,47.55,124.0
805.0,47.23,124.8
810.0,46.8,129.3
815.0,46.45,127.0
820.0,46.05,129.7
825.0,45.61,129.6
830.0,45.14,131.9
835.0,44.71,134.4
840.0,44.33,133.1
845.0,43.96,136.9
850.0,43.52,137.2
855.0,43.1,139.1
860.0,42.66,139.5
865.0,42.21,139.6
870.0,41.73,141.2
875.0,41.27,141.6
880.0,40.9,143.3
885.0,40.45,145.3
890.0,40.0,147.3
895.0,39.59,149.7
900.0,39.08,148.8
905.0,38.64,151.4
910.0,38.17,149.4
915.0,37.71,149.7
920.0,37.28,150.7
925.0,36.82,152.0
930.0,36.39,151.8
935.0,35.93,153.4
940.0,35.46,154.6
945.0,34.99,152.1
950.0,34.5,154.9
955.0,34.01,155.0
960.0,33.57,154.6
965.0,33.18,155.2
970.0,32.74,154.3
975.0,32.28,159.2
980.0,31.83,157.2
985.0,31.41,156.3
990.0,30.97,153.9
995.0,30.48,154.1
1000.0,30.05,153.9
1005.0,29.67,151.4
1010.0,29.26,150.7
1015.0,28.83,149.8
1020.0,28.47,148.7
1025.0,28.07,145.3
1030.0,27.62,145.7
1035.0,27.25,141.2
1040.0,26.89,136.1
1045.0,26.57,134.9
1050.0,26.23,135.5
1055.0,25.86,130.5
1060.0,25.56,127.6
1065.0,25.18,125.0
1070.0,24.85,123.2
1075.0,24.54,122.9
1080.0,24.29,120.6
1085.0,24.05,119.2
1090.0,23.8,116.6
1095.0,23.53,111.1
1100.0,23.3,107.5
1105.0,22.96,105.1
1110.0,22.77,100.4
1115.0,22.53,98.5
1120.0,22.33,95.6
1125.0,22.24,91.4
1130.0,22.08,87.6
1135.0,21.97,84.7
1140.0,21.8,82.1
1145.0,21.61,79.9
1150.0,21.44,75.0
1155.0,21.32,72.4
1160.0,21.24,68.2
1165.0,21.21,64.7
1170.0,21.14,61.6
1175.0,21.04,59.3
1180.0,20.92,56.9
1185.0,20.81,54.8
1190.0,20.7,52.8
1195.0,20.65,49.9
1200.0,20.66,47.3
1205.0,20.64,46.5
1210.0,20.58,44.3
1215.0,20.51,44.3
1220.0,20.45,44.2
1225.0,20.32,44.1
1230.0,20.19,43.5
1235.0,20.12,42.5
1240.0,20.11,43.3
1245.0,20.12,46.0
1250.0,20.09,45.5
1255.0,20.05,44.5
1260.0,19.94,41.6
1265.0,19.81,40.8
1270.0,19.71,40.2
1275.0,19.69,38.9
1280.0,19.72,39.1
1285.0,19.7,39.4
1290.0,19.61,39.9
1295.0,19.57,39.3
1300.0,19.42,39.4
1305.0,19.34,38.7
1310.0,19.3,39.5
1315.0,19.22,39.8
1320.0,19.2,40.5
1325.0,19.21,39.8
1330.0,19.15,38.9
1335.0,19.11,37.3
1340.0,19.1,38.0
1345.0,18.95,36.3
1350.0,18.85,36.8
1354.0,18.8,39.0

File: FSRI_Wood_Perpendicular_Cone_50kW_hor_R2.csv
Time,Mass (g),HRRPUA (kW/m2)
0.0,104.65,-3.5
5.0,104.47,-2.2
10.0,104.38,5.3
15.0,104.28,7.1
20.0,104.15,7.7
25.0,103.96,11.7
30.0,103.43,10.5
35.0,102.72,13.4
40.0,101.98,81.2
45.0,101.28,166.0
50.0,100.56,215.1
55.0,99.94,233.8
60.0,99.31,242.3
65.0,98.69,238.0
70.0,98.15,225.5
75.0,97.52,210.4
80.0,96.94,194.9
85.0,96.4,185.7
90.0,95.97,177.6
95.0,95.51,172.9
100.0,95.06,163.0
105.0,94.59,155.2
110.0,94.16,150.9
115.0,93.69,147.7
120.0,93.22,143.1
125.0,92.83,138.4
130.0,92.4,134.6
135.0,92.07,131.6
140.0,91.68,127.4
145.0,91.26,123.0
150.0,90.92,122.3
155.0,90.49,119.9
160.0,90.04,117.8
165.0,89.61,116.0
170.0,89.24,113.8
175.0,88.92,108.8
180.0,88.57,110.9
185.0,88.25,109.0
190.0,87.79,106.3
195.0,87.44,108.9
200.0,86.94,105.9
205.0,86.6,104.9
210.0,86.19,102.7
215.0,86.01,102.1
220.0,85.62,100.3
225.0,85.17,103.0
230.0,84.78,101.3
235.0,84.45,99.3
240.0,84.03,96.3
245.0,83.69,94.8
250.0,83.29,94.0
255.0,82.98,93.4
260.0,82.69,91.9
265.0,82.34,91.3
270.0,81.97,90.0
275.0,81.53,88.0
280.0,81.16,86.5
285.0,80.84,85.6
290.0,80.51,85.3
295.0,80.23,85.9
300.0,79.88,86.3
305.0,79.55,82.9
310.0,79.22,83.0
315.0,78.9,83.5
320.0,78.5,82.6
325.0,78.17,82.0
330.0,77.85,82.3
335.0,77.57,82.1
340.0,77.26,81.6
345.0,76.96,80.5
350.0,76.64,80.6
355.0,76.29,81.6
360.0,75.87,81.1
365.0,75.57,80.1
370.0,75.32,77.7
375.0,75.08,79.1
380.0,74.77,80.7
385.0,74.48,78.8
390.0,74.17,78.1
395.0,73.79,77.5
400.0,73.49,78.0
405.0,73.2,78.9
410.0,72.92,77.4
415.0,72.69,79.3
420.0,72.4,77.3
425.0,72.08,78.1
430.0,71.78,78.2
435.0,71.46,77.0
440.0,71.09,76.8
445.0,70.87,77.1
450.0,70.61,77.5
455.0,70.32,76.1
460.0,70.01,79.6
465.0,69.74,78.2
470.0,69.46,78.5
475.0,69.09,80.4
480.0,68.8,79.7
485.0,68.5,80.8
490.0,68.19,80.8
495.0,68.01,80.6
500.0,67.7,80.0
505.0,67.4,80.5
510.0,67.15,80.9
515.0,66.8,80.6
520.0,66.47,81.8
525.0,66.18,80.6
530.0,65.91,81.0
535.0,65.69,81.6
540.0,65.42,82.7
545.0,65.13,81.4
550.0,64.86,80.5
555.0,64.5,80.2
560.0,64.22,80.2
565.0,63.93,80.7
570.0,63.71,80.4
575.0,63.43,82.4
580.0,63.2,84.3
585.0,62.9,85.7
590.0,62.58,85.9
595.0,62.24,84.8
600.0,62.0,85.3
605.0,61.7,86.9
610.0,61.5,86.3
615.0,61.21,84.6
620.0,60.94,87.0
625.0,60.7,87.5
630.0,60.37,85.9
635.0,60.09,86.6
640.0,59.8,85.3
645.0,59.54,87.5
650.0,59.33,90.4
655.0,59.04,88.6
660.0,58.74,88.2
665.0,58.48,90.8
670.0,58.18,91.8
675.0,57.83,92.9
680.0,57.62,93.2
685.0,57.25,93.0
690.0,57.04,93.1
695.0,56.74,95.3
700.0,56.42,97.4
705.0,56.09,99.2
710.0,55.8,100.2
715.0,55.45,104.1
720.0,55.13,105.4
725.0,54.83,108.9
730.0,54.56,110.5
735.0,54.2,111.8
740.0,53.87,113.2
745.0,53.51,112.9
750.0,53.08,115.0
755.0,52.74,114.3
760.0,52.39,115.0
765.0,52.04,117.9
770.0,51.68,116.6
775.0,51.32,122.4
780.0,50.93,123.3
785.0,50.55,123.6
790.0,50.1,126.3
795.0,49.7,127.3
800.0,49.29,131.2
805.0,48.94,132.7
810.0,48.52,135.9
815.0,48.12,135.4
820.0,47.71,135.3
825.0,47.3,138.8
830.0,46.83,141.9
835.0,46.4,141.9
840.0,45.95,142.4
845.0,45.59,145.6
850.0,45.14,145.8
855.0,44.72,146.3
860.0,44.25,147.8
865.0,43.79,147.1
870.0,43.31,149.3
875.0,42.87,149.4
880.0,42.39,152.8
885.0,41.96,154.3
890.0,41.59,157.4
895.0,41.13,154.2
900.0,40.69,152.8
905.0,40.23,154.5
910.0,39.75,154.5
915.0,39.26,156.9
920.0,38.82,154.2
925.0,38.38,155.9
930.0,37.97,156.4
935.0,37.52,156.6
940.0,37.08,158.7
945.0,36.62,155.2
950.0,36.2,153.6
955.0,35.73,153.2
960.0,35.26,154.3
965.0,34.88,151.0
970.0,34.41,152.7
975.0,34.05,149.1
980.0,33.61,147.9
985.0,33.21,152.8
990.0,32.77,148.3
995.0,32.32,145.9
1000.0,31.91,145.8
1005.0,31.51,143.4
1010.0,31.13,144.0
1015.0,30.79,140.5
1020.0,30.43,138.8
1025.0,30.02,139.0
1030.0,29.59,134.4
1035.0,29.22,134.2
1040.0,28.87,131.8
1045.0,28.58,129.8
1050.0,28.24,130.8
1055.0,27.9,130.3
1060.0,27.59,128.6
1065.0,27.22,129.2
1070.0,26.84,124.4
1075.0,26.53,122.6
1080.0,26.24,121.6
1085.0,25.93,118.0
1090.0,25.7,115.7
1095.0,25.43,114.3
1100.0,25.15,112.7
1105.0,24.84,111.1
1110.0,24.58,106.4
1115.0,24.27,105.8
1120.0,24.05,105.0
1125.0,23.79,101.3
1130.0,23.6,100.9
1135.0,23.38,98.4
1140.0,23.18,97.5
1145.0,22.94,94.9
1150.0,22.68,92.0
1155.0,22.47,88.8
1160.0,22.24,89.5
1165.0,22.15,86.0
1170.0,22.04,85.5
1175.0,21.88,82.7
1180.0,21.74,79.9
1185.0,21.59,74.4
1190.0,21.35,73.6
1195.0,21.22,71.6
1200.0,21.09,68.3
1205.0,21.06,67.1
1210.0,21.01,65.7
1215.0,20.9,62.6
1220.0,20.82,59.3
1225.0,20.75,56.6
1230.0,20.54,53.0
1235.0,20.5,50.9
1240.0,20.44,48.2
1245.0,20.46,49.6
1250.0,20.42,47.0
1255.0,20.34,47.1
1260.0,20.27,47.0
1265.0,20.13,46.4
1270.0,20.07,46.9
1275.0,19.98,46.2
1280.0,19.94,45.1
1285.0,19.99,45.5
1290.0,19.94,43.8
1295.0,19.9,42.4
1300.0,19.81,42.3
1305.0,19.69,41.4
1310.0,19.61,41.1
1315.0,19.56,42.1
1320.0,19.5,43.1
1325.0,19.58,43.2
1330.0,19.52,44.0
1335.0,19.47,44.0
1340.0,19.43,44.6
1345.0,19.35,43.9
1350.0,19.22,43.5
1355.0,19.14,40.3
1360.0,19.09,39.5
1365.0,19.12,39.7
1370.0,19.13,40.5
1375.0,19.09,41.2
1380.0,18.99,42.1
1385.0,18.91,42.9
1390.0,18.81,43.7
1395.0,18.75,43.7
1397.0,18.72,44.3

File: FSRI_Wood_Perpendicular_Cone_50kW_hor_R3.csv
Time,Mass (g),HRRPUA (kW/m2)
0.0,97.05,3.8
5.0,96.68,4.6
10.0,96.57,8.8
15.0,96.41,12.7
20.0,96.25,14.6
25.0,95.75,7.9
30.0,95.08,13.7
35.0,94.43,84.1
40.0,93.75,164.9
45.0,93.05,205.1
50.0,92.42,221.4
55.0,91.86,223.9
60.0,91.33,209.0
65.0,90.79,201.0
70.0,90.29,185.6
75.0,89.78,182.7
80.0,89.3,177.2
85.0,88.77,169.8
90.0,88.31,161.0
95.0,87.88,152.4
100.0,87.4,146.3
105.0,87.05,144.3
110.0,86.64,135.7
115.0,86.26,133.2
120.0,85.87,127.8
125.0,85.45,125.0
130.0,85.07,123.6
135.0,84.63,119.7
140.0,84.3,117.4
145.0,83.91,115.4
150.0,83.57,115.3
155.0,83.21,112.6
160.0,82.9,111.5
165.0,82.55,106.9
170.0,82.21,105.2
175.0,81.76,102.5
180.0,81.45,100.0
185.0,81.11,99.6
190.0,80.82,97.4
195.0,80.48,100.4
200.0,80.13,103.2
205.0,79.78,98.6
210.0,79.41,91.5
215.0,79.05,88.5
220.0,78.69,88.8
225.0,78.39,87.3
230.0,78.12,90.2
235.0,77.77,88.1
240.0,77.47,87.7
245.0,77.13,83.2
250.0,76.86,83.6
255.0,76.43,79.3
260.0,76.1,77.9
265.0,75.78,77.0
270.0,75.55,75.0
275.0,75.26,73.2
280.0,74.95,72.8
285.0,74.61,72.4
290.0,74.24,71.7
295.0,73.93,70.0
300.0,73.64,70.5
305.0,73.32,69.3
310.0,73.09,67.4
315.0,72.82,68.9
320.0,72.5,69.2
325.0,72.26,66.8
330.0,71.86,67.1
335.0,71.54,65.6
340.0,71.25,64.8
345.0,71.02,63.2
350.0,70.78,63.2
355.0,70.51,64.2
360.0,70.2,64.1
365.0,69.94,61.5
370.0,69.64,63.1
375.0,69.25,63.0
380.0,68.96,61.7
385.0,68.71,61.8
390.0,68.53,62.4
395.0,68.21,60.8
400.0,67.97,59.8
405.0,67.73,61.0
410.0,67.44,60.4
415.0,67.1,59.4
420.0,66.83,58.9
425.0,66.55,58.3
430.0,66.27,60.7
435.0,66.11,59.8
440.0,65.87,58.2
445.0,65.61,59.4
450.0,65.33,59.8
455.0,65.03,58.9
460.0,64.74,59.0
465.0,64.47,59.3
470.0,64.19,58.5
475.0,64.01,57.8
480.0,63.77,57.5
485.0,63.49,56.5
490.0,63.26,57.1
495.0,62.99,56.5
500.0,62.67,56.6
505.0,62.38,55.7
510.0,62.13,55.2
515.0,61.89,54.3
520.0,61.69,56.2
525.0,61.48,57.8
530.0,61.21,56.8
535.0,60.96,57.6
540.0,60.68,57.6
545.0,60.37,60.1
550.0,60.1,58.9
555.0,59.87,59.5
560.0,59.69,60.9
565.0,59.47,60.9
570.0,59.22,59.1
575.0,58.98,60.4
580.0,58.72,59.6
585.0,58.39,58.8
590.0,58.14,60.6
595.0,57.89,59.5
600.0,57.64,58.8
605.0,57.44,58.7
610.0,57.22,59.1
615.0,57.01,59.5
620.0,56.72,61.2
625.0,56.47,61.1
630.0,56.16,62.5
635.0,55.93,61.9
640.0,55.76,64.0
645.0,55.55,63.2
650.0,55.24,63.4
655.0,55.0,66.1
660.0,54.77,66.3
665.0,54.48,66.4
670.0,54.18,68.8
675.0,53.91,70.6
680.0,53.68,69.2
685.0,53.5,69.4
690.0,53.23,71.1
695.0,52.91,71.4
700.0,52.65,72.1
705.0,52.37,71.7
710.0,52.06,71.9
715.0,51.79,73.5
720.0,51.55,74.6
725.0,51.31,75.5
730.0,51.03,78.2
735.0,50.74,78.8
740.0,50.46,80.2
745.0,50.15,80.8
750.0,49.86,83.0
755.0,49.53,84.0
760.0,49.27,86.0
765.0,49.0,89.0
770.0,48.67,89.4
775.0,48.38,88.9
780.0,48.01,89.8
785.0,47.7,92.6
790.0,47.33,91.2
795.0,46.99,94.1
800.0,46.68,95.8
805.0,46.36,96.6
810.0,46.04,98.0
815.0,45.68,99.1
820.0,45.29,103.7
825.0,44.95,106.2
830.0,44.54,109.7
835.0,44.17,109.4
840.0,43.77,110.0
845.0,43.46,113.6
850.0,43.05,116.6
855.0,42.66,118.8
860.0,42.28,118.4
865.0,41.86,119.5
870.0,41.44,118.5
875.0,40.98,125.3
880.0,40.57,125.7
885.0,40.14,127.9
890.0,39.78,132.8
895.0,39.33,132.0
900.0,38.87,137.4
905.0,38.43,136.6
910.0,37.97,139.5
915.0,37.52,139.4
920.0,37.05,141.5
925.0,36.64,141.0
930.0,36.15,142.5
935.0,35.69,144.7
940.0,35.22,148.0
945.0,34.78,149.3
950.0,34.27,147.4
955.0,33.77,150.3
960.0,33.34,150.4
965.0,32.92,153.7
970.0,32.45,152.0
975.0,32.01,149.5
980.0,31.51,151.7
985.0,31.04,152.2
990.0,30.64,150.2
995.0,30.07,153.1
1000.0,29.64,151.1
1005.0,29.14,152.1
1010.0,28.82,152.2
1015.0,28.35,150.8
1020.0,27.94,150.3
1025.0,27.5,148.7
1030.0,27.06,149.5
1035.0,26.62,145.8
1040.0,26.23,149.2
1045.0,25.85,143.0
1050.0,25.44,141.6
1055.0,25.15,139.0
1060.0,24.81,134.6
1065.0,24.48,131.2
1070.0,24.15,130.8
1075.0,23.87,125.4
1080.0,23.49,126.3
1085.0,23.25,121.7
1090.0,22.92,118.6
1095.0,22.73,112.7
1100.0,22.49,107.0
1105.0,22.22,99.7
1110.0,22.04,99.6
1115.0,21.83,96.6
1120.0,21.6,91.3
1125.0,21.42,84.3
1130.0,21.37,81.3
1135.0,21.21,76.2
1140.0,21.11,72.4
1145.0,20.98,69.7
1150.0,20.82,64.8
1155.0,20.66,62.2
1160.0,20.6,59.6
1165.0,20.59,55.9
1170.0,20.51,53.4
1175.0,20.45,50.4
1180.0,20.34,48.4
1185.0,20.31,44.6
1190.0,20.14,45.3
1195.0,20.05,44.4
1200.0,20.01,42.7
1205.0,20.01,43.8
1210.0,20.0,43.3
1215.0,19.93,41.9
1220.0,19.86,41.8
1225.0,19.8,40.1
1230.0,19.65,40.7
1235.0,19.58,41.3
1240.0,19.52,41.2
1245.0,19.49,40.0
1250.0,19.53,39.4
1255.0,19.44,38.6
1260.0,19.4,37.7
1265.0,19.34,37.5
1270.0,19.22,37.4
1275.0,19.15,38.4
1280.0,19.12,37.0
1285.0,19.09,36.4
1290.0,19.09,35.5
1295.0,19.01,34.7
1300.0,19.0,34.1
1305.0,18.95,34.9
1310.0,18.79,34.5
1315.0,18.7,35.4
1320.0,18.69,34.8
1325.0,18.72,34.9
1330.0,18.71,34.6
1332.0,18.68,35.1