Folder: matl-db/Wood/Calibration_Data/FSRI (part 11)

File: FSRI_Wood_STA_N2_10K_R2.csv
Time (s),Temperature (K),Mass (mg),Heat Flow Rate (W/g)
0.0,324.5,3.9476,0.0116
50.7131,327.0,3.9477,0.0886
76.8838,329.5,3.9488,0.1273
98.776,332.0,3.9474,0.1517
118.75,334.5,3.9465,0.1679
137.588,337.0,3.9431,0.1806
155.742,339.5,3.9442,0.1915
173.36,342.0,3.9435,0.202
190.544,344.5,3.9426,0.2104
207.385,347.0,3.9428,0.2224
223.886,349.5,3.9425,0.2317
240.202,352.0,3.9425,0.2391
256.197,354.5,3.9402,0.2447
271.969,357.0,3.9384,0.2496
287.577,359.5,3.9369,0.253
302.957,362.0,3.9358,0.2526
318.158,364.5,3.9358,0.2553
333.24,367.0,3.9358,0.2544
348.225,369.5,3.9357,0.254
363.045,372.0,3.9345,0.25
377.8,374.5,3.933,0.2498
392.503,377.0,3.9308,0.2461
407.138,379.5,3.931,0.246
421.702,382.0,3.9318,0.2436
436.298,384.5,3.9301,0.2429
450.849,387.0,3.9305,0.2412
465.348,389.5,3.9318,0.2433
479.827,392.0,3.9279,0.2417
494.303,394.5,3.9292,0.2443
508.751,397.0,3.9279,0.2454
523.094,399.5,3.9292,0.2461
537.504,402.0,3.9264,0.2488
551.831,404.5,3.9271,0.251
566.136,407.0,3.9271,0.2526
580.406,409.5,3.9284,0.2548
594.663,412.0,3.9259,0.2581
608.954,414.5,3.9242,0.2597
623.17,417.0,3.9262,0.2642
637.341,419.5,3.9262,0.2631
651.549,422.0,3.9249,0.2681
665.783,424.5,3.9249,0.2721
679.91,427.0,3.9253,0.2705
694.116,429.5,3.9249,0.2729
708.267,432.0,3.9238,0.2784
722.426,434.5,3.9226,0.2794
736.581,437.0,3.9236,0.2809
750.711,439.5,3.9226,0.285
764.895,442.0,3.918,0.2871
779.054,444.5,3.9193,0.29
793.233,447.0,3.919,0.2922
807.37,449.5,3.919,0.2977
821.539,452.0,3.918,0.3015
835.731,454.5,3.9173,0.3037
849.874,457.0,3.9139,0.3037
864.068,459.5,3.9126,0.3078
878.204,462.0,3.9103,0.3084
892.298,464.5,3.9077,0.3127
906.469,467.0,3.906,0.3189
920.625,469.5,3.9034,0.3196
934.793,472.0,3.9021,0.3239
948.912,474.5,3.9007,0.3248
963.132,477.0,3.8958,0.328
977.287,479.5,3.8918,0.3298
991.48,482.0,3.888,0.3323
1005.67,484.5,3.8808,0.338
1019.85,487.0,3.8789,0.3396
1034.08,489.5,3.8725,0.3439
1048.26,492.0,3.8689,0.3472
1062.48,494.5,3.864,0.3492
1076.73,497.0,3.857,0.3491
1090.94,499.5,3.8504,0.3482
1105.13,502.0,3.8451,0.351
1119.38,504.5,3.8399,0.3521
1133.55,507.0,3.8339,0.3531
1147.78,509.5,3.8286,0.3516
1161.98,512.0,3.821,0.3517
1176.2,514.5,3.8143,0.3536
1190.45,517.0,3.8074,0.3549
1204.65,519.5,3.8013,0.3559
1218.92,522.0,3.7931,0.3582
1233.14,524.5,3.7829,0.3556
1247.39,527.0,3.7737,0.358
1261.62,529.5,3.7655,0.3596
1275.86,532.0,3.755,0.3605
1290.11,534.5,3.7433,0.3611
1304.36,537.0,3.7311,0.3615
1318.63,539.5,3.7165,0.3611
1332.88,542.0,3.7053,0.3607
1347.12,544.5,3.6905,0.3595
1361.41,547.0,3.6749,0.3586
1375.65,549.5,3.6585,0.3568
1389.98,552.0,3.6412,0.3567
1404.26,554.5,3.6232,0.3569
1418.56,557.0,3.6024,0.36
1432.82,559.5,3.5822,0.3589
1447.12,562.0,3.5595,0.3608
1461.42,564.5,3.5365,0.3616
1475.72,567.0,3.5102,0.3648
1490.02,569.5,3.4808,0.3696
1504.34,572.0,3.4519,0.3728
1518.61,574.5,3.4215,0.3788
1532.97,577.0,3.3895,0.3829
1547.32,579.5,3.3532,0.3856
1561.66,582.0,3.3159,0.3956
1576.03,584.5,3.2754,0.4064
1590.44,587.0,3.2335,0.4138
1604.84,589.5,3.1908,0.4208
1619.22,592.0,3.1425,0.431
1633.6,594.5,3.0912,0.4406
1648.03,597.0,3.0373,0.4494
1662.42,599.5,2.9843,0.4569
1676.84,602.0,2.9313,0.461
1691.23,604.5,2.8699,0.4692
1705.64,607.0,2.8118,0.4778
1720,609.5,2.7512,0.4853
1734.5,612.0,2.6858,0.4963
1748.93,614.5,2.6235,0.503
1763.38,617.0,2.5565,0.5144
1777.89,619.5,2.4905,0.5292
1792.35,622.0,2.4192,0.5443
1806.88,624.5,2.3479,0.5686
1821.4,627.0,2.2689,0.591
1835.93,629.5,2.1905,0.6152
1850.49,632.0,2.1081,0.6417
1865.05,634.5,2.0233,0.671
1879.64,637.0,1.9301,0.6945
1894.14,639.5,1.8343,0.7131
1908.7,642.0,1.7414,0.7191
1923.23,644.5,1.6437,0.7127
1937.68,647.0,1.5469,0.6785
1952.08,649.5,1.4556,0.6255
1966.39,652.0,1.3711,0.5401
1980.66,654.5,1.3004,0.4323
1994.89,657.0,1.2421,0.3119
2009.16,659.5,1.199,0.1967
2023.49,662.0,1.1675,0.0999
2037.88,664.5,1.1499,0.0385
2052.38,667.0,1.135,0.0052
2066.91,669.5,1.1244,-0.0147
2081.48,672.0,1.12,-0.0223
2096.07,674.5,1.1107,-0.031
2110.7,677.0,1.1012,-0.0351
2125.3,679.5,1.0927,-0.0436
2139.95,682.0,1.0848,-0.0502
2154.56,684.5,1.0795,-0.0587
2169.17,687.0,1.0712,-0.0655
2183.79,689.5,1.0632,-0.0735
2198.42,692.0,1.0578,-0.0799
2213.05,694.5,1.0505,-0.0891
2227.73,697.0,1.0452,-0.0909
2242.41,699.5,1.0353,-0.0986
2257.09,702.0,1.0301,-0.1011
2271.81,704.5,1.0234,-0.1044
2286.55,707.0,1.0177,-0.1065
2301.28,709.5,1.0096,-0.1072
2315.99,712.0,1.0023,-0.1057
2330.68,714.5,0.9973,-0.1031
2345.38,717.0,0.9898,-0.0976
2360.12,719.5,0.9831,-0.0924
2374.87,722.0,0.9807,-0.0868
2389.66,724.5,0.9742,-0.0823
2404.41,727.0,0.9703,-0.0783
2419.15,729.5,0.965,-0.0718
2433.93,732.0,0.9572,-0.0637
2448.7,734.5,0.9543,-0.0595
2463.52,737.0,0.9476,-0.055
2478.28,739.5,0.9454,-0.0501
2493.1,742.0,0.9431,-0.0468
2507.94,744.5,0.9398,-0.0413
2522.76,747.0,0.9352,-0.0387
2537.58,749.5,0.9296,-0.0323
2552.44,752.0,0.9263,-0.0313
2567.23,754.5,0.9228,-0.0297
2582.09,757.0,0.9224,-0.0293
2596.94,759.5,0.9161,-0.0271
2611.76,762.0,0.9146,-0.0262
2626.58,764.5,0.9094,-0.0251
2641.4,767.0,0.9081,-0.0304
2656.24,769.5,0.9054,-0.0279
2671.06,772.0,0.9013,-0.0264
2685.94,774.5,0.8987,-0.0245
2700.82,777.0,0.8973,-0.024
2715.67,779.5,0.8927,-0.0216
2730.51,782.0,0.8924,-0.0224
2745.36,784.5,0.8902,-0.0229
2760.23,787.0,0.8858,-0.0218
2775.06,789.5,0.8837,-0.0217
2789.96,792.0,0.8801,-0.022
2804.87,794.5,0.8762,-0.0209
2819.76,797.0,0.8723,-0.0202
2834.68,799.5,0.8723,-0.0162
2849.59,802.0,0.8682,-0.0198
2864.52,804.5,0.8695,-0.0226
2879.44,807.0,0.8656,-0.0189
2894.29,809.5,0.8643,-0.0111
2909.25,812.0,0.863,-0.0097
2924.22,814.5,0.8577,-0.0106
2939.14,817.0,0.8563,-0.0144
2954.11,819.5,0.8574,-0.016
2969.08,822.0,0.8545,-0.0166
2984.06,824.5,0.8534,-0.022
2999.04,827.0,0.8488,-0.0222
3014,829.5,0.8489,-0.0285
3028.94,832.0,0.8462,-0.0253
3043.89,834.5,0.8421,-0.0269
3058.83,837.0,0.8435,-0.0255
3073.74,839.5,0.8396,-0.025
3088.66,842.0,0.8392,-0.0238
3103.58,844.5,0.8406,-0.027
3118.48,847.0,0.8366,-0.0343
3133.4,849.5,0.8326,-0.0378
3148.33,852.0,0.8336,-0.0399
3163.4,854.5,0.8297,-0.0364
3178.39,857.0,0.8264,-0.0388
3193.39,859.5,0.8251,-0.0392
3208.4,862.0,0.824,-0.044
3223.42,864.5,0.8224,-0.0461
3238.41,867.0,0.8198,-0.0521
3253.37,869.5,0.8185,-0.055
3268.4,872.0,0.8185,-0.0528
3283.44,874.5,0.8159,-0.0547
3298.43,877.0,0.8135,-0.0559
3313.46,879.5,0.8126,-0.0623
3328.45,882.0,0.8113,-0.0678
3343.52,884.5,0.8099,-0.0686
3358.56,887.0,0.8099,-0.0717
3373.63,889.5,0.806,-0.0749
3388.7,892.0,0.8073,-0.079
3403.79,894.5,0.8047,-0.0828
3418.89,897.0,0.802,-0.085
3433.98,899.5,0.8007,-0.0828
3449.04,902.0,0.8007,-0.0844
3464.13,904.5,0.7984,-0.0845
3479.22,907.0,0.7968,-0.0826
3494.25,909.5,0.7954,-0.0863
3509.32,912.0,0.7941,-0.0915
3524.38,914.5,0.7954,-0.0947
3539.45,917.0,0.7941,-0.0946
3554.56,919.5,0.7918,-0.0992
3569.6,922.0,0.7898,-0.0949
3584.63,924.5,0.7876,-0.1027
3599.62,927.0,0.7874,-0.1006
3614.74,929.5,0.7884,-0.1017
3629.82,932.0,0.7871,-0.1013
3644.88,934.5,0.7871,-0.1022
3659.93,937.0,0.7858,-0.1054
3674.99,939.5,0.7818,-0.1057
3690.06,942.0,0.7807,-0.1061
3705.16,944.5,0.781,-0.112
3720.29,947.0,0.7803,-0.1121
3735.39,949.5,0.779,-0.1078
3750.53,952.0,0.7776,-0.1069
3765.64,954.5,0.777,-0.1098
3780.75,957.0,0.7756,-0.111
3795.89,959.5,0.7757,-0.1081
3811.03,962.0,0.777,-0.1134
3826.15,964.5,0.7749,-0.1186
3841.29,967.0,0.7747,-0.1221
3856.39,969.5,0.776,-0.1242
3871.53,972.0,0.7706,-0.1215
3886.64,974.5,0.7693,-0.1187
3901.77,977.0,0.7719,-0.1151
3916.9,979.5,0.7716,-0.1182
3932.07,982.0,0.7701,-0.1109
3947.28,984.5,0.7717,-0.1058
3962.47,987.0,0.7699,-0.1135
3977.69,989.5,0.7678,-0.1118
3992.92,992.0,0.7677,-0.1071
4008.11,994.5,0.7669,-0.1047
4023.24,997.0,0.7646,-0.106
4038.45,999.5,0.7657,-0.096
4053.62,1002.0,0.7644,-0.0942
4068.88,1004.5,0.765,-0.0904
4084.16,1007.0,0.7617,-0.0885
4099.37,1009.5,0.7614,-0.0849
4114.56,1012.0,0.764,-0.0806
4129.8,1014.5,0.7633,-0.0764
4145,1017.0,0.7593,-0.0775
4160.19,1019.5,0.7552,-0.0799
4175.45,1022.0,0.7571,-0.0833
4190.64,1024.5,0.7584,-0.0818
4205.79,1027.0,0.7611,-0.0726
4221,1029.5,0.7585,-0.0679
4236.21,1032.0,0.759,-0.063
4251.41,1034.5,0.7594,-0.056
4266.67,1037.0,0.7557,-0.0448
4281.9,1039.5,0.7564,-0.0381
4297.21,1042.0,0.7537,-0.032
4312.56,1044.5,0.754,-0.0251
4327.87,1047.0,0.7531,-0.0134
4343.14,1049.5,0.7524,-0.0012
4358.41,1052.0,0.7524,0.0107
4373.65,1054.5,0.7534,0.014
4388.9,1057.0,0.7523,0.0218
4404.15,1059.5,0.7512,0.0316
4419.4,1062.0,0.7498,0.0319
4434.71,1064.5,0.7523,0.0359
4450.01,1067.0,0.7503,0.0403
4465.29,1069.5,0.7501,0.0474

File: FSRI_Wood_STA_N2_10K_R3.csv
Time (s),Temperature (K),Mass (mg),Heat Flow Rate (W/g)
0.0,324.5,3.9243,0.0157
74.9878,327.0,3.9227,0.099
101.713,329.5,3.9229,0.1359
123.835,332.0,3.9238,0.1612
143.895,334.5,3.9223,0.1794
162.916,337.0,3.9213,0.1913
181.178,339.5,3.9226,0.2027
198.862,342.0,3.9222,0.212
216.07,344.5,3.9203,0.2195
232.958,347.0,3.9195,0.2295
249.494,349.5,3.9189,0.2372
265.709,352.0,3.9188,0.2448
281.747,354.5,3.9188,0.25
297.524,357.0,3.9174,0.2569
313.187,359.5,3.9175,0.2615
328.594,362.0,3.9167,0.2638
343.824,364.5,3.9162,0.2671
358.909,367.0,3.916,0.2701
373.875,369.5,3.915,0.2721
388.721,372.0,3.9135,0.2719
403.536,374.5,3.912,0.2716
418.254,377.0,3.9147,0.2723
432.944,379.5,3.912,0.2749
447.527,382.0,3.9119,0.2756
462.092,384.5,3.9133,0.2752
476.6,387.0,3.9125,0.2733
491.18,389.5,3.9121,0.2758
505.709,392.0,3.9092,0.2775
520.218,394.5,3.9118,0.2774
534.651,397.0,3.9126,0.2789
549.041,399.5,3.9125,0.2789
563.433,402.0,3.9113,0.2831
577.768,404.5,3.9103,0.2848
592.08,407.0,3.9099,0.2859
606.395,409.5,3.9112,0.2895
620.685,412.0,3.9108,0.2926
634.942,414.5,3.9103,0.2953
649.169,417.0,3.9111,0.2967
663.368,419.5,3.9098,0.2987
677.604,422.0,3.9085,0.3013
691.788,424.5,3.9097,0.3041
705.958,427.0,3.9098,0.3085
720.143,429.5,3.9085,0.3132
734.289,432.0,3.9076,0.3148
748.422,434.5,3.9068,0.3174
762.607,437.0,3.9078,0.3217
776.767,439.5,3.9078,0.3262
790.966,442.0,3.9065,0.3288
805.085,444.5,3.9065,0.3371
819.257,447.0,3.9052,0.3398
833.405,449.5,3.9024,0.3414
847.564,452.0,3.9028,0.3466
861.711,454.5,3.9016,0.3474
875.845,457.0,3.9002,0.3498
889.98,459.5,3.8993,0.3547
904.14,462.0,3.8963,0.3583
918.277,464.5,3.8953,0.3615
932.409,467.0,3.8942,0.3624
946.564,469.5,3.8909,0.3687
960.702,472.0,3.8884,0.3716
974.865,474.5,3.8847,0.3754
988.984,477.0,3.8831,0.3806
1003.1,479.5,3.8792,0.3837
1017.24,482.0,3.8752,0.3843
1031.41,484.5,3.8713,0.391
1045.56,487.0,3.8664,0.395
1059.66,489.5,3.8626,0.3994
1073.8,492.0,3.8587,0.3986
1087.95,494.5,3.8534,0.4013
1102.13,497.0,3.849,0.4024
1116.25,499.5,3.8447,0.4053
1130.45,502.0,3.8381,0.405
1144.6,504.5,3.8342,0.4084
1158.78,507.0,3.8289,0.4111
1172.97,509.5,3.8242,0.4137
1187.16,512.0,3.8183,0.4183
1201.34,514.5,3.8115,0.4163
1215.5,517.0,3.8048,0.414
1229.69,519.5,3.7967,0.4169
1243.87,522.0,3.7906,0.4178
1258.09,524.5,3.7814,0.4207
1272.27,527.0,3.7727,0.4183
1286.46,529.5,3.7618,0.4187
1300.7,532.0,3.7515,0.4189
1314.93,534.5,3.7402,0.4187
1329.17,537.0,3.7282,0.4183
1343.4,539.5,3.7158,0.4212
1357.61,542.0,3.7012,0.4189
1371.86,544.5,3.6878,0.4194
1386.09,547.0,3.6712,0.4192
1400.35,549.5,3.6561,0.4214
1414.6,552.0,3.6374,0.4234
1428.87,554.5,3.6182,0.4228
1443.15,557.0,3.5987,0.4252
1457.45,559.5,3.5769,0.4238
1471.72,562.0,3.5541,0.4253
1486.03,564.5,3.5297,0.4261
1500.34,567.0,3.5049,0.4301
1514.67,569.5,3.4772,0.4293
1528.99,572.0,3.4469,0.4345
1543.29,574.5,3.4157,0.4413
1557.63,577.0,3.3834,0.4453
1571.94,579.5,3.3476,0.4576
1586.25,582.0,3.3093,0.4653
1600.58,584.5,3.2676,0.4725
1614.91,587.0,3.2269,0.4813
1629.26,589.5,3.1813,0.4913
1643.6,592.0,3.1336,0.5017
1657.95,594.5,3.0842,0.5063
1672.31,597.0,3.0326,0.5178
1686.72,599.5,2.9768,0.53
1701.11,602.0,2.9203,0.5361
1715.56,604.5,2.8619,0.5449
1729.99,607.0,2.803,0.5571
1744.43,609.5,2.7408,0.566
1758.88,612.0,2.677,0.5756
1773.29,614.5,2.612,0.5873
1787.76,617.0,2.5439,0.5993
1802.21,619.5,2.4771,0.6158
1816.65,622.0,2.4069,0.6327
1831.15,624.5,2.3334,0.6569
1845.65,627.0,2.2565,0.6815
1860.14,629.5,2.1762,0.7094
1874.74,632.0,2.0935,0.7379
1889.31,634.5,2.0074,0.767
1903.9,637.0,1.9175,0.7978
1918.47,639.5,1.8217,0.8174
1933.01,642.0,1.7254,0.8212
1947.46,644.5,1.6302,0.8125
1961.91,647.0,1.5344,0.7785
1976.28,649.5,1.4451,0.7159
1990.57,652.0,1.3658,0.627
2004.85,654.5,1.2974,0.5134
2019.09,657.0,1.2419,0.39
2033.32,659.5,1.2018,0.2769
2047.66,662.0,1.174,0.1843
2062.02,664.5,1.1538,0.1246
2076.51,667.0,1.1427,0.0945
2091.02,669.5,1.1302,0.0793
2105.62,672.0,1.1246,0.0732
2120.22,674.5,1.1155,0.0646
2134.83,677.0,1.1079,0.052
2149.41,679.5,1.1019,0.0486
2164.06,682.0,1.0924,0.0408
2178.64,684.5,1.0866,0.0377
2193.24,687.0,1.0782,0.0282
2207.84,689.5,1.071,0.0216
2222.48,692.0,1.0658,0.0167
2237.12,694.5,1.0581,0.0131
2251.78,697.0,1.0499,0.0074
2266.43,699.5,1.0429,0.0043
2281.13,702.0,1.0375,0.0049
2295.81,704.5,1.031,0.0061
2310.51,707.0,1.023,0.0058
2325.18,709.5,1.0167,0.005
2339.85,712.0,1.0094,0.0067
2354.59,714.5,1.0045,0.0119
2369.3,717.0,0.9975,0.0206
2384.01,719.5,0.9927,0.0279
2398.73,722.0,0.9874,0.0315
2413.46,724.5,0.9815,0.0371
2428.21,727.0,0.9762,0.0424
2442.97,729.5,0.9722,0.0431
2457.71,732.0,0.9669,0.0475
2472.47,734.5,0.9629,0.0561
2487.28,737.0,0.9563,0.0657
2502.04,739.5,0.9524,0.0687
2516.82,742.0,0.9485,0.071
2531.57,744.5,0.9437,0.0769
2546.36,747.0,0.9402,0.0807
2561.1,749.5,0.9373,0.0871
2575.9,752.0,0.9334,0.0905
2590.68,754.5,0.9287,0.094
2605.47,757.0,0.9268,0.0965
2620.27,759.5,0.9229,0.0981
2635.07,762.0,0.9201,0.0976
2649.89,764.5,0.9168,0.101
2664.73,767.0,0.9153,0.1047
2679.53,769.5,0.9123,0.1057
2694.38,772.0,0.9094,0.105
2709.24,774.5,0.9047,0.1045
2724.11,777.0,0.9033,0.105
2738.95,779.5,0.8995,0.11
2753.82,782.0,0.8968,0.1125
2768.64,784.5,0.8952,0.115
2783.53,787.0,0.8925,0.1139
2798.4,789.5,0.8886,0.1141
2813.24,792.0,0.887,0.1135
2828.13,794.5,0.8843,0.1136
2842.99,797.0,0.8817,0.1166
2857.88,799.5,0.881,0.1198
2872.8,802.0,0.877,0.1155
2887.72,804.5,0.8744,0.1142
2902.61,807.0,0.8725,0.1161
2917.52,809.5,0.8705,0.1145
2932.42,812.0,0.8685,0.1104
2947.33,814.5,0.8685,0.114
2962.25,817.0,0.8654,0.1183
2977.21,819.5,0.862,0.1259
2992.16,822.0,0.8603,0.1255
3007.09,824.5,0.8576,0.1311
3021.97,827.0,0.8573,0.1311
3036.95,829.5,0.8537,0.1291
3051.91,832.0,0.8524,0.1314
3066.83,834.5,0.8497,0.13
3081.83,837.0,0.8484,0.128
3096.81,839.5,0.8464,0.1286
3111.77,842.0,0.8451,0.1293
3126.77,844.5,0.8431,0.1295
3141.78,847.0,0.8409,0.1253
3156.77,849.5,0.8392,0.1256
3171.74,852.0,0.8366,0.1282
3186.74,854.5,0.8352,0.1215
3201.74,857.0,0.8331,0.1172
3216.77,859.5,0.8313,0.1108
3231.77,862.0,0.8285,0.1138
3246.76,864.5,0.8289,0.111
3261.72,867.0,0.8272,0.1085
3276.74,869.5,0.8259,0.1105
3291.75,872.0,0.8249,0.1109
3306.76,874.5,0.8219,0.1079
3321.79,877.0,0.8193,0.1046
3336.81,879.5,0.8183,0.1004
3351.87,882.0,0.8165,0.097
3366.89,884.5,0.8164,0.0984
3381.92,887.0,0.8138,0.0977
3396.93,889.5,0.8112,0.0932
3411.93,892.0,0.8099,0.0926
3426.94,894.5,0.8088,0.093
3441.93,897.0,0.8083,0.0913
3456.95,899.5,0.8059,0.0862
3471.96,902.0,0.8059,0.0859
3487,904.5,0.8036,0.0848
3502.04,907.0,0.8033,0.0811
3517.08,909.5,0.802,0.0832
3532.14,912.0,0.7997,0.0828
3547.17,914.5,0.7997,0.0777
3562.21,917.0,0.7983,0.0794
3577.26,919.5,0.7981,0.0788
3592.42,922.0,0.7954,0.0741
3607.52,924.5,0.7944,0.0793
3622.67,927.0,0.7939,0.0768
3637.82,929.5,0.7931,0.0771
3652.95,932.0,0.7918,0.0783
3668.08,934.5,0.7904,0.08
3683.2,937.0,0.7881,0.0772
3698.3,939.5,0.7882,0.0773
3713.4,942.0,0.7864,0.0737
3728.5,944.5,0.7866,0.0761
3743.59,947.0,0.7856,0.0719
3758.75,949.5,0.784,0.0773
3773.89,952.0,0.7824,0.0746
3789.05,954.5,0.7823,0.0764
3804.22,957.0,0.781,0.0763
3819.38,959.5,0.781,0.0748
3834.53,962.0,0.7785,0.0786
3849.69,964.5,0.7795,0.0768
3864.89,967.0,0.7777,0.0738
3880.1,969.5,0.7767,0.0696
3895.24,972.0,0.7754,0.0723
3910.38,974.5,0.7747,0.0705
3925.56,977.0,0.7743,0.0736
3940.7,979.5,0.7728,0.072
3955.83,982.0,0.7728,0.0722
3971.01,984.5,0.7714,0.0728
3986.13,987.0,0.7715,0.0757
4001.35,989.5,0.7711,0.0779
4016.6,992.0,0.7698,0.0805
4031.83,994.5,0.7705,0.0813
4047,997.0,0.7688,0.0851
4062.21,999.5,0.7671,0.084
4077.42,1002.0,0.7672,0.0821
4092.64,1004.5,0.7658,0.0827
4107.87,1007.0,0.7662,0.0859
4123.07,1009.5,0.7659,0.0876
4138.26,1012.0,0.7632,0.085
4153.48,1014.5,0.7632,0.0895
4168.71,1017.0,0.7645,0.0885
4183.9,1019.5,0.7632,0.0923
4199.06,1022.0,0.7612,0.0926
4214.22,1024.5,0.7612,0.0944
4229.42,1027.0,0.7602,0.098
4244.61,1029.5,0.7602,0.0979
4259.81,1032.0,0.758,0.0924
4274.99,1034.5,0.759,0.1005
4290.22,1037.0,0.759,0.1021
4305.48,1039.5,0.7574,0.1074
4320.77,1042.0,0.7561,0.1151
4336.11,1044.5,0.7547,0.1159
4351.43,1047.0,0.7561,0.1161
4366.69,1049.5,0.7548,0.1199
4382.02,1052.0,0.7541,0.124
4397.31,1054.5,0.7534,0.1206
4412.59,1057.0,0.7521,0.1228
4427.95,1059.5,0.7521,0.129
4443.25,1062.0,0.7511,0.1324
4458.49,1064.5,0.7521,0.1364
4473.76,1067.0,0.7508,0.1338
4489.05,1069.5,0.7495,0.1324
4492.09,1070.0,0.7503,0.132

File: FSRI_Wood_STA_N2_30K_R1.csv
Time (s),Temperature (K),Mass (mg),Heat Flow Rate (W/g)
0.0,325.0,4.0427,-0.0048
40.3744,327.5,4.0425,0.1133
54.6348,330.0,4.0441,0.1956
65.554,332.5,4.043,0.2583
74.8754,335.0,4.0423,0.3125
83.2322,337.5,4.0413,0.3592
91.0056,340.0,4.0414,0.3963
98.32,342.5,4.0422,0.4332
105.317,345.0,4.0394,0.4663
112.071,347.5,4.0399,0.4959
118.603,350.0,4.041,0.5262
124.979,352.5,4.039,0.5533
131.22,355.0,4.0378,0.5773
137.288,357.5,4.0353,0.5995
143.261,360.0,4.0398,0.6239
149.138,362.5,4.0375,0.6453
154.917,365.0,4.0366,0.6673
160.607,367.5,4.0361,0.6871
166.232,370.0,4.0348,0.7046
171.782,372.5,4.036,0.7231
177.276,375.0,4.0359,0.7388
182.74,377.5,4.0344,0.7521
188.146,380.0,4.0331,0.7615
193.519,382.5,4.0317,0.7711
198.873,385.0,4.0317,0.7749
204.159,387.5,4.0317,0.7836
209.441,390.0,4.0305,0.7855
214.668,392.5,4.0294,0.7835
219.881,395.0,4.0294,0.7828
224.996,397.5,4.029,0.7822
230.15,400.0,4.029,0.7836
235.239,402.5,4.0277,0.7844
240.302,405.0,4.0277,0.7855
245.321,407.5,4.0281,0.7885
250.302,410.0,4.0277,0.7906
255.268,412.5,4.0277,0.7951
260.208,415.0,4.0279,0.7997
265.109,417.5,4.0277,0.8047
269.987,420.0,4.029,0.8138
274.846,422.5,4.029,0.8178
279.678,425.0,4.0277,0.826
284.496,427.5,4.0281,0.8352
289.299,430.0,4.0274,0.8434
294.094,432.5,4.0264,0.8528
298.869,435.0,4.0276,0.8645
303.615,437.5,4.0264,0.8734
308.359,440.0,4.0263,0.8836
313.092,442.5,4.0251,0.8946
317.811,445.0,4.0244,0.9033
322.519,447.5,4.0244,0.9178
327.184,450.0,4.0257,0.9287
331.865,452.5,4.0257,0.939
336.538,455.0,4.027,0.9512
341.177,457.5,4.0242,0.9606
345.808,460.0,4.0229,0.9722
350.418,462.5,4.0242,0.9835
355.011,465.0,4.0229,0.9918
359.594,467.5,4.0229,1.0025
364.165,470.0,4.0212,1.0146
368.726,472.5,4.0209,1.0259
373.29,475.0,4.0196,1.0374
377.838,477.5,4.0196,1.0458
382.384,480.0,4.0183,1.0608
386.913,482.5,4.0166,1.0731
391.437,485.0,4.0143,1.084
395.976,487.5,4.0143,1.0957
400.5,490.0,4.013,1.1068
405.016,492.5,4.0097,1.117
409.525,495.0,4.0075,1.1276
414.033,497.5,4.0059,1.1376
418.522,500.0,4.0026,1.149
423.048,502.5,3.9997,1.1599
427.541,505.0,3.995,1.1722
432.04,507.5,3.9925,1.1832
436.517,510.0,3.9907,1.1948
441.003,512.5,3.9828,1.2033
445.493,515.0,3.9792,1.2113
449.972,517.5,3.9726,1.2141
454.447,520.0,3.9678,1.2203
458.921,522.5,3.9625,1.2247
463.387,525.0,3.9556,1.2297
467.858,527.5,3.9509,1.2315
472.315,530.0,3.944,1.2328
476.785,532.5,3.9376,1.2334
481.236,535.0,3.9309,1.2322
485.695,537.5,3.9231,1.2324
490.139,540.0,3.9145,1.2318
494.589,542.5,3.9068,1.2302
499.042,545.0,3.8963,1.2268
503.485,547.5,3.8865,1.2238
507.945,550.0,3.8767,1.2196
512.397,552.5,3.8657,1.2146
516.854,555.0,3.854,1.208
521.309,557.5,3.8421,1.2062
525.757,560.0,3.8309,1.2057
530.217,562.5,3.8175,1.2002
534.674,565.0,3.8027,1.1965
539.129,567.5,3.7867,1.1953
543.594,570.0,3.7708,1.191
548.053,572.5,3.752,1.1893
552.513,575.0,3.7355,1.1862
556.977,577.5,3.7171,1.1819
561.44,580.0,3.6966,1.1814
565.913,582.5,3.675,1.1763
570.385,585.0,3.6517,1.1769
574.855,587.5,3.6272,1.1792
579.328,590.0,3.6006,1.1794
583.812,592.5,3.5736,1.184
588.288,595.0,3.5445,1.1907
592.779,597.5,3.5123,1.1972
597.275,600.0,3.4785,1.2101
601.772,602.5,3.4416,1.2196
606.268,605.0,3.4023,1.232
610.778,607.5,3.3609,1.2477
615.274,610.0,3.3165,1.2594
619.79,612.5,3.2716,1.2728
624.297,615.0,3.2234,1.2861
628.812,617.5,3.1724,1.3035
633.331,620.0,3.1196,1.3188
637.856,622.5,3.0663,1.3295
642.382,625.0,3.008,1.3412
646.904,627.5,2.9513,1.3562
651.424,630.0,2.8928,1.3672
655.958,632.5,2.8325,1.3824
660.502,635.0,2.7715,1.4023
665.058,637.5,2.708,1.4236
669.614,640.0,2.6436,1.4511
674.186,642.5,2.576,1.4854
678.767,645.0,2.5053,1.5262
683.346,647.5,2.4326,1.5773
687.944,650.0,2.3556,1.6389
692.567,652.5,2.2774,1.7024
697.18,655.0,2.1938,1.7661
701.793,657.5,2.1069,1.824
706.393,660.0,2.0161,1.8702
710.959,662.5,1.9268,1.8916
715.55,665.0,1.8366,1.8771
720.077,667.5,1.7442,1.809
724.571,670.0,1.6564,1.6823
729.031,672.5,1.5767,1.4968
733.453,675.0,1.5053,1.2694
737.862,677.5,1.4439,1.0107
742.278,680.0,1.3941,0.7545
746.702,682.5,1.3579,0.527
751.158,685.0,1.3304,0.3375
755.648,687.5,1.3107,0.2035
760.192,690.0,1.2955,0.1204
764.758,692.5,1.2853,0.07
769.317,695.0,1.2738,0.0384
773.916,697.5,1.2608,0.0154
778.544,700.0,1.2572,-0.0009
783.165,702.5,1.2508,-0.0198
787.772,705.0,1.2418,-0.0369
792.391,707.5,1.2342,-0.0487
797.018,710.0,1.2265,-0.0644
801.652,712.5,1.2199,-0.0783
806.285,715.0,1.2127,-0.0928
810.922,717.5,1.2039,-0.1048
815.568,720.0,1.1979,-0.1153
820.215,722.5,1.1905,-0.123
824.871,725.0,1.1866,-0.1293
829.532,727.5,1.1784,-0.1333
834.207,730.0,1.173,-0.1322
838.88,732.5,1.168,-0.1297
843.567,735.0,1.1596,-0.123
848.256,737.5,1.1546,-0.1147
852.954,740.0,1.149,-0.1036
857.658,742.5,1.1438,-0.0912
862.347,745.0,1.1374,-0.0751
867.062,747.5,1.1324,-0.0587
871.816,750.0,1.1267,-0.0382
876.54,752.5,1.1224,-0.0167
881.268,755.0,1.1182,-0.0014
885.998,757.5,1.1137,0.0176
890.733,760.0,1.1096,0.0289
895.474,762.5,1.1083,0.0482
900.205,765.0,1.1034,0.0574
904.954,767.5,1.0976,0.0707
909.703,770.0,1.0936,0.0816
914.457,772.5,1.0895,0.0877
919.204,775.0,1.0867,0.0952
923.966,777.5,1.0831,0.1024
928.731,780.0,1.0792,0.1091
933.5,782.5,1.0772,0.111
938.267,785.0,1.0782,0.1139
943.043,787.5,1.0729,0.1175
947.821,790.0,1.0685,0.1187
952.596,792.5,1.0658,0.1221
957.382,795.0,1.0648,0.1249
962.17,797.5,1.0597,0.1275
966.966,800.0,1.0573,0.1447
971.767,802.5,1.0547,0.1488
976.568,805.0,1.0531,0.1495
981.373,807.5,1.0516,0.1548
986.179,810.0,1.0493,0.1566
990.995,812.5,1.0462,0.1564
995.799,815.0,1.0437,0.1603
1000.62,817.5,1.0411,0.1618
1005.45,820.0,1.0383,0.1665
1010.29,822.5,1.0376,0.1658
1015.13,825.0,1.0355,0.1657
1019.96,827.5,1.0323,0.1682
1024.84,830.0,1.0296,0.1675
1029.7,832.5,1.0262,0.168
1034.56,835.0,1.0244,0.1702
1039.43,837.5,1.0253,0.1705
1044.3,840.0,1.0227,0.1714
1049.18,842.5,1.0202,0.169
1054.06,845.0,1.0216,0.1692
1058.94,847.5,1.0167,0.1709
1063.82,850.0,1.0149,0.1726
1068.7,852.5,1.0134,0.1771
1073.57,855.0,1.0107,0.1743
1078.47,857.5,1.0094,0.1749
1083.34,860.0,1.0068,0.1746
1088.22,862.5,1.0054,0.171
1093.1,865.0,1.0041,0.1753
1097.98,867.5,1.002,0.1749
1102.86,870.0,0.9984,0.1748
1107.74,872.5,0.998,0.1789
1112.62,875.0,0.997,0.1762
1117.49,877.5,0.9946,0.1744
1122.38,880.0,0.993,0.1757
1127.25,882.5,0.9917,0.1743
1132.14,885.0,0.9893,0.1716
1136.99,887.5,0.9889,0.1736
1141.89,890.0,0.9869,0.1738
1146.78,892.5,0.9839,0.1713
1151.66,895.0,0.984,0.1731
1156.54,897.5,0.9813,0.1699
1161.43,900.0,0.98,0.1678
1166.32,902.5,0.9783,0.169
1171.2,905.0,0.9759,0.1675
1176.09,907.5,0.9759,0.1649
1180.98,910.0,0.9743,0.1644
1185.87,912.5,0.9734,0.1608
1190.76,915.0,0.972,0.1532
1195.65,917.5,0.9704,0.1472
1200.54,920.0,0.9691,0.144
1205.44,922.5,0.9677,0.1418
1210.33,925.0,0.9677,0.1432
1215.23,927.5,0.9651,0.1432
1220.12,930.0,0.9652,0.1423
1225.01,932.5,0.9632,0.1324
1229.91,935.0,0.9618,0.1303
1234.8,937.5,0.9605,0.1274
1239.7,940.0,0.9592,0.1195
1244.6,942.5,0.9613,0.1144
1249.47,945.0,0.9573,0.1118
1254.39,947.5,0.9557,0.1063
1259.28,950.0,0.9553,0.1067
1264.18,952.5,0.9537,0.1014
1269.1,955.0,0.9537,0.0949
1274,957.5,0.9524,0.088
1278.91,960.0,0.951,0.0899
1283.83,962.5,0.9497,0.0835
1288.74,965.0,0.9497,0.0786
1293.66,967.5,0.9497,0.0745
1298.58,970.0,0.9473,0.07
1303.51,972.5,0.9471,0.0675
1308.45,975.0,0.9475,0.0583
1313.35,977.5,0.9467,0.0579
1318.3,980.0,0.9469,0.0482
1323.24,982.5,0.9445,0.0414
1328.17,985.0,0.9443,0.0357
1333.13,987.5,0.9432,0.0276
1338.08,990.0,0.9417,0.0197
1343.04,992.5,0.9404,0.0157
1347.99,995.0,0.9418,0.0061
1352.95,997.5,0.9405,0.0016
1357.91,1000.0,0.9392,-0.0058
1362.88,1002.5,0.9379,-0.0134
1367.84,1005.0,0.9379,-0.0186
1372.81,1007.5,0.9351,-0.023
1377.78,1010.0,0.9338,-0.029
1382.73,1012.5,0.9351,-0.0385
1387.73,1015.0,0.9351,-0.0406
1392.69,1017.5,0.9351,-0.0451
1397.68,1020.0,0.9337,-0.0537
1402.66,1022.5,0.9325,-0.0608
1407.64,1025.0,0.9318,-0.0712
1412.58,1027.5,0.9301,-0.0768
1417.57,1030.0,0.9311,-0.09
1422.56,1032.5,0.9312,-0.0928
1427.54,1035.0,0.9298,-0.0989
1432.52,1037.5,0.9286,-0.1094
1437.5,1040.0,0.9286,-0.1113
1442.48,1042.5,0.9285,-0.1226
1447.47,1045.0,0.9274,-0.1301
1452.45,1047.5,0.9259,-0.1327
1457.43,1050.0,0.9246,-0.1368
1462.42,1052.5,0.9246,-0.143
1467.41,1055.0,0.9239,-0.1519
1472.41,1057.5,0.9233,-0.1566
1477.41,1060.0,0.9246,-0.1644
1482.4,1062.5,0.9233,-0.1724
1484.4,1063.5,0.9233,-0.1748