Folder: matl-db/Wood/Calibration_Data/FSRI (part 2)

File: FSRI_DSC_N2_3K_R1.csv
Time (s),Temperature (K),Heat Flow Rate (W/g)
0,323.5,0.010
95.2674,326.0,0.050
159.5166,328.5,0.062
217.5024,331.0,0.070
272.0526,333.5,0.076
324.7362,336.0,0.082
376.2594,338.5,0.086
426.9756,341.0,0.090
477.0168,343.5,0.092
526.7058,346.0,0.090
576.471,348.5,0.088
625.9398,351.0,0.088
675.3078,353.5,0.088
724.5324,356.0,0.087
773.8308,358.5,0.087
822.8946,361.0,0.087
871.9248,363.5,0.085
920.4486,366.0,0.085
969.5946,368.5,0.084
1018.63,371.0,0.084
1067.51,373.5,0.085
1116.561,376.0,0.084
1165.24,378.5,0.084
1214.04,381.0,0.085
1263.147,383.5,0.087
1312.2,386.0,0.087
1360.81,388.5,0.089
1409.499,391.0,0.090
1458.264,393.5,0.092
1507.05,396.0,0.088
1555.59,398.5,0.090
1604.02,401.0,0.094
1652.45,403.5,0.095
1701.04,406.0,0.096
1749.69,408.5,0.098
1798.23,411.0,0.097
1846.71,413.5,0.098
1895.21,416.0,0.100
1943.586,418.5,0.102
1992.09,421.0,0.102
2040.52,423.5,0.102
2088.93,426.0,0.105
2137.3,428.5,0.108
2185.722,431.0,0.107
2234.2,433.5,0.108
2282.64,436.0,0.107
2331.22,438.5,0.107
2379.825,441.0,0.107
2428.341,443.5,0.110
2476.87,446.0,0.109
2525.52,448.5,0.113
2574.17,451.0,0.112
2622.64,453.5,0.112
2670.972,456.0,0.115
2719.431,458.5,0.113
2767.93,461.0,0.115
2816.34,463.5,0.116
2864.53,466.0,0.117
2913.02,468.5,0.117
2961.56,471.0,0.115
3009.93,473.5,0.114
3058.37,476.0,0.117
3106.79,478.5,0.115
3155.16,481.0,0.116
3203.56,483.5,0.116
3252,486.0,0.119
3300.49,488.5,0.118
3349.122,491.0,0.116
3397.74,493.5,0.119
3446.25,496.0,0.120
3494.82,498.5,0.121
3543.29,501.0,0.122
3591.87,503.5,0.122
3640.26,506.0,0.122
3688.65,508.5,0.121
3737.2,511.0,0.122
3785.98,513.5,0.123
3834.65,516.0,0.124
3883.2,518.5,0.124
3931.86,521.0,0.120
3980.49,523.5,0.121
4029.28,526.0,0.121
4077.84,528.5,0.124
4126.42,531.0,0.124
4175,533.5,0.125
4223.53,536.0,0.126
4272.09,538.5,0.124
4320.819,541.0,0.125
4369.43,543.5,0.125
4418.07,546.0,0.127
4466.946,548.5,0.129
4515.83,551.0,0.130
4564.81,553.5,0.133
4613.78,556.0,0.137
4662.59,558.5,0.139
4711.27,561.0,0.140
4760.03,563.5,0.143
4808.76,566.0,0.150
4857.61,568.5,0.151
4906.43,571.0,0.155
4955.45,573.5,0.159
5004.25,576.0,0.161
5053.01,578.5,0.167
5101.93,581.0,0.171
5150.85,583.5,0.175
5199.84,586.0,0.181
5248.73,588.5,0.182
5297.75,591.0,0.185
5346.51,593.5,0.189
5395.58,596.0,0.191
5444.82,598.5,0.194
5494.1,601.0,0.201
5543.29,603.5,0.206
5592.35,606.0,0.213
5641.4,608.5,0.222
5690.58,611.0,0.229
5739.96,613.5,0.242
5789.469,616.0,0.249
5838.89,618.5,0.251
5888.05,621.0,0.252
5937.201,623.5,0.239
5986.35,626.0,0.224
6035.44,628.5,0.188
6084.25,631.0,0.150
6132.99,633.5,0.102
6181.75,636.0,0.060
6230.69,638.5,0.030
6279.85,641.0,0.009
6328.97,643.5,0.003
6378.37,646.0,0.001
6427.85,648.5,-0.002
6477.46,651.0,-0.004
6526.91,653.5,-0.007
6576.366,656.0,-0.009
6625.81,658.5,-0.013
6675.36,661.0,-0.018
6725.09,663.5,-0.020
6774.807,666.0,-0.024
6824.31,668.5,-0.027
6873.91,671.0,-0.031
6923.568,673.5,-0.035
6973.31,676.0,-0.036
7023.02,678.5,-0.040
7072.74,681.0,-0.042
7122.3,683.5,-0.044
7172.26,686.0,-0.048
7222.03,688.5,-0.048
7271.595,691.0,-0.048
7321.09,693.5,-0.050
7370.75,696.0,-0.050
7420.632,698.5,-0.048
7470.3,701.0,-0.047
7520.03,703.5,-0.043
7569.91,706.0,-0.042
7619.88,708.5,-0.039
7669.63,711.0,-0.039
7719.504,713.5,-0.034
7769.34,716.0,-0.034
7819.45,718.5,-0.030
7869.35,721.0,-0.031
7919.23,723.5,-0.026
7969.29,726.0,-0.027
8019.18,728.5,-0.029
8069.12,731.0,-0.033
8119.11,733.5,-0.032
8168.99,736.0,-0.035
8218.803,738.5,-0.035
8268.834,741.0,-0.036
8318.83,743.5,-0.036
8368.68,746.0,-0.036
8418.51,748.5,-0.038
8468.44,751.0,-0.040
8518.47,753.5,-0.037
8568.57,756.0,-0.035
8618.76,758.5,-0.034
8668.65,761.0,-0.037
8718.81,763.5,-0.032
8769.15,766.0,-0.033
8819.46,768.5,-0.030
8869.76,771.0,-0.029
8920.36,773.5,-0.030
8970.78,776.0,-0.034
9020.89,778.5,-0.034
9070.87,781.0,-0.034
9120.81,783.5,-0.034
9170.73,786.0,-0.037
9220.93,788.5,-0.034
9271.16,791.0,-0.034
9321.384,793.5,-0.035
9371.44,796.0,-0.035
9421.68,798.5,-0.035
9471.939,801.0,-0.038
9522.087,803.5,-0.038
9572.34,806.0,-0.041
9622.548,808.5,-0.042
9672.825,811.0,-0.042
9723.2,813.5,-0.042
9773.41,816.0,-0.044
9823.59,818.5,-0.045
9874.04,821.0,-0.049
9924.393,823.5,-0.046
9974.65,826.0,-0.047
10025.2,828.5,-0.043
10075.9,831.0,-0.046
10126.4,833.5,-0.047
10176.903,836.0,-0.044
10227.1,838.5,-0.046
10277.112,841.0,-0.044
10327.4,843.5,-0.040
10377.9,846.0,-0.043
10428.8,848.5,-0.037
10479.1,851.0,-0.038
10529.517,853.5,-0.034
10579.9,856.0,-0.035
10630.4,858.5,-0.036
10680.834,861.0,-0.037
10731.1,863.5,-0.041
10781.697,866.0,-0.042
10832.2,868.5,-0.043
10882.8,871.0,-0.040
10933.2,873.5,-0.035
10983.6,876.0,-0.037
11034.1,878.5,-0.039
11084.7,881.0,-0.040
11135.1,883.5,-0.039
11185.533,886.0,-0.037
11236.203,888.5,-0.033
11287,891.0,-0.030
11337.8,893.5,-0.029
11388.5,896.0,-0.029
11439.2,898.5,-0.030
11490,901.0,-0.030
11540.7,903.5,-0.031
11591.6,906.0,-0.031
11642.3,908.5,-0.033
11692.7,911.0,-0.028
11743.9,913.5,-0.010
11794.683,916.0,-0.004
11845.5,918.5,-0.001
11895.7,921.0,-0.010
11946.675,923.5,-0.011
11997.9,926.0,-0.010
12048.9,928.5,-0.011
12099.9,931.0,-0.011
12150.4,933.5,-0.024
12201,936.0,-0.016
12251.5,938.5,-0.014
12302.4,941.0,-0.008
12353.4,943.5,-0.009
12404.3,946.0,-0.007
12455.229,948.5,-0.006
12505.812,951.0,-0.007
12556.719,953.5,-0.006
12607.7,956.0,-0.006
12658.8,958.5,-0.009
12709.4,961.0,-0.006
12759.9,963.5,-0.006
12810.7,966.0,-0.010
12861.7,968.5,-0.017
12912.5,971.0,-0.032
12963.153,973.5,-0.027
13013.9,976.0,-0.039
13065,978.5,-0.039
13116.2,981.0,-0.046
13167,983.5,-0.051
13217.9,986.0,-0.052
13269.1,988.5,-0.051
13320.132,991.0,-0.048
13371.2,993.5,-0.050
13422.1,996.0,-0.054
13472.952,998.5,-0.050
13523.7,1001.0,-0.054
13574.2,1003.5,-0.056
13625.415,1006.0,-0.051
13676.7,1008.5,-0.048
13728,1011.0,-0.048
13779.207,1013.5,-0.038
13830,1016.0,-0.036
13881.147,1018.5,-0.033
13932.309,1021.0,-0.028
13983.1,1023.5,-0.025
14033.9,1026.0,-0.025
14084.8,1028.5,-0.022
14135.904,1031.0,-0.027
14186.763,1033.5,-0.030
14237.622,1036.0,-0.037
14288.6,1038.5,-0.028
14340.1,1041.0,-0.029
14391.2,1043.5,-0.026
14442.1,1046.0,-0.015
14492.1,1048.5,-0.025
14543,1051.0,-0.012
14594.5,1053.5,-0.014
14646.1,1056.0,-0.004
14696.7,1058.5,-0.007
14747.4,1061.0,0.000
14767.8,1062.0,-0.002

File: FSRI_DSC_N2_10K_R1.csv
Time (s),Temperature (K),Heat Flow Rate (W/g)
0,324.5,0.0262217
45.67,327,0.0993224
71.55,329.5,0.138814
93.35,332,0.162534
113.28,334.5,0.178486
132.12,337,0.190559
150.23,339.5,0.202599
167.78,342,0.209668
185,344.5,0.218829
201.84,347,0.228134
218.42,349.5,0.236093
234.7,352,0.245086
250.76,354.5,0.249212
266.53,357,0.256282
282.19,359.5,0.26328
297.7,362,0.263887
312.96,364.5,0.26628
328.12,367,0.268975
343.1,369.5,0.267343
358.01,372,0.268169
372.86,374.5,0.268955
387.58,377,0.26799
402.26,379.5,0.267526
416.86,382,0.267262
431.51,384.5,0.268128
446.02,387,0.266985
460.56,389.5,0.269657
475.07,392,0.26706
489.59,394.5,0.271423
504.02,397,0.272605
518.47,399.5,0.271736
532.88,402,0.274103
547.17,404.5,0.276746
561.55,407,0.277642
575.86,409.5,0.280786
590.15,412,0.282977
604.39,414.5,0.28597
618.58,417,0.286091
632.82,419.5,0.289335
647,422,0.290096
661.2,424.5,0.293096
675.39,427,0.295557
689.57,429.5,0.300542
703.69,432,0.302426
717.82,434.5,0.30464
731.94,437,0.309645
746.05,439.5,0.31028
760.15,442,0.312605
774.33,444.5,0.317955
788.43,447,0.318033
802.53,449.5,0.322859
816.64,452,0.326537
830.76,454.5,0.331443
844.89,457,0.331748
858.98,459.5,0.335489
873.04,462,0.339763
887.12,464.5,0.342015
901.25,467,0.347139
915.33,469.5,0.345564
929.39,472,0.348662
943.51,474.5,0.353222
957.59,477,0.35462
971.68,479.5,0.358058
985.81,482,0.358552
999.92,484.5,0.360756
1014.08,487,0.368262
1028.23,489.5,0.368957
1042.39,492,0.372335
1056.5,494.5,0.373154
1070.61,497,0.376743
1084.77,499.5,0.381977
1098.91,502,0.381076
1113.06,504.5,0.38131
1127.18,507,0.383889
1141.35,509.5,0.3833
1155.53,512,0.384365
1169.66,514.5,0.387587
1183.85,517,0.391038
1198.03,519.5,0.390418
1212.2,522,0.389315
1226.36,524.5,0.393602
1240.47,527,0.393214
1254.64,529.5,0.393897
1268.88,532,0.391171
1283.05,534.5,0.392393
1297.26,537,0.388962
1311.5,539.5,0.389111
1325.7,542,0.38936
1339.87,544.5,0.388877
1354.15,547,0.392877
1368.37,549.5,0.390242
1382.63,552,0.392108
1396.89,554.5,0.391743
1411.17,557,0.391418
1425.47,559.5,0.394204
1439.79,562,0.396798
1454.05,564.5,0.396997
1468.37,567,0.403874
1482.66,569.5,0.403322
1496.94,572,0.408116
1511.27,574.5,0.411584
1525.57,577,0.414058
1539.9,579.5,0.420078
1554.23,582,0.428282
1568.57,584.5,0.434078
1582.96,587,0.441957
1597.35,589.5,0.450257
1611.72,592,0.460335
1626.13,594.5,0.46768
1640.51,597,0.473562
1654.94,599.5,0.482101
1669.35,602,0.489179
1683.79,604.5,0.498406
1698.2,607,0.504806
1712.65,609.5,0.516149
1727.11,612,0.529957
1741.55,614.5,0.539431
1756,617,0.551715
1770.44,619.5,0.567882
1784.88,622,0.58565
1799.33,624.5,0.606237
1813.83,627,0.631123
1828.36,629.5,0.657761
1842.89,632,0.6832267
1857.46,634.5,0.71073
1872.04,637,0.737479
1886.79,639.5,0.75796
1901.57,642,0.762597
1916.38,644.5,0.750101
1931.09,647,0.714746
1945.74,649.5,0.647879
1960.22,652,0.551559
1974.65,654.5,0.438801
1989.03,657,0.316378
2003.36,659.5,0.206149
2017.72,662,0.117564
2032.16,664.5,0.0651914
2046.61,667,0.0372091
2061.1,669.5,0.026073
2075.66,672,1.58E-02
2090.19,674.5,7.93E-03
2104.75,677,7.26E-04
2119.28,679.5,-5.94E-03
2133.93,682,-1.30E-02
2148.52,684.5,-1.85E-02
2163.14,687,-0.0292469
2177.8,689.5,-0.0372821
2192.41,692,-0.0421788
2207.07,694.5,-0.049937
2221.67,697,-0.0547683
2236.3,699.5,-0.0579975
2250.93,702,-0.0642569
2265.59,704.5,-0.0661285
2280.25,707,-0.06459194
2294.9,709.5,-0.0660353
2309.63,712,-0.063267
2324.37,714.5,-0.0586474
2339.1,717,-0.05281864
2353.87,719.5,-0.0444257
2368.62,722,-0.0408287
2383.38,724.5,-0.0357582
2398.13,727,-0.0308791
2412.87,729.5,-2.48E-02
2427.65,732,-1.71E-02
2442.42,734.5,-1.16E-02
2457.25,737,-7.14E-04
2472,739.5,2.03E-03
2486.79,742,8.34E-03
2501.54,744.5,1.37E-02
2516.27,747,1.30E-02
2531.04,749.5,1.66E-02
2545.8,752,1.91E-02
2560.6,754.5,1.93E-02
2575.43,757,0.0253501
2590.25,759.5,2.37E-02
2605.05,762,2.40E-02
2619.9,764.5,0.026461
2634.74,767,0.0258841
2649.6,769.5,2.39E-02
2664.45,772,0.03015869
2679.33,774.5,0.0264836
2694.18,777,0.0271385
2708.98,779.5,2.51E-02
2723.85,782,0.0259043
2738.69,784.5,0.0274861
2753.54,787,2.38E-02
2768.4,789.5,2.17E-02
2783.25,792,2.14E-02
2798.18,794.5,1.98E-02
2813.09,797,1.44E-02
2827.98,799.5,1.41E-02
2842.92,802,1.66E-02
2857.85,804.5,1.44E-02
2872.8,807,1.12E-02
2887.75,809.5,1.07E-02
2902.68,812,1.19E-02
2917.64,814.5,1.21E-02
2932.58,817,1.59E-02
2947.5,819.5,1.67E-02
2962.37,822,1.23E-02
2977.25,824.5,9.81E-03
2992.13,827,6.61E-03
3007.02,829.5,8.42E-03
3021.89,832,8.33E-03
3036.83,834.5,2.30E-03
3051.78,837,-7.86E-06
3066.76,839.5,-2.05E-03
3081.69,842,-2.87E-03
3096.66,844.5,-2.57E-03
3111.64,847,2.95E-04
3126.66,849.5,-4.44E-03
3141.67,852,-5.66E-03
3156.66,854.5,-7.90E-03
3171.67,857,-1.02E-02
3186.69,859.5,-1.42E-02
3201.69,862,-1.11E-02
3216.7,864.5,-1.46E-02
3231.72,867,-0.02679597
3246.74,869.5,-0.0287783
3261.72,872,-0.0252317
3276.71,874.5,-0.0306171
3291.73,877,-0.0390202
3306.76,879.5,-0.0389118
3321.83,882,-0.0423073
3336.87,884.5,-0.0465189
3351.9,887,-0.0519572
3366.97,889.5,-0.0510428
3381.98,892,-0.0552746
3397.06,894.5,-0.0599899
3412.13,897,-0.0604433
3427.18,899.5,-0.0638892
3442.26,902,-0.0610856
3457.33,904.5,-0.0667229
3472.44,907,-0.0682972
3487.55,909.5,-0.0705113
3502.69,912,-0.0714987
3517.82,914.5,-0.0712015
3532.95,917,-0.0730025
3548.02,919.5,-0.0768035
3563.12,922,-0.0762418
3578.21,924.5,-0.07811335
3593.31,927,-0.0793501
3608.45,929.5,-0.0823829
3623.6,932,-0.0765441
3638.72,934.5,-0.0725844
3653.87,937,-0.0769748
3669.02,939.5,-0.0789169
3684.18,942,-0.0753678
3699.36,944.5,-0.0771436
3714.59,947,-0.0758338
3729.87,949.5,-0.0768338
3745.08,952,-0.0814055
3760.28,954.5,-0.0806398
3775.45,957,-0.0804257
3790.66,959.5,-0.08029471
3805.82,962,-0.0846927
3821.01,964.5,-0.087267
3836.2,967,-0.08504534
3851.35,969.5,-0.0868237
3866.55,972,-0.0871108
3881.8,974.5,-0.0862821
3897.05,977,-0.0837582
3912.3,979.5,-0.0859572
3927.54,982,-0.0861209
3942.78,984.5,-0.0867078
3957.98,987,-0.08361461
3973.17,989.5,-0.08470529
3988.38,992,-0.0895139
4003.55,994.5,-0.0870554
4018.79,997,-0.084801
4033.99,999.5,-0.0832292
4049.2,1002,-0.07672796
4064.42,1004.5,-0.071471
4079.61,1007,-0.0695793
4094.79,1009.5,-0.0628363
4109.99,1012,-0.0655542
4125.13,1014.5,-0.0608489
4140.36,1017,-0.0596751
4155.61,1019.5,-0.0590176
4170.86,1022,-0.0543753
4186.11,1024.5,-0.0440831
4201.36,1027,-0.0377254
4216.62,1029.5,-0.0342242
4231.89,1032,-0.0255516
4247.2,1034.5,-1.40E-02
4262.46,1037,-4.50E-03
4277.76,1039.5,-1.12E-04
4293.02,1042,9.18E-04
4308.33,1044.5,8.36E-03
4323.62,1047,1.37E-02
4338.89,1049.5,1.66E-02
4354.16,1052,1.72E-02
4369.37,1054.5,2.43E-02
4384.62,1057,0.0290151
4399.9,1059.5,2.05E-02
4415.15,1062,0.0254458
4430.39,1064.5,0.0281511
4445.72,1067,0.0272846
4457.98,1069,0.03431738

File: FSRI_DSC_N2_10K_R2.csv
Time (s),Temperature (K),Heat Flow Rate (W/g)
0,324.5,0.0187371
45.813,327,0.0913459
71.6124,329.5,0.128143
93.3462,332,0.152376
113.2542,334.5,0.168516
132.0486,337,0.180045
150.1668,339.5,0.193088
167.7558,342,0.20215
184.9092,344.5,0.211434
201.7398,347,0.221228
218.2368,349.5,0.230724
234.5274,352,0.239915
250.506,354.5,0.244792
266.2782,357,0.249125
281.871,359.5,0.252441
297.2334,362,0.253574
312.4272,364.5,0.254875
327.5082,367,0.254867
342.4818,369.5,0.254401
357.2982,372,0.250386
372.0474,374.5,0.249842
386.7528,377,0.247175
401.3808,379.5,0.245491
415.9392,382,0.241496
430.5348,384.5,0.243494
445.0842,387,0.24216
459.5844,389.5,0.242419
474.0672,392,0.24082
488.5434,394.5,0.244674
502.9806,397,0.24508
517.329,399.5,0.24515
531.7278,402,0.248702
546.0588,404.5,0.251637
560.3622,407,0.253855
574.6284,409.5,0.255218
588.8784,412,0.257479
603.1836,414.5,0.259426
617.3916,417,0.264774
631.5606,419.5,0.262977
645.7626,422,0.268088
660.0024,424.5,0.270556
674.1282,427,0.271937
688.3398,429.5,0.274075
702.4746,432,0.278118
716.6436,434.5,0.279697
730.7994,437,0.282135
744.9348,439.5,0.284935
759.1158,442,0.287223
773.2734,444.5,0.29008
787.4556,447,0.293028
801.591,449.5,0.297326
815.7576,452,0.301479
829.9488,454.5,0.302875
844.1004,457,0.304466
858.2862,459.5,0.307564
872.4198,462,0.310514
886.5144,464.5,0.312877
900.6858,467,0.319033
914.8458,469.5,0.319586
929.0088,472,0.323138
943.1448,474.5,0.326301
957.354,477,0.328476
971.5068,479.5,0.329942
985.6956,482,0.332702
999.8898,484.5,0.338519
1014.066,487,0.339624
1028.3,489.5,0.343584
1042.482,492,0.347198
1056.7,494.5,0.346977
1070.95,497,0.349607
1085.16,499.5,0.348659
1099.35,502,0.351827
1113.6,504.5,0.352268
1127.78,507,0.352687
1142,509.5,0.350591
1156.2,512,0.352406
1170.42,514.5,0.353867
1184.67,517,0.355123
1198.87,519.5,0.355637
1213.14,522,0.355897
1227.36,524.5,0.356481
1241.61,527,0.358712
1255.84,529.5,0.359895
1270.09,532,0.359942
1284.336,534.5,0.360456
1298.58,537,0.362802
1312.85,539.5,0.361168
1327.1,542,0.361356
1341.34,544.5,0.358464
1355.63,547,0.358827
1369.88,549.5,0.356762
1384.21,552,0.356296
1398.49,554.5,0.357193
1412.781,557,0.359687
1427.049,559.5,0.359962
1441.34,562,0.361105
1455.64,564.5,0.36202
1469.937,567,0.365048
1484.24,569.5,0.3689599
1498.57,572,0.373
1512.84,574.5,0.37907
1527.2,577,0.38499
1541.544,579.5,0.388045
1555.89,582,0.3969599
1570.26,584.5,0.4060401
1584.66,587,0.414654
1599.08,589.5,0.421982
1613.45,592,0.430489
1627.82,594.5,0.440311
1642.27,597,0.449719
1656.65,599.5,0.456421
1671.07,602,0.462078
1685.46,604.5,0.470398
1699.87,607,0.477812
1714.23,609.5,0.485238
1728.74,612,0.496293
1743.16,614.5,0.504025
1757.613,617,0.515967
1772.13,619.5,0.530043
1786.59,622,0.549163
1801.12,624.5,0.569459
1815.636,627,0.592612
1830.17,629.5,0.616178
1844.73,632,0.644469
1859.29,634.5,0.673055
1873.89,637,0.697258
1888.38,639.5,0.713832
1902.94,642,0.720228
1917.47,644.5,0.710105
1931.916,647,0.678852
1946.31,649.5,0.622514
1960.62,652,0.53612
1974.88,654.5,0.426421
1989.11,657,0.305168
2003.38,659.5,0.192118
2017.72,662,0.0961153
2032.12,664.5,0.0346391
2046.62,667,0.004217258
2061.16,669.5,-0.0140896
2075.721,672,-2.25E-02
2090.316,674.5,-3.09E-02
2104.94,677,-3.61E-02
2119.55,679.5,-4.39E-02
2134.194,682,-5.31E-02
2148.81,684.5,-5.81E-02
2163.42,687,-0.0659724
2178.03,689.5,-0.0737093
2192.67,692,-0.0807769
2207.31,694.5,-0.0892381
2221.97,697,-0.090386
2236.65,699.5,-0.0985689
2251.344,702,-0.101063
2266.06,704.5,-0.104381
2280.8,707,-0.105195
2295.53,709.5,-0.107784
2310.237,712,-0.105657
2324.928,714.5,-0.102619
2339.64,717,-0.0969699
2354.37,719.5,-0.0926892
2369.12,722,-0.088401
2383.91,724.5,-0.0827544
2398.66,727,-0.0772381
2413.4,729.5,-7.17E-02
2428.19,732,-6.38E-02
2442.951,734.5,-5.93E-02
2457.77,737,-5.15E-02
2472.531,739.5,-5.09E-02
2487.35,742,-4.83E-02
2502.189,744.5,-4.12E-02
2517.02,747,-3.75E-02
2531.84,749.5,-3.26E-02
2546.69,752,-3.06E-02
2561.49,754.5,-2.83E-02
2576.35,757,-0.0283083
2591.19,759.5,-2.66E-02
2606.025,762,-2.60E-02
2620.83,764.5,-0.0249013
2635.65,767,-0.02797995
2650.5,769.5,-2.77E-02
2665.317,772,-0.02752381
2680.2,774.5,-0.02383517
2695.08,777,-0.0230141
2709.92,779.5,-2.20E-02
2724.765,782,-0.02221608
2739.62,784.5,-0.0223983
2754.474,787,-2.27E-02
2769.321,789.5,-2.04E-02
2784.21,792,-2.24E-02
2799.13,794.5,-2.11E-02
2814.02,797,-2.16E-02
2828.94,799.5,-1.57E-02
2843.85,802,-2.09E-02
2858.78,804.5,-2.10E-02
2873.7,807,-1.95E-02
2888.55,809.5,-1.13E-02
2903.517,812,-9.62E-03
2918.478,814.5,-1.06E-02
2933.4,817,-1.39E-02
2948.38,819.5,-1.59E-02
2963.34,822,-1.66E-02
2978.32,824.5,-2.29E-02
2993.3,827,-2.21E-02
3008.27,829.5,-2.83E-02
3023.21,832,-2.50E-02
3038.15,834.5,-2.59E-02
3053.09,837,-2.63E-02
3067.995,839.5,-2.62E-02
3082.92,842,-2.49E-02
3097.84,844.5,-2.78E-02
3112.75,847,-3.47E-02
3127.66,849.5,-3.79E-02
3142.6,852,-4.03E-02
3157.66,854.5,-3.66E-02
3172.66,857,-3.96E-02
3187.65,859.5,-3.96E-02
3202.67,862,-4.21E-02
3217.68,864.5,-4.46E-02
3232.68,867,-0.0517193
3247.64,869.5,-0.0529574
3262.66,872,-0.0518872
3277.7,874.5,-0.0544987
3292.69,877,-0.0569424
3307.731,879.5,-0.0620927
3322.72,882,-0.06887218
3337.79,884.5,-0.0701955
3352.84,887,-0.0722732
3367.9,889.5,-0.0740852
3382.97,892,-0.0788396
3398.06,894.5,-0.0838797
3413.16,897,-0.0852882
3428.25,899.5,-0.0814837
3443.31,902,-0.0836466
3458.4,904.5,-0.0831378
3473.49,907,-0.0827794
3488.52,909.5,-0.0858622
3503.59,912,-0.0910276
3518.65,914.5,-0.0937494
3533.72,917,-0.0961754
3548.83,919.5,-0.100216
3563.87,922,-0.0953584
3578.9,924.5,-0.101657
3593.89,927,-0.100872
3609.01,929.5,-0.102697
3624.09,932,-0.101584
3639.15,934.5,-0.101571
3654.21,937,-0.106386
3669.264,939.5,-0.105268
3684.33,942,-0.107644
3699.43,944.5,-0.110664
3714.57,947,-0.110637
3729.67,949.5,-0.1090401
3744.8,952,-0.106173
3759.906,954.5,-0.109113
3775.02,957,-0.110078
3790.16,959.5,-0.108331
3805.3,962,-0.115902
3820.42,964.5,-0.119193
3835.563,967,-0.122361
3850.662,969.5,-0.124
3865.8,972,-0.12113
3880.91,974.5,-0.119138
3896.037,977,-0.117441
3911.18,979.5,-0.117792
3926.346,982,-0.111902
3941.55,984.5,-0.109977
3956.742,987,-0.114449
3971.97,989.5,-0.112243
3987.2,992,-0.106303
4002.38,994.5,-0.104672
4017.52,997,-0.106784
4032.72,999.5,-0.0973033
4047.9,1002,-0.0936341
4063.158,1004.5,-0.09326817
4078.44,1007,-0.0875038
4093.65,1009.5,-0.0866391
4108.84,1012,-0.0794937
4124.08,1014.5,-0.0770175
4139.28,1017,-0.0769148
4154.47,1019.5,-0.0812757
4169.73,1022,-0.0834286
4184.91,1024.5,-0.0806942
4200.07,1027,-0.073203
4215.28,1029.5,-0.0696491
4230.49,1032,-0.0615088
4245.69,1034.5,-5.50E-02
4260.95,1037,-4.53E-02
4276.18,1039.5,-3.87E-02
4291.49,1042,-3.32E-02
4306.84,1044.5,-2.58E-02
4322.15,1047,-1.24E-02
4337.42,1049.5,-3.71E-03
4352.68,1052,1.14E-02
4367.93,1054.5,1.31E-02
4383.18,1057,0.0222369
4398.42,1059.5,3.07E-02
4413.684,1062,0.0312807
4428.99,1064.5,0.0361729
4444.29,1067,0.03879198
4456.52,1069,0.0479649

File: FSRI_DSC_N2_10K_R3.csv
Time (s),Temperature (K),Heat Flow Rate (W/g)
0,324.5,0.024
49.0644,327,0.102
75.2352,329.5,0.14
97.1592,332,0.165
117.1458,334.5,0.18
136.086,337,0.192
154.2936,339.5,0.202
171.9426,342,0.211
189.1248,344.5,0.219
205.9812,347,0.229
222.4938,349.5,0.237
238.6896,352,0.244
254.6922,354.5,0.251
270.498,357,0.257
286.1202,359.5,0.261
301.5084,362,0.265
316.7358,364.5,0.268
331.8114,367,0.27
346.7694,369.5,0.272
361.5942,372,0.271
376.4154,374.5,0.273
391.1442,377,0.274
405.8088,379.5,0.274
420.3966,382,0.275
434.9604,384.5,0.275
449.4588,387,0.273
464.0508,389.5,0.275
478.5672,392,0.277
493.083,394.5,0.277
507.5106,397,0.279
521.9022,399.5,0.279
536.2884,402,0.282
550.6164,404.5,0.285
564.9354,407,0.287
579.2466,409.5,0.289
593.5392,412,0.293
607.776,414.5,0.296
622.0122,417,0.295
636.2124,419.5,0.299
650.4498,422,0.301
664.6272,424.5,0.303
678.7962,427,0.307
692.9796,429.5,0.313
707.1282,432,0.314
721.2558,434.5,0.32
735.4458,437,0.322
749.6046,439.5,0.327
763.803,442,0.33
777.9288,444.5,0.339
792.0816,447,0.34
806.2476,449.5,0.343
820.4016,452,0.347
834.5466,454.5,0.347
848.6754,457,0.349
862.8102,459.5,0.355
876.978,462,0.359
891.114,464.5,0.361
905.2476,467,0.364
919.3998,469.5,0.369
933.5538,472,0.371
947.6964,474.5,0.377
961.8186,477,0.381
975.9354,479.5,0.383
990.0858,482,0.385
1004.24,484.5,0.39
1018.4,487,0.395
1032.49,489.5,0.398
1046.64,492,0.398
1060.79,494.5,0.4
1074.97,497,0.402
1089.1,499.5,0.405
1103.29,502,0.406
1117.43,504.5,0.409
1131.63,507,0.412
1145.81,509.5,0.414
1160.01,512,0.419
1174.17,514.5,0.416
1188.35,517,0.415
1202.526,519.5,0.417
1216.71,522,0.418
1230.927,524.5,0.421
1245.117,527,0.419
1259.31,529.5,0.42
1273.545,532,0.419
1287.76,534.5,0.418
1302.015,537,0.418
1316.24,539.5,0.42
1330.45,542,0.418
1344.7,544.5,0.421
1358.93,547,0.42
1373.2,549.5,0.421
1387.45,552,0.424
1401.72,554.5,0.423
1416,557,0.424
1430.28,559.5,0.424
1444.57,562,0.426
1458.89,564.5,0.427
1473.18,567,0.431
1487.52,569.5,0.432
1501.836,572,0.436
1516.14,574.5,0.442
1530.48,577,0.449
1544.79,579.5,0.46
1559.1,582,0.466
1573.44,584.5,0.472
1587.76,587,0.482
1602.11,589.5,0.492
1616.45,592,0.502
1630.8,594.5,0.506
1645.17,597,0.519
1659.58,599.5,0.53
1673.97,602,0.535
1688.418,604.5,0.547
1702.848,607,0.557
1717.29,609.5,0.567
1731.74,612,0.577
1746.14,614.5,0.589
1760.62,617,0.602
1775.07,619.5,0.617
1789.51,622,0.635
1804.014,624.5,0.659
1818.51,627,0.683
1833.01,629.5,0.713
1847.61,632,0.741
1862.175,634.5,0.771
1876.77,637,0.798
1891.34,639.5,0.818
1905.87,642,0.821
1920.32,644.5,0.81
1934.76,647,0.774
1949.14,649.5,0.711
1963.416,652,0.62
1977.69,654.5,0.507
1991.94,657,0.381
2006.169,659.5,0.27
2020.51,662,0.18
2034.87,664.5,0.122
2049.37,667,0.094
2063.88,669.5,0.079
2078.49,672,0.072
2093.082,674.5,0.065
2107.7,677,0.054
2122.27,679.5,0.048
2136.94,682,0.04
2151.5,684.5,0.036
2166.108,687,0.03
2180.7,689.5,0.023
2195.35,692,0.017
2210,694.5,0.012
2224.66,697,0.006
2239.3,699.5,0.004
2254.01,702,0.005
2268.69,704.5,0.005
2283.381,707,0.005
2298.06,709.5,0.006
2312.724,712,0.008
2327.47,714.5,0.01
2342.18,717,0.023
2356.88,719.5,0.027
2371.617,722,0.032
2386.34,724.5,0.038
2401.1,727,0.044
2415.843,729.5,0.042
2430.59,732,0.048
2445.35,734.5,0.058
2460.16,737,0.065
2474.92,739.5,0.069
2489.7,742,0.071
2504.45,744.5,0.075
2519.24,747,0.081
2533.977,749.5,0.088
2548.79,752,0.09
2563.56,754.5,0.095
2578.36,757,0.098
2593.15,759.5,0.098
2607.96,762,0.099
2622.78,764.5,0.1
2637.62,767,0.105
2652.42,769.5,0.106
2667.264,772,0.106
2682.129,774.5,0.104
2697,777,0.106
2711.841,779.5,0.109
2726.7,782,0.113
2741.53,784.5,0.115
2756.42,787,0.114
2771.29,789.5,0.114
2786.136,792,0.112
2801.02,794.5,0.114
2815.88,797,0.116
2830.78,799.5,0.118
2845.69,802,0.116
2860.617,804.5,0.114
2875.503,807,0.117
2890.41,809.5,0.114
2905.31,812,0.112
2920.22,814.5,0.116
2935.14,817,0.12
2950.11,819.5,0.125
2965.06,822,0.126
2979.98,824.5,0.13
2994.87,827,0.132
3009.85,829.5,0.129
3024.8,832,0.13
3039.73,834.5,0.13
3054.73,837,0.129
3069.7,839.5,0.131
3084.675,842,0.128
3099.66,844.5,0.13
3114.67,847,0.128
3129.67,849.5,0.126
3144.63,852,0.127
3159.64,854.5,0.121
3174.64,857,0.116
3189.66,859.5,0.113
3204.67,862,0.112
3219.66,864.5,0.109
3234.62,867,0.108
3249.64,869.5,0.111
3264.64,872,0.11
3279.65,874.5,0.108
3294.69,877,0.104
3309.72,879.5,0.103
3324.771,882,0.098
3339.79,884.5,0.098
3354.82,887,0.096
3369.83,889.5,0.093
3384.83,892,0.093
3399.84,894.5,0.094
3414.83,897,0.09
3429.86,899.5,0.089
3444.87,902,0.086
3459.9,904.5,0.084
3474.94,907,0.083
3489.98,909.5,0.082
3505.04,912,0.084
3520.08,914.5,0.077
3535.113,917,0.079
3550.16,919.5,0.078
3565.32,922,0.077
3580.43,924.5,0.079
3595.58,927,0.077
3610.73,929.5,0.078
3625.86,932,0.079
3640.98,934.5,0.08
3656.11,937,0.079
3671.2,939.5,0.078
3686.31,942,0.072
3701.403,944.5,0.075
3716.51,947,0.074
3731.67,949.5,0.076
3746.8,952,0.076
3761.96,954.5,0.078
3777.126,957,0.076
3792.29,959.5,0.076
3807.44,962,0.081
3822.61,964.5,0.077
3837.807,967,0.072
3853.01,969.5,0.071
3868.149,972,0.071
3883.3,974.5,0.068
3898.47,977,0.073
3913.61,979.5,0.071
3928.74,982,0.069
3943.91,984.5,0.073
3959.04,987,0.077
3974.268,989.5,0.078
3989.52,992,0.081
4004.74,994.5,0.082
4019.92,997,0.084
4035.13,999.5,0.084
4050.333,1002,0.081
4065.555,1004.5,0.084
4080.79,1007,0.086
4095.984,1009.5,0.086
4111.18,1012,0.084
4126.39,1014.5,0.089
4141.62,1017,0.091
4156.81,1019.5,0.093
4171.968,1022,0.091
4187.14,1024.5,0.094
4202.331,1027,0.097
4217.52,1029.5,0.097
4232.727,1032,0.097
4247.9,1034.5,0.099
4263.14,1037,0.104
4278.4,1039.5,0.107
4293.69,1042,0.115
4309.04,1044.5,0.117
4324.35,1047,0.116
4339.61,1049.5,0.12
4354.94,1052,0.121
4370.229,1054.5,0.124
4385.517,1057,0.122
4400.87,1059.5,0.132
4416.17,1062,0.135
4431.41,1064.5,0.134
4446.684,1067,0.135
4461.96,1069.5,0.134