Folder: matl-db/Wood/Calibration_Data/FSRI (part 8)

File: FSRI_Wood_Parallel_Cone_50kW_hor_R3.csv
Time,Mass (g),HRRPUA (kW/m2)
0.0,93.04,4.3
6.0,93.46,10.0
12.0,93.48,12.3
18.0,93.2,7.4
24.0,92.89,2.2
30.0,92.56,1.1
36.0,92.22,0.2
42.0,91.34,2.4
48.0,90.3,3.8
54.0,89.37,182.8
60.0,88.61,286.4
66.0,88.01,263.3
72.0,87.41,217.7
78.0,86.8,193.0
84.0,86.22,174.4
90.0,85.6,164.8
96.0,85.04,162.8
102.0,84.52,155.2
108.0,84.08,147.1
114.0,83.57,142.2
120.0,83.1,139.2
126.0,82.65,132.0
132.0,82.09,129.0
138.0,81.61,130.2
144.0,81.22,126.8
150.0,80.8,126.2
156.0,80.38,121.3
162.0,79.91,121.3
168.0,79.51,121.0
174.0,79.03,117.3
180.0,78.6,117.8
186.0,78.17,116.6
192.0,77.86,118.6
198.0,77.45,118.3
204.0,77.02,115.7
210.0,76.66,114.9
216.0,76.13,114.3
222.0,75.75,113.6
228.0,75.43,112.7
234.0,75.05,110.6
240.0,74.67,110.8
246.0,74.29,110.5
252.0,73.81,108.0
258.0,73.43,104.6
264.0,73.1,105.7
270.0,72.78,105.1
276.0,72.38,104.5
282.0,72.01,105.1
288.0,71.62,103.7
294.0,71.19,102.7
300.0,70.85,103.0
306.0,70.54,104.4
312.0,70.18,101.9
318.0,69.82,100.6
324.0,69.43,101.2
330.0,69.02,100.7
336.0,68.67,101.7
342.0,68.3,100.0
348.0,67.99,98.2
354.0,67.67,95.1
360.0,67.34,95.5
366.0,66.99,95.0
372.0,66.57,96.0
378.0,66.22,94.8
384.0,65.85,93.9
390.0,65.62,91.3
396.0,65.28,92.1
402.0,64.92,91.0
408.0,64.56,91.7
414.0,64.19,92.0
420.0,63.79,90.6
426.0,63.47,88.7
432.0,63.19,89.3
438.0,62.9,92.7
444.0,62.54,90.4
450.0,62.21,90.1
456.0,61.79,89.3
462.0,61.42,88.9
468.0,61.17,87.0
474.0,60.87,87.6
480.0,60.55,87.0
486.0,60.21,89.2
492.0,59.91,87.0
498.0,59.44,88.4
504.0,59.13,88.4
510.0,58.96,85.3
516.0,58.61,85.3
522.0,58.29,84.1
528.0,57.95,86.0
534.0,57.57,85.3
540.0,57.22,85.8
546.0,56.89,84.2
552.0,56.68,85.9
558.0,56.38,85.9
564.0,56.04,84.9
570.0,55.74,85.6
576.0,55.35,86.4
582.0,55.0,88.3
588.0,54.69,86.4
594.0,54.46,84.6
600.0,54.17,85.6
606.0,53.85,87.2
612.0,53.54,87.0
618.0,53.19,86.2
624.0,52.85,84.2
630.0,52.55,84.3
636.0,52.32,86.3
642.0,52.03,86.0
648.0,51.74,87.2
654.0,51.38,87.7
660.0,51.01,86.2
666.0,50.69,87.7
672.0,50.49,85.7
678.0,50.2,89.1
684.0,49.88,88.8
690.0,49.54,87.4
696.0,49.15,88.0
702.0,48.86,87.2
708.0,48.56,88.6
714.0,48.36,87.6
720.0,48.04,87.2
726.0,47.76,88.4
732.0,47.41,88.7
738.0,47.01,90.3
744.0,46.72,92.9
750.0,46.55,93.1
756.0,46.22,93.6
762.0,45.91,93.3
768.0,45.61,94.0
774.0,45.2,92.6
780.0,44.87,91.9
786.0,44.6,92.3
792.0,44.37,91.6
798.0,44.05,93.0
804.0,43.76,93.0
810.0,43.38,92.9
816.0,42.95,93.8
822.0,42.65,92.4
828.0,42.41,93.2
834.0,42.15,95.9
840.0,41.83,96.6
846.0,41.49,96.6
852.0,41.07,96.1
858.0,40.72,95.8
864.0,40.41,96.0
870.0,40.24,95.0
876.0,39.9,96.7
882.0,39.56,97.5
888.0,39.23,96.3
894.0,38.85,96.8
900.0,38.47,94.8
906.0,38.21,98.1
912.0,37.95,96.5
918.0,37.62,96.5
924.0,37.27,95.4
930.0,36.86,97.1
936.0,36.47,99.2
942.0,36.13,99.3
948.0,35.93,98.1
954.0,35.62,97.0
960.0,35.26,101.2
966.0,34.9,99.8
972.0,34.47,100.7
978.0,34.11,98.6
984.0,33.77,102.0
990.0,33.5,104.3
996.0,33.18,104.4
1002.0,32.84,105.4
1008.0,32.45,103.0
1014.0,32.05,103.6
1020.0,31.72,106.1
1026.0,31.4,105.0
1032.0,31.08,105.8
1038.0,30.74,104.3
1044.0,30.41,102.0
1050.0,29.96,103.0
1056.0,29.6,101.3
1062.0,29.33,106.4
1068.0,29.0,106.0
1074.0,28.67,103.6
1080.0,28.33,104.7
1086.0,27.9,105.5
1092.0,27.5,104.6
1098.0,27.13,104.2
1104.0,26.89,107.0
1110.0,26.57,105.8
1116.0,26.23,105.0
1122.0,25.88,105.0
1128.0,25.52,101.4
1134.0,25.11,103.5
1140.0,24.76,102.2
1146.0,24.51,100.9
1152.0,24.24,101.7
1158.0,23.85,101.6
1164.0,23.53,101.5
1170.0,23.11,100.9
1176.0,22.77,102.3
1182.0,22.45,103.0
1188.0,22.23,101.2
1194.0,21.91,102.2
1200.0,21.61,99.4
1206.0,21.25,100.1
1212.0,20.87,98.7
1218.0,20.57,95.5
1224.0,20.38,95.3
1230.0,20.08,93.7
1236.0,19.81,92.3
1242.0,19.54,91.4
1248.0,19.13,92.0
1254.0,18.87,90.0
1260.0,18.59,88.5
1266.0,18.47,86.3
1272.0,18.2,85.9
1278.0,17.98,83.7
1284.0,17.76,80.1
1290.0,17.44,80.3
1296.0,17.15,79.3
1302.0,16.94,74.4
1308.0,16.9,73.4
1314.0,16.72,71.3
1320.0,16.55,69.8
1326.0,16.37,65.4
1332.0,16.11,63.6
1338.0,15.93,62.7
1344.0,15.77,61.3
1350.0,15.75,59.2
1356.0,15.66,59.0
1362.0,15.53,56.0
1368.0,15.4,53.3
1374.0,15.18,51.8
1380.0,15.08,50.7
1386.0,15.04,49.2
1392.0,15.06,47.3
1398.0,14.97,46.8
1404.0,14.88,45.0
1410.0,14.69,42.0
1416.0,14.57,40.5
1422.0,14.5,40.4
1428.0,14.56,41.3
1434.0,14.48,40.1
1440.0,14.41,39.7
1446.0,14.35,40.3
1452.0,14.23,38.8
1458.0,14.08,38.8
1464.0,13.99,37.8
1470.0,14.04,37.7
1476.0,13.99,37.8
1482.0,13.96,39.2
1488.0,13.84,37.5
1494.0,13.66,35.7
1500.0,13.59,36.0
1506.0,13.68,35.5
1512.0,13.62,35.7
1518.0,13.58,35.8
1524.0,13.48,36.5
1530.0,13.31,37.1
1536.0,13.24,35.9
1542.0,13.21,35.7
1548.0,13.26,34.3
1554.0,13.16,34.2
1560.0,13.09,35.3
1566.0,12.91,34.4
1568.0,12.9,34.5

File: FSRI_Wood_Parallel_Cone_75kW_hor_R1.csv
Time,Mass (g),HRRPUA (kW/m2)
0.0,96.84,-2.1
5.0,96.23,-2.0
10.0,95.62,0.5
15.0,94.61,7.0
20.0,93.73,127.3
25.0,92.87,248.8
30.0,92.18,306.5
35.0,91.55,291.6
40.0,90.86,262.1
45.0,90.18,232.8
50.0,89.55,217.8
55.0,88.98,206.6
60.0,88.41,193.1
65.0,87.91,186.9
70.0,87.39,181.7
75.0,86.89,178.0
80.0,86.38,169.5
85.0,85.83,164.6
90.0,85.32,158.3
95.0,84.85,155.9
100.0,84.42,150.1
105.0,83.96,149.1
110.0,83.5,142.6
115.0,83.03,141.1
120.0,82.54,142.1
125.0,82.12,140.9
130.0,81.65,139.0
135.0,81.23,136.7
140.0,80.86,134.2
145.0,80.44,133.1
150.0,79.96,131.6
155.0,79.55,129.4
160.0,79.14,129.8
165.0,78.72,127.5
170.0,78.31,128.0
175.0,77.94,128.6
180.0,77.54,126.3
185.0,77.16,123.5
190.0,76.7,124.2
195.0,76.33,117.5
200.0,75.93,119.9
205.0,75.54,118.4
210.0,75.19,118.6
215.0,74.84,118.5
220.0,74.43,116.3
225.0,74.03,112.7
230.0,73.69,112.8
235.0,73.29,112.3
240.0,72.9,111.2
245.0,72.57,114.6
250.0,72.2,115.9
255.0,71.82,110.7
260.0,71.43,111.0
265.0,71.07,110.7
270.0,70.7,112.2
275.0,70.34,109.7
280.0,69.98,110.8
285.0,69.67,109.0
290.0,69.31,107.3
295.0,68.9,106.6
300.0,68.53,106.8
305.0,68.17,103.9
310.0,67.84,105.1
315.0,67.55,107.5
320.0,67.2,103.2
325.0,66.85,104.4
330.0,66.53,103.4
335.0,66.15,102.1
340.0,65.8,103.2
345.0,65.45,102.3
350.0,65.11,99.7
355.0,64.79,103.5
360.0,64.5,102.5
365.0,64.16,100.3
370.0,63.79,101.7
375.0,63.45,99.6
380.0,63.1,99.2
385.0,62.79,99.3
390.0,62.49,97.9
395.0,62.19,97.0
400.0,61.88,95.9
405.0,61.5,96.7
410.0,61.16,97.3
415.0,60.85,98.0
420.0,60.54,97.1
425.0,60.26,96.2
430.0,59.95,95.1
435.0,59.65,95.2
440.0,59.31,94.7
445.0,58.95,95.3
450.0,58.65,93.6
455.0,58.32,92.4
460.0,58.03,92.2
465.0,57.74,93.3
470.0,57.44,93.1
475.0,57.08,92.9
480.0,56.76,92.4
485.0,56.48,91.7
490.0,56.18,91.7
495.0,55.9,91.0
500.0,55.6,91.3
505.0,55.29,91.4
510.0,54.95,90.9
515.0,54.64,90.8
520.0,54.35,90.6
525.0,54.03,91.2
530.0,53.73,91.1
535.0,53.49,92.8
540.0,53.18,93.2
545.0,52.86,93.3
550.0,52.53,93.1
555.0,52.2,93.4
560.0,51.93,92.9
565.0,51.62,93.0
570.0,51.38,92.3
575.0,51.1,93.6
580.0,50.78,91.8
585.0,50.45,93.0
590.0,50.15,92.3
595.0,49.86,94.7
600.0,49.57,93.6
605.0,49.3,93.4
610.0,48.98,95.5
615.0,48.69,93.2
620.0,48.38,95.5
625.0,48.09,94.0
630.0,47.79,94.8
635.0,47.49,92.6
640.0,47.2,94.0
645.0,46.95,93.3
650.0,46.68,96.2
655.0,46.34,98.6
660.0,46.0,98.0
665.0,45.7,97.6
670.0,45.42,97.3
675.0,45.11,98.7
680.0,44.83,100.4
685.0,44.54,99.4
690.0,44.22,100.5
695.0,43.92,103.4
700.0,43.61,102.4
705.0,43.28,102.3
710.0,42.96,104.6
715.0,42.7,103.7
720.0,42.39,104.2
725.0,42.08,102.9
730.0,41.72,102.4
735.0,41.43,103.0
740.0,41.1,103.8
745.0,40.81,104.6
750.0,40.55,105.7
755.0,40.21,109.5
760.0,39.89,108.0
765.0,39.53,109.3
770.0,39.2,109.5
775.0,38.85,109.3
780.0,38.52,109.0
785.0,38.29,107.9
790.0,37.93,110.2
795.0,37.61,113.8
800.0,37.24,112.4
805.0,36.89,113.9
810.0,36.53,115.0
815.0,36.18,114.5
820.0,35.87,116.2
825.0,35.54,117.5
830.0,35.15,116.3
835.0,34.79,117.0
840.0,34.49,119.3
845.0,34.12,119.9
850.0,33.77,117.6
855.0,33.47,117.6
860.0,33.13,120.6
865.0,32.75,120.2
870.0,32.36,120.7
875.0,31.98,120.2
880.0,31.62,122.0
885.0,31.29,124.6
890.0,30.96,123.5
895.0,30.58,122.8
900.0,30.21,126.0
905.0,29.87,125.4
910.0,29.47,127.2
915.0,29.1,126.4
920.0,28.74,129.3
925.0,28.36,128.4
930.0,28.03,126.0
935.0,27.66,125.0
940.0,27.3,123.1
945.0,26.94,123.7
950.0,26.56,123.6
955.0,26.21,123.0
960.0,25.87,124.3
965.0,25.59,125.7
970.0,25.23,123.4
975.0,24.85,120.6
980.0,24.48,122.3
985.0,24.11,123.3
990.0,23.79,123.1
995.0,23.45,120.4
1000.0,23.15,120.2
1005.0,22.85,120.9
1010.0,22.5,119.2
1015.0,22.15,117.6
1020.0,21.82,120.0
1025.0,21.46,116.0
1030.0,21.2,114.7
1035.0,20.87,114.3
1040.0,20.6,114.5
1045.0,20.31,112.5
1050.0,20.04,115.4
1055.0,19.69,117.0
1060.0,19.39,115.8
1065.0,19.12,108.4
1070.0,18.83,107.4
1075.0,18.63,107.5
1080.0,18.36,104.4
1085.0,18.11,102.1
1090.0,17.83,100.9
1095.0,17.65,95.5
1100.0,17.42,93.7
1105.0,17.17,92.9
1110.0,17.02,91.4
1115.0,16.88,86.6
1120.0,16.64,83.0
1125.0,16.45,80.0
1130.0,16.29,77.3
1135.0,16.12,73.9
1140.0,16.0,72.6
1145.0,15.85,70.3
1150.0,15.73,68.5
1155.0,15.6,66.0
1160.0,15.43,64.9
1165.0,15.3,62.3
1170.0,15.19,59.7
1175.0,15.11,56.1
1180.0,15.01,56.7
1185.0,14.95,57.5
1190.0,14.9,53.6
1195.0,14.79,49.6
1200.0,14.68,47.9
1205.0,14.61,47.2
1210.0,14.53,46.0
1215.0,14.48,44.6
1220.0,14.45,42.9
1225.0,14.42,41.9
1230.0,14.35,41.5
1235.0,14.23,41.7
1240.0,14.14,42.2
1245.0,14.08,41.1
1250.0,14.03,38.9
1255.0,14.04,36.8
1260.0,13.99,36.9
1265.0,13.99,36.8
1270.0,13.91,37.5
1275.0,13.82,38.3
1280.0,13.78,38.3
1285.0,13.7,36.8
1290.0,13.64,35.5
1295.0,13.66,36.0
1300.0,13.65,36.1
1305.0,13.6,35.2
1310.0,13.46,35.3
1315.0,13.4,35.9
1320.0,13.36,35.3
1325.0,13.3,35.2
1330.0,13.3,35.6
1335.0,13.32,35.6
1339.0,13.27,34.9

File: FSRI_Wood_Parallel_Cone_75kW_hor_R2.csv
Time,Mass (g),HRRPUA (kW/m2)
0.0,99.16,2.0
5.0,99.07,8.0
10.0,98.53,10.9
15.0,97.61,15.0
20.0,96.74,114.8
25.0,95.89,248.6
30.0,95.13,302.5
35.0,94.44,286.4
40.0,93.83,257.2
45.0,93.19,235.7
50.0,92.61,219.5
55.0,92.09,206.0
60.0,91.58,193.4
65.0,91.0,185.7
70.0,90.48,174.8
75.0,90.0,172.7
80.0,89.53,165.1
85.0,89.07,160.1
90.0,88.62,155.3
95.0,88.2,151.1
100.0,87.72,150.7
105.0,87.21,146.4
110.0,86.82,143.4
115.0,86.39,141.7
120.0,85.96,140.9
125.0,85.56,139.1
130.0,85.15,137.6
135.0,84.75,135.2
140.0,84.3,133.6
145.0,83.84,134.0
150.0,83.47,130.7
155.0,83.06,128.0
160.0,82.66,129.7
165.0,82.24,128.4
170.0,81.87,127.5
175.0,81.43,124.0
180.0,81.03,122.9
185.0,80.64,121.9
190.0,80.26,122.6
195.0,79.91,118.5
200.0,79.5,121.4
205.0,79.1,119.0
210.0,78.65,122.7
215.0,78.31,122.4
220.0,77.92,121.5
225.0,77.54,115.4
230.0,77.17,118.6
235.0,76.8,115.8
240.0,76.43,116.7
245.0,76.0,115.7
250.0,75.64,115.5
255.0,75.26,113.5
260.0,74.9,115.6
265.0,74.56,116.2
270.0,74.17,116.7
275.0,73.84,114.8
280.0,73.43,114.7
285.0,73.0,114.8
290.0,72.67,116.0
295.0,72.35,114.4
300.0,71.99,113.7
305.0,71.6,114.9
310.0,71.22,111.4
315.0,70.85,114.6
320.0,70.45,114.5
325.0,70.07,113.3
330.0,69.75,114.7
335.0,69.41,115.4
340.0,69.06,112.9
345.0,68.69,114.7
350.0,68.29,115.6
355.0,67.92,114.3
360.0,67.6,112.2
365.0,67.24,114.1
370.0,66.88,114.5
375.0,66.59,114.3
380.0,66.25,113.8
385.0,65.86,113.4
390.0,65.47,112.5
395.0,65.11,113.4
400.0,64.73,112.4
405.0,64.41,112.2
410.0,64.06,113.6
415.0,63.74,112.0
420.0,63.39,112.9
425.0,62.97,110.8
430.0,62.67,113.2
435.0,62.29,113.1
440.0,61.98,111.1
445.0,61.63,113.0
450.0,61.29,111.0
455.0,60.96,112.2
460.0,60.56,110.1
465.0,60.22,112.7
470.0,59.87,109.6
475.0,59.53,112.3
480.0,59.21,109.0
485.0,58.88,112.2
490.0,58.55,109.9
495.0,58.2,111.0
500.0,57.87,111.2
505.0,57.45,108.7
510.0,57.12,110.3
515.0,56.79,109.4
520.0,56.52,109.7
525.0,56.16,109.2
530.0,55.77,108.0
535.0,55.42,109.6
540.0,55.08,108.7
545.0,54.75,109.0
550.0,54.39,108.7
555.0,54.1,112.1
560.0,53.75,111.7
565.0,53.46,109.1
570.0,53.04,107.2
575.0,52.67,107.9
580.0,52.33,111.9
585.0,51.99,112.3
590.0,51.65,112.2
595.0,51.4,112.0
600.0,51.04,112.1
605.0,50.59,113.8
610.0,50.26,113.7
615.0,49.93,113.9
620.0,49.63,113.0
625.0,49.26,111.7
630.0,48.99,112.4
635.0,48.66,114.3
640.0,48.27,110.8
645.0,47.91,114.8
650.0,47.56,116.2
655.0,47.21,113.0
660.0,46.85,112.9
665.0,46.62,114.9
670.0,46.24,115.5
675.0,45.89,114.2
680.0,45.53,115.8
685.0,45.2,116.1
690.0,44.87,113.1
695.0,44.5,114.3
700.0,44.19,115.9
705.0,43.86,115.0
710.0,43.51,112.3
715.0,43.15,114.7
720.0,42.82,112.4
725.0,42.47,112.2
730.0,42.14,114.3
735.0,41.86,114.6
740.0,41.49,112.2
745.0,41.2,109.7
750.0,40.8,110.5
755.0,40.49,112.5
760.0,40.17,112.6
765.0,39.83,113.4
770.0,39.52,114.4
775.0,39.23,117.0
780.0,38.85,114.9
785.0,38.48,113.7
790.0,38.17,115.9
795.0,37.84,116.8
800.0,37.55,113.7
805.0,37.22,116.3
810.0,36.88,114.9
815.0,36.53,116.8
820.0,36.2,113.6
825.0,35.87,113.1
830.0,35.52,115.3
835.0,35.16,115.5
840.0,34.88,115.8
845.0,34.53,116.2
850.0,34.15,118.0
855.0,33.8,118.1
860.0,33.5,118.0
865.0,33.12,116.9
870.0,32.82,118.3
875.0,32.54,118.6
880.0,32.19,116.9
885.0,31.79,117.5
890.0,31.45,117.9
895.0,31.09,118.6
900.0,30.76,118.7
905.0,30.47,119.2
910.0,30.14,119.9
915.0,29.8,120.0
920.0,29.43,118.9
925.0,29.05,119.2
930.0,28.72,117.8
935.0,28.39,117.5
940.0,28.06,119.7
945.0,27.76,118.3
950.0,27.39,118.3
955.0,27.02,120.5
960.0,26.67,120.7
965.0,26.32,120.0
970.0,25.94,120.5
975.0,25.63,121.4
980.0,25.33,119.0
985.0,24.99,123.2
990.0,24.61,122.8
995.0,24.26,117.6
1000.0,23.9,118.8
1005.0,23.57,123.2
1010.0,23.28,122.1
1015.0,22.95,118.6
1020.0,22.61,119.0
1025.0,22.27,119.8
1030.0,21.92,120.3
1035.0,21.59,119.3
1040.0,21.26,119.8
1045.0,20.96,121.3
1050.0,20.67,118.1
1055.0,20.36,117.8
1060.0,19.99,117.1
1065.0,19.73,112.8
1070.0,19.42,111.4
1075.0,19.14,110.0
1080.0,18.85,109.9
1085.0,18.62,110.9
1090.0,18.4,106.2
1095.0,18.14,102.7
1100.0,17.83,97.8
1105.0,17.6,96.4
1110.0,17.36,95.4
1115.0,17.14,94.5
1120.0,17.01,90.9
1125.0,16.84,89.7
1130.0,16.64,85.5
1135.0,16.4,81.4
1140.0,16.25,77.5
1145.0,16.08,75.5
1150.0,15.94,73.2
1155.0,15.83,69.9
1160.0,15.8,67.0
1165.0,15.71,63.5
1170.0,15.52,60.1
1175.0,15.4,58.4
1180.0,15.32,57.7
1185.0,15.22,56.0
1190.0,15.23,51.8
1195.0,15.2,50.2
1200.0,15.13,47.1
1205.0,14.96,45.9
1210.0,14.89,45.1
1215.0,14.86,42.6
1220.0,14.78,42.4
1225.0,14.75,42.4
1230.0,14.78,42.6
1235.0,14.74,41.0
1240.0,14.59,39.7
1245.0,14.52,39.9
1250.0,14.46,39.0
1255.0,14.41,38.6
1260.0,14.41,37.8
1265.0,14.39,37.6
1270.0,14.34,37.0
1275.0,14.26,36.2
1280.0,14.12,36.5
1285.0,14.05,36.1
1290.0,14.04,36.3
1295.0,14.0,36.9
1300.0,14.06,36.0
1305.0,13.97,37.5
1310.0,13.82,36.8
1315.0,13.79,37.5
1319.0,13.75,37.7

File: FSRI_Wood_Parallel_Cone_75kW_hor_R3.csv
Time,Mass (g),HRRPUA (kW/m2)
0.0,99.68,1.3
5.0,99.35,3.8
10.0,98.66,9.5
15.0,97.85,10.8
20.0,96.87,126.8
25.0,96.11,238.3
30.0,95.35,286.7
35.0,94.66,279.9
40.0,94.12,254.5
45.0,93.5,237.6
50.0,92.9,219.2
55.0,92.36,204.3
60.0,91.74,194.6
65.0,91.16,184.9
70.0,90.65,174.2
75.0,90.15,172.4
80.0,89.71,166.9
85.0,89.21,164.6
90.0,88.71,157.7
95.0,88.21,152.8
100.0,87.77,149.7
105.0,87.3,148.0
110.0,86.81,146.7
115.0,86.44,144.3
120.0,85.99,140.7
125.0,85.54,137.7
130.0,85.06,133.1
135.0,84.62,136.0
140.0,84.17,133.8
145.0,83.74,131.8
150.0,83.35,129.9
155.0,83.01,126.7
160.0,82.54,127.4
165.0,82.16,127.0
170.0,81.69,124.4
175.0,81.29,126.1
180.0,80.89,122.0
185.0,80.5,120.2
190.0,80.13,118.3
195.0,79.76,116.0
200.0,79.36,115.3
205.0,78.96,114.8
210.0,78.58,114.6
215.0,78.19,112.8
220.0,77.81,113.6
225.0,77.45,111.8
230.0,77.09,110.0
235.0,76.71,113.4
240.0,76.35,113.1
245.0,75.94,110.6
250.0,75.6,109.9
255.0,75.23,108.7
260.0,74.85,107.4
265.0,74.55,107.8
270.0,74.15,106.8
275.0,73.8,107.7
280.0,73.44,107.4
285.0,73.13,106.2
290.0,72.74,105.5
295.0,72.46,103.8
300.0,72.15,104.7
305.0,71.78,102.8
310.0,71.39,103.9
315.0,71.04,105.3
320.0,70.69,107.7
325.0,70.33,106.0
330.0,69.98,106.4
335.0,69.69,103.4
340.0,69.34,100.3
345.0,68.99,103.3
350.0,68.65,104.3
355.0,68.3,101.9
360.0,67.97,101.2
365.0,67.61,99.1
370.0,67.31,102.0
375.0,67.01,103.8
380.0,66.62,101.7
385.0,66.34,100.9
390.0,65.96,101.5
395.0,65.58,102.8
400.0,65.29,103.2
405.0,65.0,100.0
410.0,64.66,99.4
415.0,64.32,98.3
420.0,63.94,97.0
425.0,63.63,97.6
430.0,63.28,95.7
435.0,62.98,100.1
440.0,62.67,98.7
445.0,62.37,99.8
450.0,62.03,98.5
455.0,61.65,97.5
460.0,61.36,100.3
465.0,61.02,100.3
470.0,60.65,101.7
475.0,60.39,101.8
480.0,60.08,98.9
485.0,59.75,99.1
490.0,59.36,99.8
495.0,59.04,99.3
500.0,58.71,99.6
505.0,58.41,99.6
510.0,58.09,99.0
515.0,57.84,97.2
520.0,57.51,100.0
525.0,57.12,100.6
530.0,56.79,99.0
535.0,56.51,100.6
540.0,56.15,100.4
545.0,55.83,100.5
550.0,55.56,100.1
555.0,55.27,98.7
560.0,54.92,96.3
565.0,54.53,98.9
570.0,54.24,99.8
575.0,53.94,99.5
580.0,53.65,98.0
585.0,53.32,98.3
590.0,53.03,99.0
595.0,52.73,97.8
600.0,52.4,97.2
605.0,52.06,97.9
610.0,51.75,98.2
615.0,51.42,96.7
620.0,51.13,98.7
625.0,50.81,98.9
630.0,50.53,98.7
635.0,50.15,99.2
640.0,49.84,99.7
645.0,49.52,98.6
650.0,49.23,98.4
655.0,48.91,99.2
660.0,48.61,97.7
665.0,48.33,98.9
670.0,48.01,99.9
675.0,47.68,99.6
680.0,47.35,99.2
685.0,47.02,98.3
690.0,46.73,99.1
695.0,46.45,99.0
700.0,46.13,97.3
705.0,45.84,99.2
710.0,45.45,99.1
715.0,45.17,97.3
720.0,44.85,99.9
725.0,44.52,99.1
730.0,44.28,100.5
735.0,44.0,101.0
740.0,43.65,98.9
745.0,43.34,100.7
750.0,43.0,99.2
755.0,42.71,97.8
760.0,42.4,97.5
765.0,42.1,98.0
770.0,41.78,97.3
775.0,41.53,99.4
780.0,41.16,100.4
785.0,40.85,99.4
790.0,40.48,100.1
795.0,40.22,99.8
800.0,39.91,99.7
805.0,39.64,100.5
810.0,39.31,100.4
815.0,39.0,99.6
820.0,38.65,101.5
825.0,38.32,101.9
830.0,37.98,102.9
835.0,37.67,102.3
840.0,37.41,104.1
845.0,37.09,102.0
850.0,36.76,102.4
855.0,36.41,103.4
860.0,36.1,103.7
865.0,35.73,104.1
870.0,35.46,103.3
875.0,35.13,104.6
880.0,34.86,103.2
885.0,34.55,104.4
890.0,34.16,105.4
895.0,33.81,107.6
900.0,33.49,107.4
905.0,33.18,110.1
910.0,32.86,106.8
915.0,32.58,107.5
920.0,32.24,109.7
925.0,31.87,107.8
930.0,31.51,108.7
935.0,31.18,108.3
940.0,30.86,109.1
945.0,30.53,108.6
950.0,30.22,107.8
955.0,29.9,106.6
960.0,29.55,111.7
965.0,29.15,111.5
970.0,28.86,110.3
975.0,28.52,112.6
980.0,28.2,111.9
985.0,27.92,111.3
990.0,27.58,111.8
995.0,27.25,109.1
1000.0,26.87,109.4
1005.0,26.52,109.7
1010.0,26.2,107.6
1015.0,25.92,109.4
1020.0,25.61,107.5
1025.0,25.31,107.5
1030.0,24.94,109.9
1035.0,24.62,108.2
1040.0,24.31,105.6
1045.0,24.04,103.7
1050.0,23.72,105.2
1055.0,23.48,102.9
1060.0,23.2,101.1
1065.0,22.91,98.4
1070.0,22.6,98.4
1075.0,22.35,98.7
1080.0,22.09,96.1
1085.0,21.82,95.0
1090.0,21.6,92.5
1095.0,21.36,91.9
1100.0,21.09,89.2
1105.0,20.84,87.6
1110.0,20.65,85.8
1115.0,20.42,84.2
1120.0,20.2,84.2
1125.0,20.04,81.9
1130.0,19.86,78.9
1135.0,19.68,76.7
1140.0,19.47,74.0
1145.0,19.32,70.9
1150.0,19.17,67.2
1155.0,19.02,66.2
1160.0,18.92,63.6
1165.0,18.85,61.9
1170.0,18.72,57.1
1175.0,18.58,53.8
1180.0,18.48,50.1
1185.0,18.39,46.4
1190.0,18.32,43.3
1195.0,18.29,41.6
1200.0,18.25,40.0
1205.0,18.22,37.9
1210.0,18.09,35.9
1215.0,18.01,35.2
1220.0,17.94,35.0
1225.0,17.87,34.5
1230.0,17.88,33.6
1235.0,17.84,33.8
1240.0,17.79,32.4
1245.0,17.66,32.0
1250.0,17.6,31.3
1255.0,17.53,31.7
1260.0,17.49,32.1
1265.0,17.43,31.9
1270.0,17.43,30.4
1275.0,17.39,30.8
1280.0,17.33,31.0
1285.0,17.28,30.5
1290.0,17.18,30.6
1295.0,17.11,30.3
1300.0,17.08,30.1
1305.0,17.02,31.0
1310.0,17.04,30.6
1315.0,17.02,30.7
1320.0,16.97,30.6
1325.0,16.83,30.3
1330.0,16.78,29.5
1335.0,16.76,29.9
1340.0,16.68,29.5
1345.0,16.65,29.5
1350.0,16.69,30.2
1355.0,16.6,29.8
1360.0,16.48,29.4
1365.0,16.43,28.7
1370.0,16.39,29.4
1375.0,16.34,29.7
1377.0,16.32,29.2

File: FSRI_Wood_Perpendicular_Cone_25kW_hor_R1.csv
Time,Mass (g),HRRPUA (kW/m2)
0.0,102.06,-3.5
7.0,101.86,1.7
14.0,101.68,13.4
21.0,101.62,10.9
28.0,101.58,2.0
35.0,101.47,-1.8
42.0,101.37,-1.0
49.0,101.25,-1.2
56.0,101.1,1.7
63.0,101.06,3.1
70.0,101.01,6.8
77.0,100.92,7.5
84.0,100.8,11.1
91.0,100.62,9.9
98.0,100.53,10.5
105.0,100.32,10.8
112.0,99.74,13.4
119.0,99.11,71.1
126.0,98.46,130.6
133.0,97.76,153.1
140.0,97.2,155.0
147.0,96.7,143.9
154.0,96.17,134.0
161.0,95.67,126.5
168.0,95.2,119.7
175.0,94.63,112.5
182.0,94.24,105.7
189.0,93.84,100.8
196.0,93.42,100.3
203.0,93.03,97.6
210.0,92.57,92.0
217.0,92.13,88.4
224.0,91.83,84.3
231.0,91.44,79.7
238.0,91.06,78.0
245.0,90.73,76.9
252.0,90.3,73.0
259.0,89.88,71.0
266.0,89.61,70.9
273.0,89.25,68.3
280.0,88.85,67.6
287.0,88.52,67.9
294.0,88.11,64.1
301.0,87.72,63.3
308.0,87.44,62.7
315.0,87.07,64.6
322.0,86.73,62.2
329.0,86.35,62.2
336.0,85.93,60.2
343.0,85.54,58.5
350.0,85.31,56.4
357.0,84.93,55.5
364.0,84.58,54.5
371.0,84.27,53.1
378.0,83.84,52.3
385.0,83.5,51.7
392.0,83.24,51.7
399.0,82.88,52.2
406.0,82.57,49.7
413.0,82.24,48.2
420.0,81.81,48.6
427.0,81.57,48.3
434.0,81.26,47.0
441.0,80.92,46.5
448.0,80.61,46.0
455.0,80.19,45.1
462.0,79.89,46.0
469.0,79.65,46.3
476.0,79.35,45.4
483.0,79.02,43.8
490.0,78.73,44.7
497.0,78.32,43.4
504.0,78.04,40.8
511.0,77.77,40.4
518.0,77.47,40.4
525.0,77.16,39.7
532.0,76.86,39.2
539.0,76.52,39.9
546.0,76.22,39.1
553.0,75.98,38.9
560.0,75.68,38.1
567.0,75.39,37.4
574.0,75.1,37.8
581.0,74.71,36.7
588.0,74.49,35.2
595.0,74.22,36.4
602.0,73.95,36.2
609.0,73.68,35.6
616.0,73.38,35.3
623.0,73.06,34.8
630.0,72.79,33.6
637.0,72.59,33.5
644.0,72.3,33.5
651.0,72.0,32.4
658.0,71.75,34.5
665.0,71.39,34.9
672.0,71.21,35.1
679.0,70.97,36.3
686.0,70.68,37.1
693.0,70.44,38.4
700.0,70.15,38.8
707.0,69.85,36.7
714.0,69.64,36.1
721.0,69.39,35.1
728.0,69.14,37.2
735.0,68.9,35.3
742.0,68.61,35.2
749.0,68.32,34.4
756.0,68.09,35.4
763.0,67.92,33.8
770.0,67.66,31.5
777.0,67.42,30.9
784.0,67.22,31.0
791.0,66.91,33.0
798.0,66.62,33.7
805.0,66.47,34.5
812.0,66.25,33.7
819.0,65.98,34.5
826.0,65.75,34.4
833.0,65.53,34.8
840.0,65.19,33.9
847.0,65.02,36.0
854.0,64.81,36.3
861.0,64.58,37.8
868.0,64.33,36.5
875.0,64.09,36.8
882.0,63.8,38.5
889.0,63.52,40.4
896.0,63.36,42.3
903.0,63.11,43.4
910.0,62.86,44.3
917.0,62.6,43.8
924.0,62.33,43.3
931.0,62.03,42.8
938.0,61.84,43.2
945.0,61.61,43.4
952.0,61.36,42.7
959.0,61.06,43.0
966.0,60.79,43.2
973.0,60.47,44.6
980.0,60.28,46.8
987.0,60.02,48.9
994.0,59.74,48.7
1001.0,59.48,46.8
1008.0,59.21,49.3
1015.0,58.86,51.2
1022.0,58.67,52.7
1029.0,58.38,54.8
1036.0,58.09,55.3
1043.0,57.79,56.9
1050.0,57.42,58.4
1057.0,57.19,61.4
1064.0,56.9,61.8
1071.0,56.59,60.4
1078.0,56.28,61.2
1085.0,55.98,62.6
1092.0,55.57,65.7
1099.0,55.28,69.5
1106.0,55.02,70.0
1113.0,54.68,72.0
1120.0,54.33,69.0
1127.0,53.99,70.0
1134.0,53.66,70.8
1141.0,53.27,73.2
1148.0,52.96,75.0
1155.0,52.6,74.9
1162.0,52.25,76.3
1169.0,51.87,77.1
1176.0,51.5,78.4
1183.0,51.03,77.6
1190.0,50.74,77.1
1197.0,50.35,81.2
1204.0,49.97,84.1
1211.0,49.58,89.0
1218.0,49.21,86.7
1225.0,48.72,85.5
1232.0,48.43,86.3
1239.0,48.04,87.3
1246.0,47.65,85.9
1253.0,47.26,88.5
1260.0,46.78,87.9
1267.0,46.38,88.3
1274.0,46.03,87.0
1281.0,45.67,86.7
1288.0,45.23,87.9
1295.0,44.88,90.3
1302.0,44.38,91.6
1309.0,43.99,94.7
1316.0,43.64,98.7
1323.0,43.24,95.8
1330.0,42.87,95.4
1337.0,42.45,95.2
1344.0,41.96,97.5
1351.0,41.63,96.9
1358.0,41.25,97.9
1365.0,40.86,97.0
1372.0,40.48,93.6
1379.0,40.08,92.5
1386.0,39.64,92.0
1393.0,39.21,92.3
1400.0,38.91,93.3
1407.0,38.51,92.0
1414.0,38.12,90.9
1421.0,37.76,91.9
1428.0,37.29,94.6
1435.0,36.91,92.9
1442.0,36.65,89.7
1449.0,36.27,89.4
1456.0,35.91,89.9
1463.0,35.56,88.4
1470.0,35.15,87.7
1477.0,34.77,88.7
1484.0,34.52,85.9
1491.0,34.18,85.9
1498.0,33.84,84.5
1505.0,33.51,84.6
1512.0,33.07,84.9
1519.0,32.83,83.5
1526.0,32.54,82.6
1533.0,32.23,81.5
1540.0,31.91,79.6
1547.0,31.59,79.4
1554.0,31.23,78.1
1561.0,30.98,78.6
1568.0,30.69,77.2
1575.0,30.38,76.1
1582.0,30.12,75.6
1589.0,29.83,74.3
1596.0,29.49,76.2
1603.0,29.2,75.1
1610.0,29.0,73.9
1617.0,28.71,74.0
1624.0,28.44,71.8
1631.0,28.14,71.1
1638.0,27.86,70.5
1645.0,27.55,70.6
1652.0,27.35,71.2
1659.0,27.1,70.1
1666.0,26.88,66.8
1673.0,26.61,65.9
1680.0,26.38,66.8
1687.0,26.05,65.7
1694.0,25.92,65.2
1701.0,25.67,63.6
1708.0,25.46,62.3
1715.0,25.24,62.8
1722.0,25.05,61.8
1729.0,24.75,62.0
1736.0,24.58,59.1
1743.0,24.42,58.1
1750.0,24.23,55.8
1757.0,24.07,56.7
1764.0,23.8,60.6
1771.0,23.68,57.2
1778.0,23.55,53.4
1785.0,23.38,51.6
1792.0,23.23,48.9
1799.0,23.04,49.3
1806.0,22.85,48.6
1813.0,22.79,52.1
1820.0,22.63,50.0
1827.0,22.5,47.6
1834.0,22.36,47.3
1841.0,22.18,45.1
1848.0,22.04,42.7
1855.0,22.01,41.9
1862.0,21.88,40.4
1869.0,21.8,39.8
1876.0,21.69,39.6
1883.0,21.58,38.2
1890.0,21.39,36.8
1897.0,21.4,36.2
1904.0,21.31,36.0
1911.0,21.24,35.6
1918.0,21.17,36.9
1925.0,21.0,34.8
1932.0,20.91,38.2
1939.0,20.89,36.8
1946.0,20.83,34.7
1953.0,20.76,34.4
1960.0,20.71,31.4
1967.0,20.54,28.3
1974.0,20.5,25.8
1981.0,20.47,24.7
1988.0,20.42,23.8
1995.0,20.34,25.3
2002.0,20.28,27.2
2009.0,20.14,27.3
2016.0,20.08,26.2
2023.0,20.08,23.8
2030.0,20.01,23.8
2037.0,19.96,24.7
2044.0,19.9,25.1
2051.0,19.81,25.5
2058.0,19.69,24.8
2065.0,19.71,24.8
2072.0,19.64,25.4
2077.0,19.61,24.8