Folder: matl-db/Wood/Calibration_Data/FSRI (part 3)

File: FSRI_DSC_N2_30K_R1.csv
Time (s),Temperature (K),Heat Flow Rate (W/g)
0,325.0,2.34E-03
29.9352,327.5,1.19E-01
43.887,330.0,2.00E-01
54.6948,332.5,2.62E-01
63.9414,335.0,3.15E-01
72.2616,337.5,3.62E-01
80.0058,340.0,3.99E-01
87.2988,342.5,4.36E-01
94.2768,345.0,4.68E-01
101.019,347.5,4.98E-01
107.5428,350.0,5.28E-01
113.9082,352.5,5.54E-01
120.1404,355.0,5.79E-01
126.2004,357.5,6.02E-01
132.168,360.0,6.26E-01
138.0396,362.5,6.47E-01
143.8104,365.0,6.69E-01
149.4984,367.5,6.89E-01
155.118,370.0,7.05E-01
160.665,372.5,7.24E-01
166.155,375.0,7.39E-01
171.618,377.5,7.53E-01
177.0168,380.0,7.62E-01
182.3976,382.5,7.71E-01
187.7406,385.0,7.75E-01
193.029,387.5,7.84E-01
198.3072,390.0,7.84E-01
203.5338,392.5,7.84E-01
208.7412,395.0,7.83E-01
213.8556,397.5,7.83E-01
219.0078,400.0,7.84E-01
224.0946,402.5,7.85E-01
229.1574,405.0,7.85E-01
234.1716,407.5,7.88E-01
239.1522,410.0,7.91E-01
244.1166,412.5,7.95E-01
249.054,415.0,7.99E-01
253.9542,417.5,8.06E-01
258.8304,420.0,8.14E-01
263.688,422.5,8.18E-01
268.5192,425.0,8.27E-01
273.3402,427.5,8.36E-01
278.1402,430.0,8.44E-01
282.9336,432.5,8.54E-01
287.7066,435.0,8.64E-01
292.4532,437.5,8.74E-01
297.1962,440.0,8.84E-01
301.9272,442.5,8.95E-01
306.6468,445.0,9.03E-01
311.3526,447.5,9.19E-01
316.017,450.0,9.29E-01
320.6982,452.5,9.39E-01
325.3692,455.0,9.51E-01
330.0072,457.5,9.61E-01
334.6374,460.0,9.74E-01
339.246,462.5,9.84E-01
343.8384,465.0,9.93E-01
348.4218,467.5,1.00E+00
352.9908,470.0,1.02E+00
357.5532,472.5,1.03E+00
362.115,475.0,1.04E+00
366.663,477.5,1.05E+00
371.2086,480.0,1.06E+00
375.7374,482.5,1.07E+00
380.2614,485.0,1.09E+00
384.801,487.5,1.10E+00
389.3238,490.0,1.11E+00
393.8382,492.5,1.12E+00
398.3484,495.0,1.13E+00
402.8556,497.5,1.14E+00
407.3448,500.0,1.15E+00
411.8694,502.5,1.16E+00
416.3634,505.0,1.17E+00
420.8616,507.5,1.18E+00
425.3382,510.0,1.20E+00
429.8244,512.5,1.20E+00
434.3148,515.0,1.21E+00
438.7926,517.5,1.21E+00
443.2686,520.0,1.22E+00
447.741,522.5,1.23E+00
452.2074,525.0,1.23E+00
456.6786,527.5,1.23E+00
461.1366,530.0,1.23E+00
465.6048,532.5,1.23E+00
470.0556,535.0,1.23E+00
474.5142,537.5,1.23E+00
478.959,540.0,1.23E+00
483.4068,542.5,1.23E+00
487.8618,545.0,1.23E+00
492.3042,547.5,1.22E+00
496.7646,550.0,1.22E+00
501.2172,552.5,1.21E+00
505.6734,555.0,1.21E+00
510.1278,557.5,1.21E+00
514.5762,560.0,1.20E+00
519.0378,562.5,1.20E+00
523.494,565.0,1.20E+00
527.949,567.5,1.19E+00
532.413,570.0,1.19E+00
536.8728,572.5,1.19E+00
541.3332,575.0,1.19E+00
545.7972,577.5,1.18E+00
550.2612,580.0,1.18E+00
554.7336,582.5,1.18E+00
559.2066,585.0,1.18E+00
563.6754,587.5,1.18E+00
568.149,590.0,1.18E+00
572.6346,592.5,1.18E+00
577.1088,595.0,1.19E+00
581.6028,597.5,1.20E+00
586.0968,600.0,1.21E+00
590.5944,602.5,1.22E+00
595.0914,605.0,1.23E+00
599.5998,607.5,1.25E+00
604.0968,610.0,1.26E+00
608.613,612.5,1.27E+00
613.1202,615.0,1.29E+00
617.6334,617.5,1.30E+00
622.1556,620.0,1.32E+00
626.6802,622.5,1.33E+00
631.206,625.0,1.34E+00
635.7288,627.5,1.36E+00
640.248,630.0,1.37E+00
644.7834,632.5,1.38E+00
649.3272,635.0,1.40E+00
653.883,637.5,1.43E+00
658.4394,640.0,1.45E+00
663.0126,642.5,1.49E+00
667.5948,645.0,1.53E+00
672.174,647.5,1.58E+00
676.776,650.0,1.64E+00
681.396,652.5,1.71E+00
686.0088,655.0,1.77E+00
690.6216,657.5,1.83E+00
695.22,660.0,1.87E+00
699.786,662.5,1.89E+00
704.3754,665.0,1.87E+00
708.9,667.5,1.80E+00
713.3922,670.0,1.67E+00
717.8502,672.5,1.49E+00
722.2704,675.0,1.26E+00
726.6792,677.5,9.96E-01
731.0958,680.0,7.40E-01
735.5196,682.5,5.14E-01
739.9782,685.0,3.29E-01
744.4722,687.5,1.98E-01
749.016,690.0,1.17E-01
753.585,692.5,6.78E-02
758.1426,695.0,3.67E-02
762.7458,697.5,1.41E-02
767.3736,700.0,-1.96E-03
771.9936,702.5,-2.11E-02
776.5998,705.0,-3.81E-02
781.2198,707.5,-4.97E-02
785.8488,710.0,-6.49E-02
790.482,712.5,-7.92E-02
795.1152,715.0,-9.37E-02
799.752,717.5,-1.05E-01
804.399,720.0,-1.15E-01
809.0448,722.5,-1.24E-01
813.702,725.0,-1.29E-01
818.3646,727.5,-1.34E-01
823.0398,730.0,-1.32E-01
827.7126,732.5,-1.30E-01
832.4004,735.0,-1.22E-01
837.0894,737.5,-1.14E-01
841.7892,740.0,-1.03E-01
846.4908,742.5,-9.03E-02
851.181,745.0,-7.35E-02
855.8988,747.5,-5.66E-02
860.6514,750.0,-3.63E-02
865.3764,752.5,-1.76E-02
870.1038,755.0,-6.49E-04
874.8336,757.5,1.83E-02
879.57,760.0,2.99E-02
884.3118,762.5,4.90E-02
889.041,765.0,5.74E-02
893.7906,767.5,7.19E-02
898.5408,770.0,8.22E-02
903.2946,772.5,8.86E-02
908.0418,775.0,9.51E-02
912.8046,777.5,1.02E-01
917.568,780.0,1.10E-01
922.3386,782.5,1.11E-01
927.1056,785.0,1.14E-01
931.8828,787.5,1.18E-01
936.6606,790.0,1.19E-01
941.4354,792.5,1.21E-01
946.2222,795.0,1.25E-01
951.0096,797.5,1.29E-01
955.8066,800.0,1.45E-01
960.606,802.5,1.48E-01
965.4084,805.0,1.50E-01
970.2132,807.5,1.55E-01
975.0198,810.0,1.57E-01
979.836,812.5,1.57E-01
984.6402,815.0,1.61E-01
989.4642,817.5,1.62E-01
994.293,820.0,1.67E-01
999.132,822.5,1.65E-01
1003.97,825.0,1.65E-01
1008.8,827.5,1.69E-01
1013.68,830.0,1.68E-01
1018.54,832.5,1.68E-01
1023.4,835.0,1.70E-01
1028.27,837.5,1.71E-01
1033.143,840.0,1.71E-01
1038.02,842.5,1.69E-01
1042.9,845.0,1.70E-01
1047.78,847.5,1.71E-01
1052.67,850.0,1.73E-01
1057.542,852.5,1.76E-01
1062.42,855.0,1.74E-01
1067.316,857.5,1.75E-01
1072.19,860.0,1.75E-01
1077.07,862.5,1.71E-01
1081.95,865.0,1.76E-01
1086.822,867.5,1.75E-01
1091.7,870.0,1.75E-01
1096.581,872.5,1.79E-01
1101.46,875.0,1.76E-01
1106.33,877.5,1.74E-01
1111.22,880.0,1.76E-01
1116.09,882.5,1.74E-01
1120.98,885.0,1.72E-01
1125.84,887.5,1.73E-01
1130.74,890.0,1.76E-01
1135.63,892.5,1.71E-01
1140.51,895.0,1.73E-01
1145.39,897.5,1.70E-01
1150.28,900.0,1.68E-01
1155.165,902.5,1.69E-01
1160.04,905.0,1.67E-01
1164.94,907.5,1.65E-01
1169.829,910.0,1.64E-01
1174.71,912.5,1.61E-01
1179.603,915.0,1.52E-01
1184.5,917.5,1.47E-01
1189.39,920.0,1.44E-01
1194.29,922.5,1.43E-01
1199.178,925.0,1.42E-01
1204.08,927.5,1.43E-01
1208.97,930.0,1.42E-01
1213.86,932.5,1.32E-01
1218.75,935.0,1.31E-01
1223.64,937.5,1.27E-01
1228.55,940.0,1.19E-01
1233.44,942.5,1.15E-01
1238.316,945.0,1.12E-01
1243.24,947.5,1.06E-01
1248.13,950.0,1.07E-01
1253.03,952.5,1.01E-01
1257.945,955.0,9.53E-02
1262.847,957.5,8.85E-02
1267.76,960.0,9.04E-02
1272.68,962.5,8.38E-02
1277.59,965.0,7.87E-02
1282.51,967.5,7.42E-02
1287.43,970.0,6.86E-02
1292.36,972.5,6.62E-02
1297.29,975.0,5.80E-02
1302.2,977.5,5.64E-02
1307.151,980.0,4.86E-02
1312.08,982.5,4.09E-02
1317.02,985.0,3.50E-02
1321.98,987.5,2.72E-02
1326.93,990.0,1.95E-02
1331.89,992.5,1.53E-02
1336.84,995.0,5.68E-03
1341.801,997.5,7.62E-04
1346.76,1000.0,-6.11E-03
1351.73,1002.5,-1.39E-02
1356.69,1005.0,-1.85E-02
1361.66,1007.5,-2.37E-02
1366.63,1010.0,-2.98E-02
1371.58,1012.5,-3.89E-02
1376.58,1015.0,-4.04E-02
1381.54,1017.5,-4.45E-02
1386.53,1020.0,-5.44E-02
1391.51,1022.5,-6.07E-02
1396.48,1025.0,-7.21E-02
1401.43,1027.5,-7.71E-02
1406.421,1030.0,-9.00E-02
1411.41,1032.5,-9.29E-02
1416.39,1035.0,-9.96E-02
1421.37,1037.5,-1.10E-01
1426.35,1040.0,-1.12E-01
1431.33,1042.5,-1.23E-01
1436.32,1045.0,-1.30E-01
1441.3,1047.5,-1.33E-01
1446.29,1050.0,-1.37E-01
1451.274,1052.5,-1.43E-01
1456.26,1055.0,-1.51E-01
1461.261,1057.5,-1.59E-01
1466.26,1060.0,-1.66E-01
1471.25,1062.5,-1.73E-01
,,-1.75E-01

File: FSRI_DSC_N2_30K_R2.csv
Time (s),Temperature (K),Heat Flow Rate (W/g)
0,325.0,5.37E-03
30.0996,327.5,1.19E-01
44.0814,330.0,1.95E-01
54.8514,332.5,2.53E-01
64.0896,335.0,3.00E-01
72.3954,337.5,3.43E-01
80.0622,340.0,3.78E-01
87.3534,342.5,4.11E-01
94.3062,345.0,4.42E-01
101.007,347.5,4.71E-01
107.5002,350.0,4.93E-01
113.8206,352.5,5.17E-01
120.0048,355.0,5.38E-01
126.0756,357.5,5.58E-01
132.0342,360.0,5.77E-01
137.8662,362.5,5.98E-01
143.622,365.0,6.15E-01
149.2686,367.5,6.31E-01
154.89,370.0,6.46E-01
160.4328,372.5,6.60E-01
165.9342,375.0,6.74E-01
171.3582,377.5,6.82E-01
176.7504,380.0,6.91E-01
182.1222,382.5,6.96E-01
187.4436,385.0,7.01E-01
192.735,387.5,7.07E-01
197.9892,390.0,7.11E-01
203.22,392.5,7.12E-01
208.4022,395.0,7.14E-01
213.5598,397.5,7.17E-01
218.6754,400.0,7.14E-01
223.7616,402.5,7.20E-01
228.8016,405.0,7.25E-01
233.8098,407.5,7.28E-01
238.794,410.0,7.30E-01
243.744,412.5,7.37E-01
248.6742,415.0,7.44E-01
253.5678,417.5,7.52E-01
258.4404,420.0,7.57E-01
263.2908,422.5,7.65E-01
268.1082,425.0,7.73E-01
272.9292,427.5,7.82E-01
277.7178,430.0,7.91E-01
282.4974,432.5,7.98E-01
287.2572,435.0,8.07E-01
292.0068,437.5,8.16E-01
296.7462,440.0,8.26E-01
301.4676,442.5,8.35E-01
306.183,445.0,8.47E-01
310.8654,447.5,8.53E-01
315.5454,450.0,8.64E-01
320.2122,452.5,8.76E-01
324.8526,455.0,8.89E-01
329.4918,457.5,8.97E-01
334.101,460.0,9.08E-01
338.7006,462.5,9.20E-01
343.2996,465.0,9.30E-01
347.847,467.5,9.40E-01
352.4526,470.0,9.52E-01
357.0126,472.5,9.61E-01
361.5654,475.0,9.75E-01
366.1116,477.5,9.86E-01
370.6524,480.0,9.97E-01
375.18,482.5,1.01E+00
379.7148,485.0,1.02E+00
384.2406,487.5,1.03E+00
388.7604,490.0,1.04E+00
393.2766,492.5,1.05E+00
397.7916,495.0,1.06E+00
402.2928,497.5,1.07E+00
406.7988,500.0,1.08E+00
411.3024,502.5,1.09E+00
415.7916,505.0,1.10E+00
420.288,507.5,1.11E+00
424.7742,510.0,1.12E+00
429.2586,512.5,1.12E+00
433.7394,515.0,1.13E+00
438.2208,517.5,1.14E+00
442.695,520.0,1.14E+00
447.18,522.5,1.15E+00
451.6428,525.0,1.15E+00
456.105,527.5,1.15E+00
460.5708,530.0,1.16E+00
465.0192,532.5,1.16E+00
469.494,535.0,1.16E+00
473.9514,537.5,1.16E+00
478.4172,540.0,1.16E+00
482.8662,542.5,1.16E+00
487.32,545.0,1.16E+00
491.7732,547.5,1.16E+00
496.2282,550.0,1.15E+00
500.676,552.5,1.15E+00
505.1346,555.0,1.15E+00
509.5908,557.5,1.15E+00
514.047,560.0,1.15E+00
518.505,562.5,1.15E+00
522.9564,565.0,1.15E+00
527.421,567.5,1.15E+00
531.8826,570.0,1.15E+00
536.34,572.5,1.14E+00
540.8022,575.0,1.14E+00
545.2788,577.5,1.14E+00
549.7464,580.0,1.14E+00
554.2194,582.5,1.15E+00
558.6696,585.0,1.14E+00
563.1672,587.5,1.15E+00
567.645,590.0,1.16E+00
572.1234,592.5,1.16E+00
576.618,595.0,1.17E+00
581.1072,597.5,1.18E+00
585.6108,600.0,1.19E+00
590.106,602.5,1.21E+00
594.5928,605.0,1.23E+00
599.124,607.5,1.24E+00
603.6396,610.0,1.26E+00
608.1498,612.5,1.28E+00
612.672,615.0,1.30E+00
617.1852,617.5,1.31E+00
621.7254,620.0,1.33E+00
626.256,622.5,1.34E+00
630.7986,625.0,1.35E+00
635.3394,627.5,1.36E+00
639.8844,630.0,1.38E+00
644.4342,632.5,1.39E+00
648.9768,635.0,1.42E+00
653.5494,637.5,1.44E+00
658.1148,640.0,1.47E+00
662.7036,642.5,1.52E+00
667.2918,645.0,1.57E+00
671.8968,647.5,1.63E+00
676.5126,650.0,1.69E+00
681.12,652.5,1.76E+00
685.7388,655.0,1.84E+00
690.3768,657.5,1.90E+00
694.9908,660.0,1.97E+00
699.606,662.5,2.00E+00
704.1936,665.0,2.00E+00
708.7578,667.5,1.95E+00
713.2806,670.0,1.83E+00
717.7572,672.5,1.66E+00
722.1942,675.0,1.42E+00
726.6132,677.5,1.15E+00
731.0214,680.0,8.70E-01
735.4446,682.5,6.03E-01
739.9068,685.0,3.81E-01
744.4038,687.5,2.20E-01
748.9494,690.0,1.16E-01
753.5322,692.5,5.60E-02
758.1192,695.0,2.11E-02
762.738,697.5,-9.66E-03
767.3784,700.0,-2.50E-02
772.0014,702.5,-4.49E-02
776.6436,705.0,-5.72E-02
781.2912,707.5,-6.63E-02
785.943,710.0,-8.10E-02
790.5954,712.5,-8.83E-02
795.2556,715.0,-9.88E-02
799.923,717.5,-1.07E-01
804.5778,720.0,-1.16E-01
809.2626,722.5,-1.17E-01
813.9468,725.0,-1.19E-01
818.6418,727.5,-1.19E-01
823.335,730.0,-1.19E-01
828.0348,732.5,-1.11E-01
832.7412,735.0,-1.04E-01
837.4542,737.5,-9.32E-02
842.169,740.0,-8.04E-02
846.888,742.5,-6.25E-02
851.613,745.0,-4.84E-02
856.344,747.5,-2.96E-02
861.0774,750.0,-1.41E-02
865.8186,752.5,2.58E-03
870.5652,755.0,2.07E-02
875.3034,757.5,3.99E-02
880.0518,760.0,5.75E-02
884.8074,762.5,7.72E-02
889.5708,765.0,9.33E-02
894.3216,767.5,1.07E-01
899.0916,770.0,1.20E-01
903.8448,772.5,1.33E-01
908.61,775.0,1.45E-01
913.3812,777.5,1.52E-01
918.147,780.0,1.62E-01
922.9194,782.5,1.67E-01
927.6924,785.0,1.73E-01
932.4582,787.5,1.80E-01
937.2504,790.0,1.82E-01
942.0366,792.5,1.85E-01
946.83,795.0,1.86E-01
951.6132,797.5,1.89E-01
956.3922,800.0,1.95E-01
961.1856,802.5,1.97E-01
965.9922,805.0,2.00E-01
970.7904,807.5,1.98E-01
975.5862,810.0,2.04E-01
980.3916,812.5,2.04E-01
985.1952,815.0,2.06E-01
989.9994,817.5,2.07E-01
994.8138,820.0,2.09E-01
999.6324,822.5,2.12E-01
1004.45,825.0,2.13E-01
1009.25,827.5,2.17E-01
1014.08,830.0,2.21E-01
1018.905,832.5,2.23E-01
1023.73,835.0,2.28E-01
1028.58,837.5,2.32E-01
1033.41,840.0,2.32E-01
1038.25,842.5,2.37E-01
1043.09,845.0,2.38E-01
1047.93,847.5,2.43E-01
1052.781,850.0,2.48E-01
1057.62,852.5,2.49E-01
1062.49,855.0,2.49E-01
1067.34,857.5,2.51E-01
1072.21,860.0,2.50E-01
1077.06,862.5,2.52E-01
1081.93,865.0,2.51E-01
1086.8,867.5,2.53E-01
1091.661,870.0,2.50E-01
1096.53,872.5,2.56E-01
1101.408,875.0,2.54E-01
1106.28,877.5,2.55E-01
1111.16,880.0,2.56E-01
1116.03,882.5,2.52E-01
1120.932,885.0,2.54E-01
1125.81,887.5,2.50E-01
1130.7,890.0,2.54E-01
1135.58,892.5,2.49E-01
1140.477,895.0,2.47E-01
1145.379,897.5,2.48E-01
1150.28,900.0,2.48E-01
1155.18,902.5,2.45E-01
1160.08,905.0,2.43E-01
1164.981,907.5,2.43E-01
1169.88,910.0,2.43E-01
1174.8,912.5,2.42E-01
1179.7,915.0,2.42E-01
1184.616,917.5,2.39E-01
1189.53,920.0,2.38E-01
1194.43,922.5,2.38E-01
1199.35,925.0,2.34E-01
1204.26,927.5,2.32E-01
1209.17,930.0,2.28E-01
1214.08,932.5,2.28E-01
1218.999,935.0,2.27E-01
1223.919,937.5,2.28E-01
1228.84,940.0,2.29E-01
1233.75,942.5,2.27E-01
1238.68,945.0,2.24E-01
1243.6,947.5,2.21E-01
1248.52,950.0,2.18E-01
1253.45,952.5,2.22E-01
1258.38,955.0,2.20E-01
1263.32,957.5,2.17E-01
1268.238,960.0,2.14E-01
1273.18,962.5,2.11E-01
1278.11,965.0,2.08E-01
1283.04,967.5,2.07E-01
1287.99,970.0,2.01E-01
1292.931,972.5,2.04E-01
1297.87,975.0,1.97E-01
1302.81,977.5,1.97E-01
1307.75,980.0,1.90E-01
1312.707,982.5,1.89E-01
1317.657,985.0,1.83E-01
1322.61,987.5,1.80E-01
1327.57,990.0,1.76E-01
1332.54,992.5,1.70E-01
1337.5,995.0,1.64E-01
1342.46,997.5,1.60E-01
1347.43,1000.0,1.53E-01
1352.4,1002.5,1.51E-01
1357.37,1005.0,1.44E-01
1362.33,1007.5,1.44E-01
1367.32,1010.0,1.36E-01
1372.31,1012.5,1.33E-01
1377.294,1015.0,1.29E-01
1382.289,1017.5,1.23E-01
1387.26,1020.0,1.20E-01
1392.252,1022.5,1.12E-01
1397.23,1025.0,1.12E-01
1402.22,1027.5,9.76E-02
1407.2,1030.0,8.92E-02
1412.19,1032.5,8.36E-02
1417.18,1035.0,7.77E-02
1422.168,1037.5,7.92E-02
1427.16,1040.0,7.06E-02
1432.14,1042.5,7.10E-02
1437.13,1045.0,6.49E-02
1442.12,1047.5,5.78E-02
1447.12,1050.0,5.14E-02
1452.1,1052.5,4.98E-02
1457.1,1055.0,4.31E-02
1462.09,1057.5,3.46E-02
1467.07,1060.0,2.50E-02
1472.07,1062.5,2.58E-02
1473.07,1063.0,2.18E-02

File: FSRI_DSC_N2_30K_R3.csv
Time (s),Temperature (K),Heat Flow Rate (W/g)
0,325.0,6.68E-03
33.3696,327.5,1.26E-01
47.5632,330.0,2.06E-01
58.38,332.5,2.66E-01
67.6104,335.0,3.18E-01
75.9396,337.5,3.60E-01
83.643,340.0,3.98E-01
90.8886,342.5,4.32E-01
97.806,345.0,4.62E-01
104.4744,347.5,4.90E-01
110.9796,350.0,5.17E-01
117.2802,352.5,5.41E-01
123.4422,355.0,5.61E-01
129.5022,357.5,5.82E-01
135.4446,360.0,6.02E-01
141.2796,362.5,6.22E-01
147.0228,365.0,6.40E-01
152.7,367.5,6.57E-01
158.2998,370.0,6.76E-01
163.8252,372.5,6.88E-01
169.3368,375.0,7.01E-01
174.774,377.5,7.11E-01
180.1656,380.0,7.22E-01
185.5548,382.5,7.30E-01
190.8768,385.0,7.35E-01
196.1694,387.5,7.41E-01
201.4602,390.0,7.43E-01
206.6958,392.5,7.44E-01
211.902,395.0,7.46E-01
217.0758,397.5,7.47E-01
222.2244,400.0,7.49E-01
227.3226,402.5,7.53E-01
232.3824,405.0,7.57E-01
237.4278,407.5,7.60E-01
242.4306,410.0,7.64E-01
247.4064,412.5,7.72E-01
252.3366,415.0,7.76E-01
257.2794,417.5,7.84E-01
262.1742,420.0,7.92E-01
267.0546,422.5,7.99E-01
271.9044,425.0,8.10E-01
276.7392,427.5,8.16E-01
281.5536,430.0,8.27E-01
286.3416,432.5,8.35E-01
291.1428,435.0,8.41E-01
295.9152,437.5,8.50E-01
300.6672,440.0,8.61E-01
305.4246,442.5,8.70E-01
310.1358,445.0,8.81E-01
314.8674,447.5,8.91E-01
319.5588,450.0,9.01E-01
324.2412,452.5,9.11E-01
328.9116,455.0,9.22E-01
333.543,457.5,9.31E-01
338.1702,460.0,9.42E-01
342.774,462.5,9.53E-01
347.3568,465.0,9.62E-01
351.9636,467.5,9.72E-01
356.5494,470.0,9.83E-01
361.122,472.5,9.94E-01
365.6574,475.0,1.01E+00
370.2102,477.5,1.02E+00
374.775,480.0,1.03E+00
379.3218,482.5,1.04E+00
383.856,485.0,1.05E+00
388.3854,487.5,1.06E+00
392.9046,490.0,1.07E+00
397.4304,492.5,1.08E+00
401.9268,495.0,1.09E+00
406.4382,497.5,1.10E+00
410.943,500.0,1.11E+00
415.4388,502.5,1.12E+00
419.9262,505.0,1.13E+00
424.422,507.5,1.14E+00
428.904,510.0,1.14E+00
433.3842,512.5,1.15E+00
437.853,515.0,1.15E+00
442.3314,517.5,1.16E+00
446.7996,520.0,1.16E+00
451.2444,522.5,1.17E+00
455.7318,525.0,1.17E+00
460.1982,527.5,1.18E+00
464.6502,530.0,1.18E+00
469.1148,532.5,1.18E+00
473.565,535.0,1.18E+00
478.0194,537.5,1.18E+00
482.466,540.0,1.18E+00
486.882,542.5,1.18E+00
491.3268,545.0,1.18E+00
495.816,547.5,1.18E+00
500.2668,550.0,1.17E+00
504.7122,552.5,1.17E+00
509.1648,555.0,1.17E+00
513.6114,557.5,1.17E+00
518.0448,560.0,1.17E+00
522.5208,562.5,1.16E+00
526.965,565.0,1.16E+00
531.4134,567.5,1.16E+00
535.8738,570.0,1.16E+00
540.3342,572.5,1.16E+00
544.7856,575.0,1.16E+00
549.2454,577.5,1.16E+00
553.7082,580.0,1.16E+00
558.1704,582.5,1.16E+00
562.632,585.0,1.16E+00
567.0816,587.5,1.17E+00
571.5564,590.0,1.17E+00
576.027,592.5,1.19E+00
580.5024,595.0,1.19E+00
584.9718,597.5,1.21E+00
589.449,600.0,1.22E+00
593.931,602.5,1.23E+00
598.4112,605.0,1.25E+00
602.901,607.5,1.26E+00
607.3752,610.0,1.28E+00
611.8956,612.5,1.30E+00
616.3914,615.0,1.32E+00
620.8884,617.5,1.34E+00
625.3968,620.0,1.35E+00
629.9046,622.5,1.37E+00
634.4154,625.0,1.38E+00
638.9244,627.5,1.40E+00
643.4436,630.0,1.41E+00
647.9784,632.5,1.43E+00
652.5144,635.0,1.45E+00
657.0612,637.5,1.48E+00
661.6122,640.0,1.51E+00
666.1746,642.5,1.55E+00
670.7532,645.0,1.60E+00
675.3414,647.5,1.66E+00
679.953,650.0,1.73E+00
684.5586,652.5,1.80E+00
689.1876,655.0,1.88E+00
693.8148,657.5,1.94E+00
698.4402,660.0,2.00E+00
703.0488,662.5,2.03E+00
707.6406,665.0,2.03E+00
712.1856,667.5,1.97E+00
716.7096,670.0,1.85E+00
721.197,672.5,1.66E+00
725.64,675.0,1.42E+00
730.0548,677.5,1.14E+00
734.4714,680.0,8.49E-01
738.8994,682.5,5.84E-01
743.3478,685.0,3.61E-01
747.8574,687.5,1.94E-01
752.4006,690.0,8.74E-02
756.9864,692.5,2.98E-02
761.5914,695.0,-1.27E-02
766.1982,697.5,-4.66E-02
770.8146,700.0,-6.42E-02
775.4394,702.5,-8.56E-02
780.0876,705.0,-1.00E-01
784.7238,707.5,-1.17E-01
789.3666,710.0,-1.35E-01
794.0124,712.5,-1.49E-01
798.6624,715.0,-1.64E-01
803.3124,717.5,-1.75E-01
807.9636,720.0,-1.83E-01
812.628,722.5,-1.91E-01
817.2882,725.0,-1.97E-01
821.9634,727.5,-1.93E-01
826.641,730.0,-1.96E-01
831.3258,732.5,-1.90E-01
836.0112,735.0,-1.85E-01
840.705,737.5,-1.74E-01
845.403,740.0,-1.59E-01
850.1124,742.5,-1.41E-01
854.8314,745.0,-1.23E-01
859.5444,747.5,-1.02E-01
864.267,750.0,-8.52E-02
868.9836,752.5,-6.33E-02
873.6846,755.0,-4.68E-02
878.436,757.5,-2.78E-02
883.182,760.0,-1.13E-02
887.9196,762.5,-8.13E-04
892.6626,765.0,1.76E-02
897.4086,767.5,3.23E-02
902.1504,770.0,4.20E-02
906.888,772.5,5.45E-02
911.6364,775.0,6.15E-02
916.4166,777.5,6.29E-02
921.1758,780.0,6.33E-02
925.938,782.5,6.72E-02
930.7044,785.0,7.77E-02
935.4594,787.5,7.93E-02
940.2348,790.0,8.25E-02
945.0162,792.5,8.87E-02
949.7958,795.0,8.72E-02
954.558,797.5,9.41E-02
959.3484,800.0,9.04E-02
964.1334,802.5,9.61E-02
968.9202,805.0,9.81E-02
973.7064,807.5,1.01E-01
978.4998,810.0,1.04E-01
983.265,812.5,1.05E-01
988.0668,815.0,1.05E-01
992.8794,817.5,9.95E-02
997.671,820.0,1.07E-01
1002.46,822.5,1.05E-01
1007.26,825.0,9.77E-02
1012.074,827.5,1.05E-01
1016.9,830.0,1.05E-01
1021.7,832.5,1.06E-01
1026.51,835.0,1.03E-01
1031.32,837.5,1.04E-01
1036.14,840.0,1.04E-01
1040.96,842.5,9.95E-02
1045.773,845.0,9.69E-02
1050.58,847.5,9.79E-02
1055.4,850.0,9.46E-02
1060.22,852.5,9.35E-02
1065.04,855.0,9.26E-02
1069.869,857.5,9.33E-02
1074.699,860.0,8.85E-02
1079.52,862.5,9.04E-02
1084.36,865.0,9.16E-02
1089.2,867.5,9.03E-02
1094.02,870.0,8.82E-02
1098.86,872.5,8.91E-02
1103.71,875.0,8.71E-02
1108.54,877.5,8.72E-02
1113.39,880.0,8.36E-02
1118.23,882.5,8.09E-02
1123.09,885.0,7.73E-02
1127.946,887.5,7.36E-02
1132.81,890.0,6.83E-02
1137.66,892.5,6.67E-02
1142.53,895.0,6.52E-02
1147.39,897.5,6.06E-02
1152.258,900.0,5.85E-02
1157.12,902.5,5.59E-02
1162,905.0,5.55E-02
1166.874,907.5,5.35E-02
1171.75,910.0,5.88E-02
1176.63,912.5,4.74E-02
1181.52,915.0,4.16E-02
1186.41,917.5,4.55E-02
1191.3,920.0,4.17E-02
1196.19,922.5,3.50E-02
1201.08,925.0,2.53E-02
1205.97,927.5,2.28E-02
1210.86,930.0,1.85E-02
1215.75,932.5,9.43E-03
1220.65,935.0,2.84E-03
1225.55,937.5,-1.79E-03
1230.48,940.0,-1.00E-02
1235.41,942.5,-1.05E-02
1240.31,945.0,-1.74E-02
1245.23,947.5,-2.12E-02
1250.15,950.0,-2.74E-02
1255.077,952.5,-3.44E-02
1259.997,955.0,-3.91E-02
1264.93,957.5,-4.33E-02
1269.83,960.0,-4.88E-02
1274.77,962.5,-6.16E-02
1279.7,965.0,-6.38E-02
1284.63,967.5,-6.70E-02
1289.57,970.0,-7.28E-02
1294.51,972.5,-8.20E-02
1299.46,975.0,-8.68E-02
1304.37,977.5,-9.73E-02
1309.36,980.0,-1.03E-01
1314.31,982.5,-1.13E-01
1319.268,985.0,-1.24E-01
1324.22,987.5,-1.27E-01
1329.18,990.0,-1.32E-01
1334.151,992.5,-1.42E-01
1339.11,995.0,-1.47E-01
1344.07,997.5,-1.51E-01
1349.03,1000.0,-1.60E-01
1354,1002.5,-1.70E-01
1358.964,1005.0,-1.79E-01
1363.93,1007.5,-1.85E-01
1368.9,1010.0,-1.93E-01
1373.86,1012.5,-2.00E-01
1378.83,1015.0,-2.11E-01
1383.798,1017.5,-2.15E-01
1388.77,1020.0,-2.14E-01
1393.76,1022.5,-2.18E-01
1398.732,1025.0,-2.25E-01
1403.7,1027.5,-2.31E-01
1408.69,1030.0,-2.33E-01
1413.69,1032.5,-2.40E-01
1418.66,1035.0,-2.40E-01
1423.65,1037.5,-2.48E-01
1428.63,1040.0,-2.46E-01
1433.61,1042.5,-2.51E-01
1438.6,1045.0,-2.53E-01
1443.59,1047.5,-2.55E-01
1448.58,1050.0,-2.57E-01
1453.58,1052.5,-2.54E-01
1458.56,1055.0,-2.60E-01
1463.556,1057.5,-2.68E-01
1468.56,1060.0,-2.69E-01
1473.55,1062.5,-2.69E-01
1475.54,1063.5,-2.70E-01