Folder: matl-db/Wood/Calibration_Data/FSRI (part 12)

File: FSRI_Wood_STA_N2_30K_R2.csv
Time (s),Temperature (K),Mass (mg),Heat Flow Rate (W/g)
0.0,325.0,4.046,-0.0037
40.3669,327.5,4.0438,0.114
54.6517,330.0,4.0413,0.1894
65.5452,332.5,4.0441,0.2487
74.848,335.0,4.0452,0.2976
83.1991,337.5,4.0444,0.3404
90.8992,340.0,4.0449,0.3771
98.2077,342.5,4.0453,0.4087
105.179,345.0,4.0436,0.4402
111.892,347.5,4.0431,0.4687
118.395,350.0,4.0438,0.4919
124.725,352.5,4.044,0.5154
130.918,355.0,4.043,0.538
136.994,357.5,4.0425,0.5566
142.959,360.0,4.0425,0.5755
148.797,362.5,4.0428,0.5964
154.555,365.0,4.0421,0.6137
160.211,367.5,4.0426,0.6301
165.832,370.0,4.0421,0.6452
171.378,372.5,4.042,0.6591
176.883,375.0,4.041,0.6736
182.313,377.5,4.0406,0.6808
187.703,380.0,4.0393,0.6915
193.08,382.5,4.0392,0.6947
198.405,385.0,4.0372,0.7005
203.692,387.5,4.0378,0.7067
208.952,390.0,4.0378,0.7107
214.19,392.5,4.0379,0.7119
219.367,395.0,4.0376,0.7135
224.527,397.5,4.0373,0.7166
229.646,400.0,4.0366,0.7144
234.734,402.5,4.0366,0.7194
239.777,405.0,4.0359,0.7241
244.785,407.5,4.0353,0.7268
249.772,410.0,4.0366,0.7305
254.724,412.5,4.0369,0.7371
259.656,415.0,4.037,0.7436
264.553,417.5,4.037,0.7513
269.424,420.0,4.0369,0.7557
274.278,422.5,4.037,0.7636
279.095,425.0,4.0369,0.7721
283.917,427.5,4.0369,0.7818
288.705,430.0,4.0369,0.7895
293.487,432.5,4.0383,0.7971
298.248,435.0,4.0356,0.8069
302.998,437.5,4.0369,0.8149
307.738,440.0,4.0363,0.8247
312.46,442.5,4.0373,0.8347
317.176,445.0,4.0369,0.8472
321.86,447.5,4.0369,0.8525
326.54,450.0,4.0343,0.8639
331.208,452.5,4.0367,0.875
335.85,455.0,4.0353,0.8881
340.49,457.5,4.0353,0.8964
345.103,460.0,4.034,0.9072
349.701,462.5,4.035,0.9193
354.301,465.0,4.035,0.9296
358.849,467.5,4.0291,0.9397
363.453,470.0,4.0306,0.9515
368.015,472.5,4.0292,0.9607
372.567,475.0,4.0305,0.9745
377.114,477.5,4.0293,0.9859
381.657,480.0,4.0269,0.9973
386.185,482.5,4.0253,1.0059
390.719,485.0,4.0238,1.0193
395.244,487.5,4.0212,1.0257
399.765,490.0,4.02,1.0384
404.28,492.5,4.0169,1.0468
408.797,495.0,4.0144,1.0588
413.298,497.5,4.0114,1.0685
417.804,500.0,4.008,1.0781
422.307,502.5,4.0078,1.0888
426.798,505.0,4.0027,1.0985
431.293,507.5,3.9979,1.1067
435.781,510.0,3.9945,1.1162
440.266,512.5,3.9895,1.1237
444.747,515.0,3.9853,1.1306
449.228,517.5,3.9798,1.1354
453.702,520.0,3.9757,1.1412
458.187,522.5,3.9696,1.1445
462.65,525.0,3.9635,1.1512
467.112,527.5,3.9592,1.1506
471.577,530.0,3.9531,1.1552
476.027,532.5,3.9476,1.1613
480.501,535.0,3.9452,1.1599
484.96,537.5,3.9346,1.1604
489.425,540.0,3.9248,1.1607
493.875,542.5,3.9157,1.158
498.329,545.0,3.9068,1.1604
502.782,547.5,3.8968,1.1565
507.237,550.0,3.886,1.1524
511.685,552.5,3.8749,1.1506
516.143,555.0,3.8637,1.1496
520.599,557.5,3.852,1.1482
525.055,560.0,3.8409,1.1495
529.513,562.5,3.8274,1.1502
533.965,565.0,3.8137,1.1466
538.428,567.5,3.7991,1.1463
542.891,570.0,3.7808,1.1455
547.348,572.5,3.7625,1.1447
551.81,575.0,3.7432,1.1432
556.285,577.5,3.7235,1.1401
560.754,580.0,3.7034,1.1393
565.227,582.5,3.6793,1.1449
569.677,585.0,3.6552,1.1431
574.174,587.5,3.6304,1.1467
578.653,590.0,3.6014,1.1553
583.131,592.5,3.5762,1.1649
587.624,595.0,3.5438,1.1729
592.113,597.5,3.5121,1.1812
596.616,600.0,3.4767,1.1925
601.113,602.5,3.4379,1.2084
605.598,605.0,3.4012,1.2253
610.13,607.5,3.3588,1.2394
614.644,610.0,3.3137,1.256
619.155,612.5,3.2667,1.2776
623.676,615.0,3.218,1.2964
628.191,617.5,3.1667,1.3072
632.728,620.0,3.1121,1.327
637.262,622.5,3.0558,1.3416
641.802,625.0,2.9974,1.3537
646.343,627.5,2.9404,1.3629
650.887,630.0,2.8847,1.3798
655.438,632.5,2.8185,1.3928
659.98,635.0,2.7551,1.4157
664.549,637.5,2.6914,1.4421
669.116,640.0,2.6256,1.47
673.705,642.5,2.5573,1.5145
678.292,645.0,2.4866,1.5623
682.895,647.5,2.4114,1.6255
687.511,650.0,2.3363,1.687
692.12,652.5,2.2568,1.7599
696.737,655.0,2.1706,1.8333
701.376,657.5,2.0841,1.9007
705.99,660.0,1.9955,1.9647
710.605,662.5,1.9034,1.9988
715.194,665.0,1.8113,2.003
719.761,667.5,1.7164,1.9519
724.286,670.0,1.6258,1.8422
728.765,672.5,1.5407,1.6698
733.204,675.0,1.4644,1.4391
737.624,677.5,1.4001,1.1686
742.032,680.0,1.3485,0.8866
746.454,682.5,1.308,0.6175
750.914,685.0,1.2784,0.3925
755.408,687.5,1.258,0.227
759.952,690.0,1.2407,0.1191
764.532,692.5,1.2295,0.0592
769.119,695.0,1.2219,0.0228
773.736,697.5,1.212,-0.0077
778.376,700.0,1.2038,-0.0251
782.999,702.5,1.1962,-0.0444
787.64,705.0,1.1876,-0.0566
792.288,707.5,1.1805,-0.0661
796.939,710.0,1.1738,-0.0804
801.592,712.5,1.1675,-0.0885
806.251,715.0,1.1613,-0.0974
810.919,717.5,1.1546,-0.1073
815.574,720.0,1.1478,-0.1151
820.256,722.5,1.142,-0.1167
824.942,725.0,1.136,-0.1191
829.636,727.5,1.1305,-0.1195
834.329,730.0,1.1234,-0.1194
839.029,732.5,1.1162,-0.1108
843.735,735.0,1.1104,-0.1044
848.448,737.5,1.1043,-0.0948
853.162,740.0,1.0989,-0.0811
857.881,742.5,1.0924,-0.0642
862.605,745.0,1.0867,-0.0492
867.336,747.5,1.0845,-0.031
872.071,750.0,1.0806,-0.0144
876.81,752.5,1.0746,-0.0
881.556,755.0,1.0724,0.0204
886.297,757.5,1.0663,0.0392
891.043,760.0,1.062,0.0553
895.798,762.5,1.0597,0.0759
900.563,765.0,1.0548,0.0915
905.312,767.5,1.0505,0.1054
910.083,770.0,1.0467,0.1179
914.837,772.5,1.0439,0.1338
919.601,775.0,1.0401,0.1436
924.371,777.5,1.0382,0.152
929.137,780.0,1.0351,0.1623
933.909,782.5,1.0326,0.1657
938.682,785.0,1.0275,0.1724
943.447,787.5,1.0252,0.1791
948.238,790.0,1.0237,0.1814
953.026,792.5,1.0208,0.1854
957.819,795.0,1.0188,0.1873
962.603,797.5,1.0152,0.1879
967.382,800.0,1.0127,0.1949
972.174,802.5,1.01,0.1964
976.981,805.0,1.0061,0.1998
981.779,807.5,1.0026,0.1983
986.574,810.0,1.0029,0.2029
991.379,812.5,1.0008,0.2041
996.183,815.0,0.9987,0.2069
1000.99,817.5,0.9963,0.2073
1005.8,820.0,0.9946,0.2072
1010.62,822.5,0.9918,0.2121
1015.43,825.0,0.9917,0.2131
1020.24,827.5,0.9891,0.2165
1025.07,830.0,0.9864,0.22
1029.89,832.5,0.9837,0.2225
1034.72,835.0,0.981,0.2278
1039.56,837.5,0.9797,0.2321
1044.4,840.0,0.977,0.2321
1049.24,842.5,0.9759,0.2365
1054.08,845.0,0.9729,0.238
1058.91,847.5,0.9702,0.2421
1063.77,850.0,0.9689,0.2478
1068.6,852.5,0.968,0.2493
1073.47,855.0,0.9666,0.2486
1078.33,857.5,0.9654,0.2507
1083.19,860.0,0.9627,0.2492
1088.05,862.5,0.9598,0.2514
1092.92,865.0,0.9585,0.2516
1097.78,867.5,0.9582,0.2536
1102.64,870.0,0.9556,0.251
1107.52,872.5,0.9543,0.2562
1112.39,875.0,0.9529,0.2533
1117.27,877.5,0.9516,0.2545
1122.15,880.0,0.9502,0.2562
1127.01,882.5,0.949,0.2519
1131.92,885.0,0.945,0.2543
1136.79,887.5,0.9449,0.2496
1141.69,890.0,0.9447,0.2536
1146.56,892.5,0.9436,0.2492
1151.46,895.0,0.9422,0.2472
1156.36,897.5,0.941,0.2482
1161.26,900.0,0.9383,0.2476
1166.16,902.5,0.937,0.2455
1171.06,905.0,0.9357,0.2435
1175.96,907.5,0.9344,0.2425
1180.87,910.0,0.9344,0.2417
1185.78,912.5,0.9317,0.2425
1190.68,915.0,0.9304,0.242
1195.6,917.5,0.9291,0.2396
1200.51,920.0,0.9279,0.2383
1205.42,922.5,0.9265,0.2379
1210.33,925.0,0.9245,0.2344
1215.24,927.5,0.9231,0.2307
1220.15,930.0,0.9229,0.228
1225.07,932.5,0.9205,0.2285
1229.98,935.0,0.9205,0.2273
1234.9,937.5,0.9191,0.2274
1239.82,940.0,0.9192,0.2288
1244.74,942.5,0.9169,0.2279
1249.66,945.0,0.9156,0.2254
1254.58,947.5,0.9167,0.2209
1259.5,950.0,0.9144,0.2176
1264.44,952.5,0.9129,0.2234
1269.36,955.0,0.9117,0.2204
1274.3,957.5,0.9129,0.2185
1279.22,960.0,0.9109,0.2129
1284.16,962.5,0.9103,0.2101
1289.09,965.0,0.9103,0.2083
1294.03,967.5,0.909,0.2076
1298.96,970.0,0.909,0.2007
1303.91,972.5,0.9063,0.2036
1308.85,975.0,0.905,0.1971
1313.79,977.5,0.905,0.1979
1318.73,980.0,0.9037,0.1911
1323.69,982.5,0.9036,0.1878
1328.64,985.0,0.9037,0.184
1333.59,987.5,0.9024,0.1795
1338.55,990.0,0.9015,0.1762
1343.52,992.5,0.9024,0.1712
1348.48,995.0,0.9011,0.1634
1353.43,997.5,0.8998,0.16
1358.41,1000.0,0.8996,0.1545
1363.37,1002.5,0.8998,0.1524
1368.35,1005.0,0.8985,0.145
1373.31,1007.5,0.8983,0.1406
1378.29,1010.0,0.8972,0.1368
1383.29,1012.5,0.8953,0.133
1388.27,1015.0,0.8959,0.1285
1393.27,1017.5,0.8945,0.1211
1398.24,1020.0,0.8932,0.1202
1403.23,1022.5,0.8932,0.1115
1408.21,1025.0,0.8919,0.1117
1413.2,1027.5,0.8913,0.0997
1418.17,1030.0,0.8899,0.0903
1423.17,1032.5,0.8914,0.0836
1428.15,1035.0,0.8899,0.079
1433.14,1037.5,0.8899,0.0786
1438.14,1040.0,0.8886,0.0722
1443.12,1042.5,0.8899,0.0711
1448.11,1045.0,0.8886,0.0642
1453.1,1047.5,0.8887,0.059
1458.1,1050.0,0.8886,0.0525
1463.07,1052.5,0.8873,0.0511
1468.07,1055.0,0.8873,0.0429
1473.06,1057.5,0.8859,0.0344
1478.05,1060.0,0.8846,0.0255
1483.04,1062.5,0.8839,0.0256
1484.03,1063.0,0.8835,0.0228