Folder: matl-db/Wood/Calibration_Data/FSRI (part 6)

File: FSRI_TGA_N2_30K_R2.csv
Time (s),Temperature (K),Mass (mg)
0,325.0,4.044
30.0996,327.5,4.043
44.0814,330.0,4.043
54.8514,332.5,4.044
64.0896,335.0,4.044
72.3954,337.5,4.045
80.0622,340.0,4.044
87.3534,342.5,4.045
94.3062,345.0,4.044
101.007,347.5,4.044
107.5002,350.0,4.044
113.8206,352.5,4.044
120.0048,355.0,4.043
126.0756,357.5,4.042
132.0342,360.0,4.042
137.8662,362.5,4.042
143.622,365.0,4.042
149.2686,367.5,4.043
154.89,370.0,4.042
160.4328,372.5,4.042
165.9342,375.0,4.041
171.3582,377.5,4.041
176.7504,380.0,4.039
182.1222,382.5,4.039
187.4436,385.0,4.038
192.735,387.5,4.038
197.9892,390.0,4.038
203.22,392.5,4.038
208.4022,395.0,4.037
213.5598,397.5,4.037
218.6754,400.0,4.037
223.7616,402.5,4.037
228.8016,405.0,4.036
233.8098,407.5,4.035
238.794,410.0,4.037
243.744,412.5,4.037
248.6742,415.0,4.037
253.5678,417.5,4.037
258.4404,420.0,4.037
263.2908,422.5,4.037
268.1082,425.0,4.037
272.9292,427.5,4.037
277.7178,430.0,4.037
282.4974,432.5,4.038
287.2572,435.0,4.036
292.0068,437.5,4.037
296.7462,440.0,4.036
301.4676,442.5,4.037
306.183,445.0,4.037
310.8654,447.5,4.037
315.5454,450.0,4.034
320.2122,452.5,4.037
324.8526,455.0,4.035
329.4918,457.5,4.035
334.101,460.0,4.034
338.7006,462.5,4.035
343.2996,465.0,4.035
347.847,467.5,4.029
352.4526,470.0,4.031
357.0126,472.5,4.029
361.5654,475.0,4.031
366.1116,477.5,4.029
370.6524,480.0,4.027
375.18,482.5,4.025
379.7148,485.0,4.024
384.2406,487.5,4.021
388.7604,490.0,4.020
393.2766,492.5,4.017
397.7916,495.0,4.014
402.2928,497.5,4.011
406.7988,500.0,4.008
411.3024,502.5,4.007
415.7916,505.0,4.002
420.288,507.5,3.998
424.7742,510.0,3.994
429.2586,512.5,3.989
433.7394,515.0,3.985
438.2208,517.5,3.980
442.695,520.0,3.975
447.18,522.5,3.969
451.6428,525.0,3.964
456.105,527.5,3.959
460.5708,530.0,3.953
465.0192,532.5,3.947
469.494,535.0,3.945
473.9514,537.5,3.934
478.4172,540.0,3.924
482.8662,542.5,3.915
487.32,545.0,3.906
491.7732,547.5,3.896
496.2282,550.0,3.885
500.676,552.5,3.874
505.1346,555.0,3.863
509.5908,557.5,3.851
514.047,560.0,3.840
518.505,562.5,3.826
522.9564,565.0,3.813
527.421,567.5,3.798
531.8826,570.0,3.779
536.34,572.5,3.761
540.8022,575.0,3.742
545.2788,577.5,3.723
549.7464,580.0,3.703
554.2194,582.5,3.678
558.6696,585.0,3.654
563.1672,587.5,3.628
567.645,590.0,3.600
572.1234,592.5,3.574
576.618,595.0,3.542
581.1072,597.5,3.510
585.6108,600.0,3.475
590.106,602.5,3.436
594.5928,605.0,3.399
599.124,607.5,3.355
603.6396,610.0,3.311
608.1498,612.5,3.264
612.672,615.0,3.215
617.1852,617.5,3.164
621.7254,620.0,3.109
626.256,622.5,3.053
630.7986,625.0,2.994
635.3394,627.5,2.936
639.8844,630.0,2.880
644.4342,632.5,2.814
648.9768,635.0,2.751
653.5494,637.5,2.688
658.1148,640.0,2.622
662.7036,642.5,2.554
667.2918,645.0,2.483
671.8968,647.5,2.408
676.5126,650.0,2.333
681.12,652.5,2.252
685.7388,655.0,2.165
690.3768,657.5,2.078
694.9908,660.0,1.989
699.606,662.5,1.898
704.1936,665.0,1.805
708.7578,667.5,1.711
713.2806,670.0,1.621
717.7572,672.5,1.537
722.1942,675.0,1.461
726.6132,677.5,1.396
731.0214,680.0,1.345
735.4446,682.5,1.306
739.9068,685.0,1.277
744.4038,687.5,1.257
748.9494,690.0,1.240
753.5322,692.5,1.229
758.1192,695.0,1.221
762.738,697.5,1.211
767.3784,700.0,1.204
772.0014,702.5,1.196
776.6436,705.0,1.187
781.2912,707.5,1.180
785.943,710.0,1.173
790.5954,712.5,1.168
795.2556,715.0,1.161
799.923,717.5,1.154
804.5778,720.0,1.147
809.2626,722.5,1.141
813.9468,725.0,1.136
818.6418,727.5,1.130
823.335,730.0,1.123
828.0348,732.5,1.116
832.7412,735.0,1.110
837.4542,737.5,1.104
842.169,740.0,1.098
846.888,742.5,1.092
851.613,745.0,1.087
856.344,747.5,1.084
861.0774,750.0,1.080
865.8186,752.5,1.074
870.5652,755.0,1.072
875.3034,757.5,1.066
880.0518,760.0,1.062
884.8074,762.5,1.060
889.5708,765.0,1.054
894.3216,767.5,1.051
899.0916,770.0,1.046
903.8448,772.5,1.043
908.61,775.0,1.040
913.3812,777.5,1.038
918.147,780.0,1.035
922.9194,782.5,1.032
927.6924,785.0,1.027
932.4582,787.5,1.025
937.2504,790.0,1.024
942.0366,792.5,1.021
946.83,795.0,1.019
951.6132,797.5,1.015
956.3922,800.0,1.012
961.1856,802.5,1.010
965.9922,805.0,1.005
970.7904,807.5,1.003
975.5862,810.0,1.003
980.3916,812.5,1.000
985.1952,815.0,0.999
989.9994,817.5,0.996
994.8138,820.0,0.995
999.6324,822.5,0.992
1004.45,825.0,0.992
1009.25,827.5,0.989
1014.08,830.0,0.986
1018.905,832.5,0.984
1023.73,835.0,0.981
1028.58,837.5,0.980
1033.41,840.0,0.977
1038.25,842.5,0.976
1043.09,845.0,0.973
1047.93,847.5,0.970
1052.781,850.0,0.969
1057.62,852.5,0.968
1062.49,855.0,0.967
1067.34,857.5,0.965
1072.21,860.0,0.963
1077.06,862.5,0.960
1081.93,865.0,0.958
1086.8,867.5,0.958
1091.661,870.0,0.956
1096.53,872.5,0.954
1101.408,875.0,0.953
1106.28,877.5,0.952
1111.16,880.0,0.950
1116.03,882.5,0.949
1120.932,885.0,0.945
1125.81,887.5,0.945
1130.7,890.0,0.945
1135.58,892.5,0.944
1140.477,895.0,0.942
1145.379,897.5,0.941
1150.28,900.0,0.938
1155.18,902.5,0.937
1160.08,905.0,0.936
1164.981,907.5,0.934
1169.88,910.0,0.934
1174.8,912.5,0.932
1179.7,915.0,0.930
1184.616,917.5,0.929
1189.53,920.0,0.928
1194.43,922.5,0.926
1199.35,925.0,0.924
1204.26,927.5,0.923
1209.17,930.0,0.922
1214.08,932.5,0.920
1218.999,935.0,0.921
1223.919,937.5,0.919
1228.84,940.0,0.919
1233.75,942.5,0.917
1238.68,945.0,0.916
1243.6,947.5,0.917
1248.52,950.0,0.914
1253.45,952.5,0.913
1258.38,955.0,0.912
1263.32,957.5,0.913
1268.238,960.0,0.910
1273.18,962.5,0.910
1278.11,965.0,0.910
1283.04,967.5,0.909
1287.99,970.0,0.909
1292.931,972.5,0.906
1297.87,975.0,0.905
1302.81,977.5,0.905
1307.75,980.0,0.904
1312.707,982.5,0.904
1317.657,985.0,0.904
1322.61,987.5,0.902
1327.57,990.0,0.901
1332.54,992.5,0.902
1337.5,995.0,0.901
1342.46,997.5,0.900
1347.43,1000.0,0.900
1352.4,1002.5,0.900
1357.37,1005.0,0.898
1362.33,1007.5,0.898
1367.32,1010.0,0.897
1372.31,1012.5,0.895
1377.294,1015.0,0.896
1382.289,1017.5,0.895
1387.26,1020.0,0.893
1392.252,1022.5,0.893
1397.23,1025.0,0.892
1402.22,1027.5,0.891
1407.2,1030.0,0.890
1412.19,1032.5,0.891
1417.18,1035.0,0.890
1422.168,1037.5,0.890
1427.16,1040.0,0.889
1432.14,1042.5,0.890
1437.13,1045.0,0.889
1442.12,1047.5,0.889
1447.12,1050.0,0.889
1452.1,1052.5,0.887
1457.1,1055.0,0.888
1462.09,1057.5,0.886
1467.07,1060.0,0.885
1472.07,1062.5,0.884
1473.07,1063.0,0.884

File: FSRI_TGA_N2_30K_R3.csv
Time (s),Temperature (K),Mass (mg)
0,325.0,3.969
33.3696,327.5,3.971
47.5632,330.0,3.972
58.38,332.5,3.971
67.6104,335.0,3.972
75.9396,337.5,3.973
83.643,340.0,3.972
90.8886,342.5,3.971
97.806,345.0,3.971
104.4744,347.5,3.971
110.9796,350.0,3.970
117.2802,352.5,3.971
123.4422,355.0,3.971
129.5022,357.5,3.969
135.4446,360.0,3.969
141.2796,362.5,3.969
147.0228,365.0,3.969
152.7,367.5,3.968
158.2998,370.0,3.967
163.8252,372.5,3.966
169.3368,375.0,3.966
174.774,377.5,3.966
180.1656,380.0,3.964
185.5548,382.5,3.966
190.8768,385.0,3.964
196.1694,387.5,3.963
201.4602,390.0,3.964
206.6958,392.5,3.964
211.902,395.0,3.964
217.0758,397.5,3.965
222.2244,400.0,3.963
227.3226,402.5,3.961
232.3824,405.0,3.961
237.4278,407.5,3.961
242.4306,410.0,3.960
247.4064,412.5,3.961
252.3366,415.0,3.961
257.2794,417.5,3.960
262.1742,420.0,3.961
267.0546,422.5,3.960
271.9044,425.0,3.960
276.7392,427.5,3.960
281.5536,430.0,3.959
286.3416,432.5,3.959
291.1428,435.0,3.958
295.9152,437.5,3.959
300.6672,440.0,3.958
305.4246,442.5,3.958
310.1358,445.0,3.958
314.8674,447.5,3.957
319.5588,450.0,3.957
324.2412,452.5,3.957
328.9116,455.0,3.957
333.543,457.5,3.957
338.1702,460.0,3.956
342.774,462.5,3.957
347.3568,465.0,3.957
351.9636,467.5,3.955
356.5494,470.0,3.955
361.122,472.5,3.954
365.6574,475.0,3.953
370.2102,477.5,3.951
374.775,480.0,3.949
379.3218,482.5,3.947
383.856,485.0,3.945
388.3854,487.5,3.945
392.9046,490.0,3.941
397.4304,492.5,3.938
401.9268,495.0,3.935
406.4382,497.5,3.932
410.943,500.0,3.930
415.4388,502.5,3.927
419.9262,505.0,3.923
424.422,507.5,3.918
428.904,510.0,3.913
433.3842,512.5,3.908
437.853,515.0,3.902
442.3314,517.5,3.898
446.7996,520.0,3.893
451.2444,522.5,3.888
455.7318,525.0,3.884
460.1982,527.5,3.879
464.6502,530.0,3.873
469.1148,532.5,3.867
473.565,535.0,3.860
478.0194,537.5,3.852
482.466,540.0,3.842
486.882,542.5,3.835
491.3268,545.0,3.827
495.816,547.5,3.817
500.2668,550.0,3.807
504.7122,552.5,3.796
509.1648,555.0,3.785
513.6114,557.5,3.773
518.0448,560.0,3.760
522.5208,562.5,3.746
526.965,565.0,3.729
531.4134,567.5,3.713
535.8738,570.0,3.696
540.3342,572.5,3.680
544.7856,575.0,3.661
549.2454,577.5,3.642
553.7082,580.0,3.620
558.1704,582.5,3.598
562.632,585.0,3.575
567.0816,587.5,3.549
571.5564,590.0,3.522
576.027,592.5,3.493
580.5024,595.0,3.462
584.9718,597.5,3.430
589.449,600.0,3.395
593.931,602.5,3.356
598.4112,605.0,3.317
602.901,607.5,3.277
607.3752,610.0,3.232
611.8956,612.5,3.185
616.3914,615.0,3.138
620.8884,617.5,3.086
625.3968,620.0,3.034
629.9046,622.5,2.981
634.4154,625.0,2.923
638.9244,627.5,2.865
643.4436,630.0,2.805
647.9784,632.5,2.745
652.5144,635.0,2.684
657.0612,637.5,2.620
661.6122,640.0,2.554
666.1746,642.5,2.487
670.7532,645.0,2.417
675.3414,647.5,2.344
679.953,650.0,2.268
684.5586,652.5,2.187
689.1876,655.0,2.105
693.8148,657.5,2.019
698.4402,660.0,1.929
703.0488,662.5,1.838
707.6406,665.0,1.746
712.1856,667.5,1.655
716.7096,670.0,1.567
721.197,672.5,1.485
725.64,675.0,1.411
730.0548,677.5,1.348
734.4714,680.0,1.298
738.8994,682.5,1.260
743.3478,685.0,1.231
747.8574,687.5,1.212
752.4006,690.0,1.196
756.9864,692.5,1.185
761.5914,695.0,1.177
766.1982,697.5,1.167
770.8146,700.0,1.159
775.4394,702.5,1.150
780.0876,705.0,1.142
784.7238,707.5,1.136
789.3666,710.0,1.128
794.0124,712.5,1.122
798.6624,715.0,1.112
803.3124,717.5,1.108
807.9636,720.0,1.103
812.628,722.5,1.096
817.2882,725.0,1.090
821.9634,727.5,1.084
826.641,730.0,1.078
831.3258,732.5,1.075
836.0112,735.0,1.068
840.705,737.5,1.063
845.403,740.0,1.055
850.1124,742.5,1.048
854.8314,745.0,1.042
859.5444,747.5,1.037
864.267,750.0,1.032
868.9836,752.5,1.031
873.6846,755.0,1.025
878.436,757.5,1.018
883.182,760.0,1.016
887.9196,762.5,1.012
892.6626,765.0,1.006
897.4086,767.5,1.003
902.1504,770.0,1.000
906.888,772.5,0.996
911.6364,775.0,0.993
916.4166,777.5,0.992
921.1758,780.0,0.988
925.938,782.5,0.985
930.7044,785.0,0.982
935.4594,787.5,0.982
940.2348,790.0,0.979
945.0162,792.5,0.975
949.7958,795.0,0.972
954.558,797.5,0.973
959.3484,800.0,0.968
964.1334,802.5,0.964
968.9202,805.0,0.961
973.7064,807.5,0.958
978.4998,810.0,0.955
983.265,812.5,0.954
988.0668,815.0,0.954
992.8794,817.5,0.951
997.671,820.0,0.948
1002.46,822.5,0.946
1007.26,825.0,0.944
1012.074,827.5,0.945
1016.9,830.0,0.942
1021.7,832.5,0.938
1026.51,835.0,0.936
1031.32,837.5,0.932
1036.14,840.0,0.930
1040.96,842.5,0.929
1045.773,845.0,0.926
1050.58,847.5,0.923
1055.4,850.0,0.922
1060.22,852.5,0.922
1065.04,855.0,0.920
1069.869,857.5,0.919
1074.699,860.0,0.916
1079.52,862.5,0.916
1084.36,865.0,0.915
1089.2,867.5,0.912
1094.02,870.0,0.909
1098.86,872.5,0.909
1103.71,875.0,0.907
1108.54,877.5,0.905
1113.39,880.0,0.902
1118.23,882.5,0.899
1123.09,885.0,0.899
1127.946,887.5,0.897
1132.81,890.0,0.895
1137.66,892.5,0.892
1142.53,895.0,0.892
1147.39,897.5,0.891
1152.258,900.0,0.890
1157.12,902.5,0.889
1162,905.0,0.886
1166.874,907.5,0.885
1171.75,910.0,0.884
1176.63,912.5,0.881
1181.52,915.0,0.880
1186.41,917.5,0.879
1191.3,920.0,0.879
1196.19,922.5,0.879
1201.08,925.0,0.877
1205.97,927.5,0.875
1210.86,930.0,0.873
1215.75,932.5,0.872
1220.65,935.0,0.871
1225.55,937.5,0.870
1230.48,940.0,0.871
1235.41,942.5,0.870
1240.31,945.0,0.867
1245.23,947.5,0.867
1250.15,950.0,0.866
1255.077,952.5,0.864
1259.997,955.0,0.863
1264.93,957.5,0.860
1269.83,960.0,0.859
1274.77,962.5,0.860
1279.7,965.0,0.860
1284.63,967.5,0.858
1289.57,970.0,0.857
1294.51,972.5,0.856
1299.46,975.0,0.856
1304.37,977.5,0.854
1309.36,980.0,0.853
1314.31,982.5,0.852
1319.268,985.0,0.853
1324.22,987.5,0.853
1329.18,990.0,0.853
1334.151,992.5,0.851
1339.11,995.0,0.851
1344.07,997.5,0.850
1349.03,1000.0,0.848
1354,1002.5,0.847
1358.964,1005.0,0.846
1363.93,1007.5,0.847
1368.9,1010.0,0.844
1373.86,1012.5,0.844
1378.83,1015.0,0.844
1383.798,1017.5,0.843
1388.77,1020.0,0.844
1393.76,1022.5,0.845
1398.732,1025.0,0.843
1403.7,1027.5,0.843
1408.69,1030.0,0.842
1413.69,1032.5,0.843
1418.66,1035.0,0.842
1423.65,1037.5,0.840
1428.63,1040.0,0.839
1433.61,1042.5,0.839
1438.6,1045.0,0.839
1443.59,1047.5,0.839
1448.58,1050.0,0.838
1453.58,1052.5,0.836
1458.56,1055.0,0.835
1463.556,1057.5,0.834
1468.56,1060.0,0.834
1473.55,1062.5,0.834
1475.54,1063.5,0.834

File: FSRI_Wood_CAPA_N2_40kW_R2.csv
Time (s),Mass (g),TC back 1 (K),TC Top (K)
0,12.739,297.1,414.8
4,12.726,297.1,550.6
8,12.648,297,612.8
12,12.608,297,
16,12.53,297,
20,12.455,297.3,
24,12.398,297.7,
28,12.277,298.4,
32,12.255,299.7,
36,12.162,301.4,
40,12.028,303.6,
44,11.925,306.1,
48,11.853,308.9,
52,11.74,311.9,
56,11.681,315.1,
60,11.568,318.4,
64,11.511,321.7,
68,11.409,324.9,
72,11.385,328.3,
76,11.222,331.7,
80,11.178,335,
84,11.133,337.9,
88,11.026,341,
92,10.959,343.6,
96,10.884,346.4,
100,10.818,348.9,
104,10.732,351.2,
108,10.671,353.4,
112,10.591,355.2,
116,10.543,357,
120,10.426,358.3,
124,10.38,359.5,
128,10.32,360.3,
132,10.255,360.7,
136,10.166,360.9,
140,10.068,361.1,
144,10.053,361.3,
148,9.986,361.5,
152,9.911,361.8,
156,9.829,362.3,
160,9.777,362.9,
164,9.695,363.7,
168,9.656,364.6,
172,9.584,365.6,
176,9.56,366.9,
180,9.452,368.4,
184,9.384,370.1,
188,9.364,371.9,
192,9.297,374,
196,9.229,376.5,
200,9.193,379,
204,9.109,381.7,
208,9.101,384.5,
212,8.969,387.5,
216,8.969,390.3,
220,8.907,393.3,
224,8.825,396.2,
228,8.797,399.3,
232,8.765,402.2,
236,8.709,404.9,
240,8.661,407.7,
244,8.616,410.4,
248,8.572,413,
252,8.502,415.5,
256,8.415,418.1,
260,8.373,420.4,
264,8.297,422.6,
268,8.255,424.6,
272,8.2,426.7,
276,8.141,428.7,
280,8.078,430.6,
284,7.974,432.3,
288,7.978,434.1,
292,7.9,435.7,
296,7.836,437.3,
300,7.773,438.8,
304,7.716,440.1,
308,7.664,441.7,
312,7.574,443.1,
316,7.504,444.2,
320,7.465,445.1,
324,7.423,446.7,
328,7.282,447.4,
332,7.278,448.9,
336,7.211,449.5,
340,7.166,450.3,
344,7.058,451.3,
348,7.033,452.2,
352,6.943,453.2,
356,6.933,453.4,
360,6.842,454.3,
364,6.769,455.3,
368,6.686,456.3,
372,6.651,456.9,
376,6.602,456.5,
380,6.537,456.6,
384,6.505,458.1,
388,6.439,456.9,
392,6.434,458.1,
396,6.366,459.2,
400,6.328,458.5,
404,6.243,459.5,
408,6.233,459.4,
412,6.174,459.8,
416,6.111,461.2,
420,6.059,461.2,
424,6.035,461.7,
428,5.961,461.4,
432,5.952,461.8,
436,5.916,462,
440,5.833,462.2,
444,5.883,462.2,
448,5.777,462.6,
452,5.753,462.6,
456,5.748,462.4,
460,5.693,463.4,
464,5.64,463.1,
468,5.578,463.2,
472,5.61,462.6,
476,5.561,464.3,
480,5.527,464,
484,5.528,464.6,
488,5.451,464.5,
492,5.414,464.7,
496,5.376,465.6,
500,5.41,466.3,
504,5.29,466,
508,5.291,466.8,
512,5.266,467,
516,5.25,467.8,
520,5.26,468.2,
524,5.258,468,
528,5.196,468.5,
532,5.192,468.8,
536,5.164,469.1,
540,5.107,469.3,
544,5.131,469.6,
548,5.06,469.4,
552,5.08,470.4,
556,5.037,470.4,
560,4.995,470.7,
564,5.015,470.7,
568,4.976,471.6,
572,4.959,471.7,
576,4.979,472.3,
580,4.905,472,
584,4.898,472.3,
588,4.901,472.7,
592,4.86,472.6,
596,4.862,473.4,
600,4.816,473.5,
604,4.801,473.7,
608,4.815,474,
612,4.784,474.3,
616,4.741,474.5,
620,4.775,474.1,
624,4.752,474.9,
628,4.715,474.9,
632,4.721,475.1,
636,4.732,475.5,
640,4.689,475.3,
644,4.672,475.8,
648,4.676,475.9,
652,4.652,476.3,
656,4.644,476.5,
660,4.664,476.6,
664,4.648,476.6,
668,4.576,477,
672,4.591,477,
676,4.581,477.3,
680,4.566,476.9,
684,4.55,477.5,
688,4.498,477.6,
692,4.519,477.8,
696,4.505,478,
700,4.515,478.3,
704,4.492,478.6,
708,4.466,478.6,
712,4.462,478.6,
716,4.462,478.6,
720,4.444,478.9,
724,4.475,478.8,
728,4.486,479,
732,4.426,479,
736,4.405,479.3,
740,4.421,479.4,
744,4.401,479.4,
748,4.404,479.5,
752,4.361,479.8,
756,4.391,480,
760,4.363,480,
764,4.357,480.1,
768,4.358,480.4,
772,4.387,480.2,
776,4.332,480.7,
780,4.35,480.7,
784,4.341,480.7,
788,4.304,480.6,
792,4.317,480.7,
796,4.297,481.1,
800,4.289,480.9,
804,4.28,481.1,
808,4.276,481.1,
812,4.284,481.3,
816,4.258,481.3,
820,4.258,481.5,
824,4.247,481.7,
828,4.253,481.9,
832,4.249,482,
836,4.204,481.9,
840,4.243,481.8,
844,4.228,482.3,
848,4.205,482.1,
852,4.214,482.3,
856,4.229,482.6,
860,4.198,482.5,
864,4.194,482.8,
868,4.204,482.6,
872,4.212,482.8,
876,4.183,482.7,
880,4.164,482.9,
884,4.108,483.2,
888,4.183,483.3,
892,4.178,483.2,
896,4.135,483.3,
900,4.167,483.4,
904,4.117,483.4,
908,4.144,483.6,
912,4.138,483.5,
916,4.084,483.3,
920,4.111,483.4,
924,4.128,483.5,
928,4.107,483.9,
932,4.059,483.8,
936,4.093,483.9,
940,4.094,483.9,
944,4.071,484.1,
948,4.095,484.2,894.7
952,4.06,484.2,899.6
956,4.085,484.4,895.6
960,4.04,484.2,895.9
964,4.05,484.4,897.8
968,4.094,484.7,895.6
972,4.063,484.9,895.1
976,3.985,484.7,893.3
980,4.07,484.9,897.5
984,4.061,484.9,908
988,4.039,485.1,899.9

File: FSRI_Wood_CAPA_N2_60kW_R1.csv
Time (s),Mass (g),TC Back (K),TC Top (K)
0,13.114,296.3,396.4
3,13.052,296.3,609.5
6,12.938,296.2,
9,12.953,296.4,
12,12.845,296.5,
15,12.731,296.7,
18,12.599,297.2,
21,12.446,298,
24,12.353,299.1,
27,12.242,300.5,
30,12.132,302.1,
33,11.989,304,
36,11.882,306.2,
39,11.807,308.3,
42,11.685,310.6,
45,11.581,313.2,
48,11.492,315.6,
51,11.422,318.1,
54,11.311,320.8,
57,11.213,323.3,
60,11.128,325.9,
63,11.02,328.5,
66,10.956,331.1,
69,10.845,333.6,
72,10.755,336,
75,10.695,338.3,
78,10.588,340.7,
81,10.466,343,
84,10.425,345.2,
87,10.371,347.3,
90,10.294,349.3,
93,10.143,351.1,
96,10.149,353,
99,10.042,354.4,
102,9.921,355.5,
105,9.887,356.2,
108,9.838,356.9,
111,9.742,357.1,
114,9.698,357.5,
117,9.569,357.8,
120,9.509,358.1,
123,9.428,358.4,
126,9.354,358.7,
129,9.287,359,
132,9.222,359.5,
135,9.147,360.1,
138,9.088,360.7,
141,9.008,361.4,
144,8.926,362.3,
147,8.875,363.3,
150,8.787,364.4,
153,8.762,365.7,
156,8.724,367.3,
159,8.605,369.2,
162,8.587,371,
165,8.533,373.2,
168,8.423,375.6,
171,8.354,378.3,
174,8.342,380.8,
177,8.248,383.6,
180,8.18,386.7,
183,8.117,389.4,
186,8.081,392.5,
189,7.993,395.2,
192,7.97,397.7,
195,7.864,400.7,
198,7.814,403.3,
201,7.735,406.1,
204,7.679,407.9,
207,7.676,411.2,
210,7.563,413,
213,7.508,415.3,
216,7.489,416.9,
219,7.355,419.4,
222,7.314,421.1,
225,7.241,423,
228,7.184,424.9,
231,7.128,425.7,
234,6.965,428.9,
237,6.985,430.4,
240,6.892,432,
243,6.837,433.5,
246,6.771,435.9,
249,6.687,436.2,
252,6.662,436.6,
255,6.584,439.2,
258,6.521,440.4,
261,6.426,441.4,
264,6.343,442.5,
267,6.298,443.4,
270,6.229,444.1,
273,6.18,445.6,
276,6.081,443.2,
279,6.055,442.9,
282,5.999,444.4,
285,5.929,445.8,
288,5.882,446.1,
291,5.817,446.3,
294,5.708,448.2,
297,5.668,449.5,
300,5.607,447.8,
303,5.521,447.9,
306,5.46,448.5,
309,5.452,449.5,
312,5.363,453.3,
315,5.281,453.4,
318,5.26,452.9,
321,5.21,454.4,
324,5.145,454,
327,5.08,456.8,
330,5.043,457.4,
333,5.012,459,
336,4.94,458.7,
339,4.88,460.4,
342,4.803,460.4,
345,4.764,458.6,
348,4.725,461.2,
351,4.725,462.6,
354,4.651,463.9,
357,4.563,463.5,
360,4.572,464.9,
363,4.507,467.7,
366,4.436,465.7,
369,4.438,467.9,
372,4.403,468,
375,4.347,467.5,
378,4.318,470,
381,4.286,470.4,
384,4.19,471.7,
387,4.142,471.8,
390,4.154,472.4,
393,4.107,473.5,
396,4.097,472.6,
399,4.017,474.5,
402,3.981,474.5,
405,3.997,475.1,
408,3.942,476.7,
411,3.897,476.5,
414,3.858,477.9,
417,3.831,477.7,
420,3.772,478.7,
423,3.795,479.3,
426,3.704,479.7,
429,3.73,480,
432,3.719,480.2,
435,3.653,480.7,
438,3.602,481.5,
441,3.632,480.5,
444,3.604,482.2,
447,3.554,482.9,
450,3.53,483.1,
453,3.519,484.2,
456,3.519,484,
459,3.474,484.4,
462,3.451,485.3,
465,3.5,485.6,
468,3.47,486.8,
471,3.419,485.8,
474,3.4,486.9,
477,3.4,487.1,
480,3.402,487.4,
483,3.327,487.7,
486,3.362,488.2,
489,3.298,487.7,
492,3.289,488.7,
495,3.315,488,
498,3.236,488.7,
501,3.264,488.4,
504,3.213,489.9,
507,3.221,490,
510,3.166,489.7,
513,3.199,490.2,
516,3.223,489.9,
519,3.193,490.3,
522,3.185,490.6,
525,3.152,491.1,
528,3.138,491,
531,3.157,491.8,
534,3.147,491.7,
537,3.107,492.1,
540,3.126,492.5,
543,3.086,493,
546,3.123,493.9,
549,3.126,493.7,
552,3.114,493.3,
555,3.074,493.7,
558,3.046,493.4,
561,3.054,494,
564,3.029,494,
567,3.07,494.4,
570,3.032,495,
573,3.049,494.6,
576,3.048,495.1,
579,3.008,495.3,
582,3.029,495.2,
585,3.019,495.5,
588,2.968,496,
591,2.983,495.7,
594,3.027,496,
597,3.009,496.2,
600,3.031,496.3,
603,2.959,496.4,1019.9
606,2.987,496,1025.2
609,2.93,496.2,1023.8
612,2.951,496.3,1029.2
615,2.985,496.6,1031.8
618,2.903,496.4,1031.1
621,2.932,496.2,1028.3
624,2.919,496.2,1023.8
627,2.964,496.7,1026
630,2.917,496.4,1028.1
633,2.912,496.4,1028.6
636,2.947,496.8,1026.5
639,2.96,496.7,1024.1
642,2.932,497.2,1027.7
645,2.873,497.2,1035.4
648,2.964,497,1025.1
651,2.887,497.2,1031.7
654,2.88,497.4,1032.3
657,2.892,497.2,1036.2
660,2.887,497,1034.6
663,2.922,497.5,1033.1
666,2.879,497.7,1039.2
669,2.898,497.1,1038.4
672,2.897,497.5,1030.8
675,2.889,496.9,1030.1
678,2.886,497.4,1026.3
681,2.87,497.5,1030.8
684,2.864,497.5,1031.7
687,2.885,497.8,1031.1
690,2.843,497.8,1029.6

File: FSRI_Wood_LFA_N2_Parallel_R1.csv
Temperature (K),Mean Diffusivity (mm^2/s)
298.0,0.143
323.0,0.15
348.0,0.153
373.0,0.149
423.0,0.14
473.0,0.133
523.0,0.128
573.0,0.128

File: FSRI_Wood_LFA_N2_Parallel_R2.csv
Temperature (K),Mean Diffusivity (mm^2/s)
298.0,0.153
323.0,0.159
348.0,0.16
373.0,0.156
423.0,0.147
473.0,0.14
523.0,0.136
573.0,0.141

File: FSRI_Wood_LFA_N2_Parallel_R3.csv
Temperature (K),Mean Diffusivity (mm^2/s)
298.0,0.154
323.0,0.156
348.0,0.158
373.0,0.154
423.0,0.145
473.0,0.137
523.0,0.13
573.0,0.131

File: FSRI_Wood_LFA_N2_Parallel_R4.csv
Temperature (K),Mean Diffusivity (mm^2/s)
298.0,0.147
323.0,0.149
348.0,0.15
373.0,0.146
423.0,0.137
473.0,0.13
523.0,0.125
573.0,0.127

File: FSRI_Wood_LFA_N2_Parallel_R5.csv
Temperature (K),Mean Diffusivity (mm^2/s)
298.0,0.137
323.0,0.14
348.0,0.145
373.0,0.141
423.0,0.132
473.0,0.124
523.0,0.118
573.0,0.119

File: FSRI_Wood_LFA_N2_Parallel_R6.csv
Temperature (K),Mean Diffusivity (mm^2/s)
298.0,0.132
323.0,0.136
348.0,0.138
373.0,0.134
423.0,0.126
473.0,0.12
523.0,0.116
573.0,0.12

File: FSRI_Wood_LFA_N2_Perpendicular_R1.csv
Temperature (K),Mean Diffusivity (mm^2/s)
298.0,0.507
323.0,0.556
348.0,0.491
373.0,0.448
423.0,0.4
473.0,0.361
523.0,0.344
573.0,0.338

File: FSRI_Wood_LFA_N2_Perpendicular_R2.csv
Temperature (K),Mean Diffusivity (mm^2/s)
298.0,0.459
323.0,0.489
348.0,0.452
373.0,0.42
423.0,0.375
473.0,0.348
523.0,0.33
573.0,0.315

File: FSRI_Wood_LFA_N2_Perpendicular_R3.csv
Temperature (K),Mean Diffusivity (mm^2/s)
298.0,0.377
323.0,0.438
348.0,0.398
373.0,0.365
423.0,0.324
473.0,0.298
523.0,0.284
573.0,0.278

File: FSRI_Wood_LFA_N2_Perpendicular_R4.csv
Temperature (K),Mean Diffusivity (mm^2/s)
298.0,0.413
323.0,0.452
348.0,0.424
373.0,0.385
423.0,0.342
473.0,0.316
523.0,0.306
573.0,0.305

File: FSRI_Wood_LFA_N2_Perpendicular_R5.csv
Temperature (K),Mean Diffusivity (mm^2/s)
298.0,0.46
323.0,0.489
348.0,0.44
373.0,0.408
423.0,0.371
473.0,0.344
523.0,0.326
573.0,0.316

File: FSRI_Wood_LFA_N2_Perpendicular_R6.csv
Temperature (K),Mean Diffusivity (mm^2/s)
298.0,0.369
323.0,0.386
348.0,0.368
373.0,0.349
423.0,0.316
473.0,0.293
523.0,0.276
573.0,0.263