Folder: matl-db/Wood/Calibration_Data/FSRI (part 5)

File: FSRI_TGA_N2_10K_R1.csv
Time (s),Temperature (K),Mass (mg)
0,324.5,3.96
45.67,327,3.959
71.55,329.5,3.959
93.35,332,3.958
113.28,334.5,3.96
132.12,337,3.957
150.23,339.5,3.959
167.78,342,3.959
185,344.5,3.958
201.84,347,3.957
218.42,349.5,3.957
234.7,352,3.956
250.76,354.5,3.956
266.53,357,3.955
282.19,359.5,3.955
297.7,362,3.952
312.96,364.5,3.953
328.12,367,3.952
343.1,369.5,3.952
358.01,372,3.949
372.86,374.5,3.951
387.58,377,3.947
402.26,379.5,3.951
416.86,382,3.95
431.51,384.5,3.95
446.02,387,3.949
460.56,389.5,3.947
475.07,392,3.948
489.59,394.5,3.948
504.02,397,3.948
518.47,399.5,3.948
532.88,402,3.947
547.17,404.5,3.947
561.55,407,3.948
575.86,409.5,3.947
590.15,412,3.947
604.39,414.5,3.947
618.58,417,3.946
632.82,419.5,3.945
647,422,3.944
661.2,424.5,3.944
675.39,427,3.944
689.57,429.5,3.945
703.69,432,3.944
717.82,434.5,3.945
731.94,437,3.944
746.05,439.5,3.943
760.15,442,3.942
774.33,444.5,3.943
788.43,447,3.941
802.53,449.5,3.941
816.64,452,3.939
830.76,454.5,3.938
844.89,457,3.936
858.98,459.5,3.935
873.04,462,3.933
887.12,464.5,3.931
901.25,467,3.931
915.33,469.5,3.927
929.39,472,3.924
943.51,474.5,3.922
957.59,477,3.916
971.68,479.5,3.915
985.81,482,3.911
999.92,484.5,3.907
1014.08,487,3.902
1028.23,489.5,3.896
1042.39,492,3.892
1056.5,494.5,3.886
1070.61,497,3.882
1084.77,499.5,3.876
1098.91,502,3.87
1113.06,504.5,3.864
1127.18,507,3.857
1141.35,509.5,3.852
1155.53,512,3.849
1169.66,514.5,3.838
1183.85,517,3.832
1198.03,519.5,3.825
1212.2,522,3.817
1226.36,524.5,3.807
1240.47,527,3.799
1254.64,529.5,3.787
1268.88,532,3.776
1283.05,534.5,3.765
1297.26,537,3.754
1311.5,539.5,3.74
1325.7,542,3.724
1339.87,544.5,3.709
1354.15,547,3.694
1368.37,549.5,3.674
1382.63,552,3.658
1396.89,554.5,3.64
1411.17,557,3.618
1425.47,559.5,3.597
1439.79,562,3.574
1454.05,564.5,3.549
1468.37,567,3.522
1482.66,569.5,3.494
1496.94,572,3.464
1511.27,574.5,3.433
1525.57,577,3.399
1539.9,579.5,3.362
1554.23,582,3.324
1568.57,584.5,3.283
1582.96,587,3.24
1597.35,589.5,3.193
1611.72,592,3.147
1626.13,594.5,3.095
1640.51,597,3.042
1654.94,599.5,2.986
1669.35,602,2.931
1683.79,604.5,2.87
1698.2,607,2.81
1712.65,609.5,2.748
1727.11,612,2.685
1741.55,614.5,2.62
1756,617,2.552
1770.44,619.5,2.483
1784.88,622,2.41
1799.33,624.5,2.338
1813.83,627,2.261
1828.36,629.5,2.181
1842.89,632,2.095
1857.46,634.5,2.009
1872.04,637,1.918
1886.79,639.5,1.823
1901.57,642,1.726
1916.38,644.5,1.625
1931.09,647,1.531
1945.74,649.5,1.439
1960.22,652,1.36
1974.65,654.5,1.292
1989.03,657,1.24
2003.36,659.5,1.205
2017.72,662,1.176
2032.16,664.5,1.159
2046.61,667,1.148
2061.1,669.5,1.139
2075.66,672,1.13
2090.19,674.5,1.122
2104.75,677,1.114
2119.28,679.5,1.108
2133.93,682,1.099
2148.52,684.5,1.09
2163.14,687,1.083
2177.8,689.5,1.078
2192.41,692,1.071
2207.07,694.5,1.063
2221.67,697,1.057
2236.3,699.5,1.05
2250.93,702,1.043
2265.59,704.5,1.036
2280.25,707,1.03
2294.9,709.5,1.023
2309.63,712,1.017
2324.37,714.5,1.009
2339.1,717,1.004
2353.87,719.5,0.999
2368.62,722,0.995
2383.38,724.5,0.989
2398.13,727,0.983
2412.87,729.5,0.978
2427.65,732,0.974
2442.42,734.5,0.969
2457.25,737,0.963
2472,739.5,0.958
2486.79,742,0.954
2501.54,744.5,0.949
2516.27,747,0.947
2531.04,749.5,0.944
2545.8,752,0.94
2560.6,754.5,0.937
2575.43,757,0.932
2590.25,759.5,0.929
2605.05,762,0.927
2619.9,764.5,0.924
2634.74,767,0.922
2649.6,769.5,0.919
2664.45,772,0.915
2679.33,774.5,0.912
2694.18,777,0.909
2708.98,779.5,0.906
2723.85,782,0.904
2738.69,784.5,0.902
2753.54,787,0.899
2768.4,789.5,0.896
2783.25,792,0.894
2798.18,794.5,0.892
2813.09,797,0.889
2827.98,799.5,0.886
2842.92,802,0.883
2857.85,804.5,0.882
2872.8,807,0.879
2887.75,809.5,0.875
2902.68,812,0.874
2917.64,814.5,0.872
2932.58,817,0.87
2947.5,819.5,0.868
2962.37,822,0.866
2977.25,824.5,0.864
2992.13,827,0.861
3007.02,829.5,0.862
3021.89,832,0.859
3036.83,834.5,0.858
3051.78,837,0.855
3066.76,839.5,0.853
3081.69,842,0.85
3096.66,844.5,0.85
3111.64,847,0.847
3126.66,849.5,0.847
3141.67,852,0.844
3156.66,854.5,0.842
3171.67,857,0.84
3186.69,859.5,0.838
3201.69,862,0.836
3216.7,864.5,0.835
3231.72,867,0.832
3246.74,869.5,0.832
3261.72,872,0.829
3276.71,874.5,0.829
3291.73,877,0.827
3306.76,879.5,0.823
3321.83,882,0.823
3336.87,884.5,0.822
3351.9,887,0.821
3366.97,889.5,0.819
3381.98,892,0.817
3397.06,894.5,0.814
3412.13,897,0.815
3427.18,899.5,0.813
3442.26,902,0.814
3457.33,904.5,0.81
3472.44,907,0.81
3487.55,909.5,0.808
3502.69,912,0.808
3517.82,914.5,0.806
3532.95,917,0.805
3548.02,919.5,0.805
3563.12,922,0.802
3578.21,924.5,0.801
3593.31,927,0.801
3608.45,929.5,0.8
3623.6,932,0.798
3638.72,934.5,0.798
3653.87,937,0.796
3669.02,939.5,0.796
3684.18,942,0.795
3699.36,944.5,0.793
3714.59,947,0.794
3729.87,949.5,0.793
3745.08,952,0.793
3760.28,954.5,0.792
3775.45,957,0.79
3790.66,959.5,0.787
3805.82,962,0.788
3821.01,964.5,0.787
3836.2,967,0.786
3851.35,969.5,0.786
3866.55,972,0.783
3881.8,974.5,0.783
3897.05,977,0.783
3912.3,979.5,0.782
3927.54,982,0.782
3942.78,984.5,0.782
3957.98,987,0.779
3973.17,989.5,0.779
3988.38,992,0.78
4003.55,994.5,0.778
4018.79,997,0.776
4033.99,999.5,0.776
4049.2,1002,0.775
4064.42,1004.5,0.774
4079.61,1007,0.774
4094.79,1009.5,0.774
4109.99,1012,0.773
4125.13,1014.5,0.772
4140.36,1017,0.773
4155.61,1019.5,0.769
4170.86,1022,0.771
4186.11,1024.5,0.77
4201.36,1027,0.77
4216.62,1029.5,0.768
4231.89,1032,0.767
4247.2,1034.5,0.767
4262.46,1037,0.766
4277.76,1039.5,0.765
4293.02,1042,0.765
4308.33,1044.5,0.764
4323.62,1047,0.763
4338.89,1049.5,0.763
4354.16,1052,0.762
4369.37,1054.5,0.762
4384.62,1057,0.761
4399.9,1059.5,0.761
4415.15,1062,0.761
4430.39,1064.5,0.759
4445.72,1067,0.758
4457.98,1069,0.76

File: FSRI_TGA_N2_10K_R2.csv
Time (s),Temperature (K),Mass (mg)
0,324.5,3.95
45.813,327,3.947
71.6124,329.5,3.948
93.3462,332,3.948
113.2542,334.5,3.946
132.0486,337,3.943
150.1668,339.5,3.944
167.7558,342,3.943
184.9092,344.5,3.943
201.7398,347,3.942
218.2368,349.5,3.942
234.5274,352,3.942
250.506,354.5,3.94
266.2782,357,3.938
281.871,359.5,3.936
297.2334,362,3.936
312.4272,364.5,3.936
327.5082,367,3.936
342.4818,369.5,3.936
357.2982,372,3.934
372.0474,374.5,3.934
386.7528,377,3.931
401.3808,379.5,3.93
415.9392,382,3.932
430.5348,384.5,3.931
445.0842,387,3.931
459.5844,389.5,3.932
474.0672,392,3.928
488.5434,394.5,3.929
502.9806,397,3.928
517.329,399.5,3.929
531.7278,402,3.926
546.0588,404.5,3.927
560.3622,407,3.927
574.6284,409.5,3.928
588.8784,412,3.926
603.1836,414.5,3.924
617.3916,417,3.926
631.5606,419.5,3.926
645.7626,422,3.926
660.0024,424.5,3.925
674.1282,427,3.925
688.3398,429.5,3.925
702.4746,432,3.924
716.6436,434.5,3.923
730.7994,437,3.924
744.9348,439.5,3.923
759.1158,442,3.918
773.2734,444.5,3.919
787.4556,447,3.92
801.591,449.5,3.919
815.7576,452,3.918
829.9488,454.5,3.917
844.1004,457,3.913
858.2862,459.5,3.912
872.4198,462,3.91
886.5144,464.5,3.907
900.6858,467,3.906
914.8458,469.5,3.903
929.0088,472,3.902
943.1448,474.5,3.901
957.354,477,3.896
971.5068,479.5,3.892
985.6956,482,3.888
999.8898,484.5,3.881
1014.066,487,3.878
1028.3,489.5,3.872
1042.482,492,3.869
1056.7,494.5,3.863
1070.95,497,3.855
1085.16,499.5,3.85
1099.35,502,3.845
1113.6,504.5,3.839
1127.78,507,3.834
1142,509.5,3.829
1156.2,512,3.82
1170.42,514.5,3.814
1184.67,517,3.808
1198.87,519.5,3.801
1213.14,522,3.793
1227.36,524.5,3.783
1241.61,527,3.772
1255.84,529.5,3.766
1270.09,532,3.755
1284.336,534.5,3.742
1298.58,537,3.729
1312.85,539.5,3.716
1327.1,542,3.704
1341.34,544.5,3.69
1355.63,547,3.673
1369.88,549.5,3.658
1384.21,552,3.641
1398.49,554.5,3.622
1412.781,557,3.601
1427.049,559.5,3.581
1441.34,562,3.559
1455.64,564.5,3.535
1469.937,567,3.508
1484.24,569.5,3.479
1498.57,572,3.45
1512.84,574.5,3.42
1527.2,577,3.387
1541.544,579.5,3.352
1555.89,582,3.313
1570.26,584.5,3.274
1584.66,587,3.23
1599.08,589.5,3.188
1613.45,592,3.14
1627.82,594.5,3.088
1642.27,597,3.033
1656.65,599.5,2.983
1671.07,602,2.928
1685.46,604.5,2.867
1699.87,607,2.809
1714.23,609.5,2.748
1728.74,612,2.682
1743.16,614.5,2.62
1757.613,617,2.553
1772.13,619.5,2.487
1786.59,622,2.415
1801.12,624.5,2.344
1815.636,627,2.265
1830.17,629.5,2.186
1844.73,632,2.103
1859.29,634.5,2.018
1873.89,637,1.924
1888.38,639.5,1.828
1902.94,642,1.734
1917.47,644.5,1.638
1931.916,647,1.542
1946.31,649.5,1.451
1960.62,652,1.367
1974.88,654.5,1.297
1989.11,657,1.239
2003.38,659.5,1.196
2017.72,662,1.167
2032.12,664.5,1.149
2046.62,667,1.135
2061.16,669.5,1.124
2075.721,672,1.12
2090.316,674.5,1.111
2104.94,677,1.101
2119.55,679.5,1.092
2134.194,682,1.085
2148.81,684.5,1.079
2163.42,687,1.071
2178.03,689.5,1.063
2192.67,692,1.058
2207.31,694.5,1.05
2221.97,697,1.045
2236.65,699.5,1.035
2251.344,702,1.029
2266.06,704.5,1.023
2280.8,707,1.017
2295.53,709.5,1.01
2310.237,712,1.001
2324.928,714.5,0.996
2339.64,717,0.99
2354.37,719.5,0.983
2369.12,722,0.98
2383.91,724.5,0.973
2398.66,727,0.97
2413.4,729.5,0.965
2428.19,732,0.957
2442.951,734.5,0.954
2457.77,737,0.948
2472.531,739.5,0.946
2487.35,742,0.943
2502.189,744.5,0.94
2517.02,747,0.935
2531.84,749.5,0.93
2546.69,752,0.927
2561.49,754.5,0.923
2576.35,757,0.921
2591.19,759.5,0.917
2606.025,762,0.915
2620.83,764.5,0.909
2635.65,767,0.907
2650.5,769.5,0.905
2665.317,772,0.901
2680.2,774.5,0.899
2695.08,777,0.897
2709.92,779.5,0.893
2724.765,782,0.891
2739.62,784.5,0.889
2754.474,787,0.886
2769.321,789.5,0.884
2784.21,792,0.88
2799.13,794.5,0.876
2814.02,797,0.872
2828.94,799.5,0.872
2843.85,802,0.868
2858.78,804.5,0.87
2873.7,807,0.866
2888.55,809.5,0.864
2903.517,812,0.863
2918.478,814.5,0.858
2933.4,817,0.856
2948.38,819.5,0.857
2963.34,822,0.854
2978.32,824.5,0.852
2993.3,827,0.849
3008.27,829.5,0.848
3023.21,832,0.846
3038.15,834.5,0.842
3053.09,837,0.843
3067.995,839.5,0.84
3082.92,842,0.839
3097.84,844.5,0.841
3112.75,847,0.837
3127.66,849.5,0.833
3142.6,852,0.834
3157.66,854.5,0.83
3172.66,857,0.826
3187.65,859.5,0.825
3202.67,862,0.824
3217.68,864.5,0.822
3232.68,867,0.82
3247.64,869.5,0.818
3262.66,872,0.818
3277.7,874.5,0.816
3292.69,877,0.814
3307.731,879.5,0.813
3322.72,882,0.81
3337.79,884.5,0.81
3352.84,887,0.81
3367.9,889.5,0.806
3382.97,892,0.807
3398.06,894.5,0.805
3413.16,897,0.802
3428.25,899.5,0.801
3443.31,902,0.801
3458.4,904.5,0.798
3473.49,907,0.797
3488.52,909.5,0.795
3503.59,912,0.794
3518.65,914.5,0.795
3533.72,917,0.794
3548.83,919.5,0.791
3563.87,922,0.79
3578.9,924.5,0.787
3593.89,927,0.788
3609.01,929.5,0.788
3624.09,932,0.787
3639.15,934.5,0.787
3654.21,937,0.786
3669.264,939.5,0.782
3684.33,942,0.782
3699.43,944.5,0.781
3714.57,947,0.78
3729.67,949.5,0.779
3744.8,952,0.777
3759.906,954.5,0.777
3775.02,957,0.777
3790.16,959.5,0.776
3805.3,962,0.777
3820.42,964.5,0.775
3835.563,967,0.775
3850.662,969.5,0.776
3865.8,972,0.771
3880.91,974.5,0.769
3896.037,977,0.772
3911.18,979.5,0.772
3926.346,982,0.769
3941.55,984.5,0.771
3956.742,987,0.769
3971.97,989.5,0.769
3987.2,992,0.768
4002.38,994.5,0.767
4017.52,997,0.764
4032.72,999.5,0.766
4047.9,1002,0.764
4063.158,1004.5,0.765
4078.44,1007,0.762
4093.65,1009.5,0.761
4108.84,1012,0.764
4124.08,1014.5,0.763
4139.28,1017,0.759
4154.47,1019.5,0.756
4169.73,1022,0.757
4184.91,1024.5,0.758
4200.07,1027,0.761
4215.28,1029.5,0.758
4230.49,1032,0.759
4245.69,1034.5,0.76
4260.95,1037,0.756
4276.18,1039.5,0.756
4291.49,1042,0.754
4306.84,1044.5,0.754
4322.15,1047,0.753
4337.42,1049.5,0.752
4352.68,1052,0.752
4367.93,1054.5,0.754
4383.18,1057,0.752
4398.42,1059.5,0.75
4413.684,1062,0.75
4428.99,1064.5,0.752
4444.29,1067,0.75
4459.57,1069.5,0.751

File: FSRI_TGA_N2_10K_R3.csv
Time (s),Temperature (K),Mass (mg)
0,324.5,3.923
49.0644,327,3.924
75.2352,329.5,3.923
97.1592,332,3.924
117.1458,334.5,3.923
136.086,337,3.922
154.2936,339.5,3.921
171.9426,342,3.922
189.1248,344.5,3.92
205.9812,347,3.92
222.4938,349.5,3.92
238.6896,352,3.919
254.6922,354.5,3.919
270.498,357,3.917
286.1202,359.5,3.917
301.5084,362,3.916
316.7358,364.5,3.915
331.8114,367,3.916
346.7694,369.5,3.916
361.5942,372,3.914
376.4154,374.5,3.913
391.1442,377,3.914
405.8088,379.5,3.912
420.3966,382,3.912
434.9604,384.5,3.913
449.4588,387,3.912
464.0508,389.5,3.912
478.5672,392,3.909
493.083,394.5,3.913
507.5106,397,3.913
521.9022,399.5,3.912
536.2884,402,3.91
550.6164,404.5,3.91
564.9354,407,3.91
579.2466,409.5,3.911
593.5392,412,3.911
607.776,414.5,3.91
622.0122,417,3.911
636.2124,419.5,3.909
650.4498,422,3.908
664.6272,424.5,3.908
678.7962,427,3.91
692.9796,429.5,3.908
707.1282,432,3.906
721.2558,434.5,3.907
735.4458,437,3.908
749.6046,439.5,3.908
763.803,442,3.906
777.9288,444.5,3.907
792.0816,447,3.905
806.2476,449.5,3.903
820.4016,452,3.903
834.5466,454.5,3.902
848.6754,457,3.9
862.8102,459.5,3.899
876.978,462,3.896
891.114,464.5,3.895
905.2476,467,3.894
919.3998,469.5,3.89
933.5538,472,3.888
947.6964,474.5,3.884
961.8186,477,3.883
975.9354,479.5,3.879
990.0858,482,3.875
1004.24,484.5,3.871
1018.4,487,3.866
1032.49,489.5,3.863
1046.64,492,3.859
1060.79,494.5,3.853
1074.97,497,3.849
1089.1,499.5,3.843
1103.29,502,3.838
1117.43,504.5,3.834
1131.63,507,3.829
1145.81,509.5,3.823
1160.01,512,3.817
1174.17,514.5,3.81
1188.35,517,3.805
1202.526,519.5,3.797
1216.71,522,3.789
1230.927,524.5,3.78
1245.117,527,3.772
1259.31,529.5,3.76
1273.545,532,3.751
1287.76,534.5,3.739
1302.015,537,3.727
1316.24,539.5,3.715
1330.45,542,3.7
1344.7,544.5,3.687
1358.93,547,3.67
1373.2,549.5,3.654
1387.45,552,3.635
1401.72,554.5,3.617
1416,557,3.597
1430.28,559.5,3.575
1444.57,562,3.552
1458.89,564.5,3.529
1473.18,567,3.502
1487.52,569.5,3.476
1501.836,572,3.445
1516.14,574.5,3.413
1530.48,577,3.38
1544.79,579.5,3.345
1559.1,582,3.307
1573.44,584.5,3.264
1587.76,587,3.224
1602.11,589.5,3.177
1616.45,592,3.131
1630.8,594.5,3.081
1645.17,597,3.029
1659.58,599.5,2.972
1673.97,602,2.916
1688.418,604.5,2.858
1702.848,607,2.799
1717.29,609.5,2.736
1731.74,612,2.672
1746.14,614.5,2.607
1760.62,617,2.539
1775.07,619.5,2.472
1789.51,622,2.401
1804.014,624.5,2.328
1818.51,627,2.25
1833.01,629.5,2.17
1847.61,632,2.086
1862.175,634.5,2
1876.77,637,1.911
1891.34,639.5,1.815
1905.87,642,1.719
1920.32,644.5,1.623
1934.76,647,1.528
1949.14,649.5,1.439
1963.416,652,1.361
1977.69,654.5,1.292
1991.94,657,1.239
2006.169,659.5,1.2
2020.51,662,1.172
2034.87,664.5,1.153
2049.37,667,1.141
2063.88,669.5,1.13
2078.49,672,1.123
2093.082,674.5,1.115
2107.7,677,1.106
2122.27,679.5,1.101
2136.94,682,1.092
2151.5,684.5,1.085
2166.108,687,1.078
2180.7,689.5,1.071
2195.35,692,1.065
2210,694.5,1.058
2224.66,697,1.05
2239.3,699.5,1.043
2254.01,702,1.036
2268.69,704.5,1.03
2283.381,707,1.022
2298.06,709.5,1.016
2312.724,712,1.009
2327.47,714.5,1.003
2342.18,717,0.997
2356.88,719.5,0.993
2371.617,722,0.987
2386.34,724.5,0.981
2401.1,727,0.976
2415.843,729.5,0.972
2430.59,732,0.966
2445.35,734.5,0.963
2460.16,737,0.956
2474.92,739.5,0.952
2489.7,742,0.947
2504.45,744.5,0.943
2519.24,747,0.939
2533.977,749.5,0.937
2548.79,752,0.933
2563.56,754.5,0.929
2578.36,757,0.927
2593.15,759.5,0.923
2607.96,762,0.919
2622.78,764.5,0.917
2637.62,767,0.915
2652.42,769.5,0.912
2667.264,772,0.909
2682.129,774.5,0.905
2697,777,0.903
2711.841,779.5,0.899
2726.7,782,0.897
2741.53,784.5,0.895
2756.42,787,0.893
2771.29,789.5,0.889
2786.136,792,0.887
2801.02,794.5,0.884
2815.88,797,0.882
2830.78,799.5,0.881
2845.69,802,0.878
2860.617,804.5,0.874
2875.503,807,0.872
2890.41,809.5,0.87
2905.31,812,0.869
2920.22,814.5,0.868
2935.14,817,0.863
2950.11,819.5,0.862
2965.06,822,0.86
2979.98,824.5,0.856
2994.87,827,0.856
3009.85,829.5,0.854
3024.8,832,0.852
3039.73,834.5,0.85
3054.73,837,0.849
3069.7,839.5,0.846
3084.675,842,0.845
3099.66,844.5,0.843
3114.67,847,0.841
3129.67,849.5,0.839
3144.63,852,0.837
3159.64,854.5,0.835
3174.64,857,0.833
3189.66,859.5,0.831
3204.67,862,0.829
3219.66,864.5,0.829
3234.62,867,0.827
3249.64,869.5,0.826
3264.64,872,0.825
3279.65,874.5,0.822
3294.69,877,0.819
3309.72,879.5,0.818
3324.771,882,0.816
3339.79,884.5,0.816
3354.82,887,0.814
3369.83,889.5,0.812
3384.83,892,0.81
3399.84,894.5,0.809
3414.83,897,0.809
3429.86,899.5,0.806
3444.87,902,0.806
3459.9,904.5,0.804
3474.94,907,0.803
3489.98,909.5,0.802
3505.04,912,0.8
3520.08,914.5,0.8
3535.113,917,0.798
3550.16,919.5,0.797
3565.32,922,0.796
3580.43,924.5,0.794
3595.58,927,0.793
3610.73,929.5,0.793
3625.86,932,0.792
3640.98,934.5,0.79
3656.11,937,0.788
3671.2,939.5,0.789
3686.31,942,0.785
3701.403,944.5,0.787
3716.51,947,0.786
3731.67,949.5,0.784
3746.8,952,0.781
3761.96,954.5,0.782
3777.126,957,0.781
3792.29,959.5,0.781
3807.44,962,0.778
3822.61,964.5,0.779
3837.807,967,0.776
3853.01,969.5,0.777
3868.149,972,0.775
3883.3,974.5,0.775
3898.47,977,0.774
3913.61,979.5,0.773
3928.74,982,0.772
3943.91,984.5,0.771
3959.04,987,0.771
3974.268,989.5,0.771
3989.52,992,0.77
4004.74,994.5,0.77
4019.92,997,0.769
4035.13,999.5,0.767
4050.333,1002,0.767
4065.555,1004.5,0.766
4080.79,1007,0.766
4095.984,1009.5,0.765
4111.18,1012,0.763
4126.39,1014.5,0.763
4141.62,1017,0.765
4156.81,1019.5,0.763
4171.968,1022,0.761
4187.14,1024.5,0.761
4202.331,1027,0.76
4217.52,1029.5,0.76
4232.727,1032,0.758
4247.9,1034.5,0.759
4263.14,1037,0.759
4278.4,1039.5,0.757
4293.69,1042,0.756
4309.04,1044.5,0.755
4324.35,1047,0.755
4339.61,1049.5,0.755
4354.94,1052,0.754
4370.229,1054.5,0.753
4385.517,1057,0.752
4400.87,1059.5,0.752
4416.17,1062,0.75
4431.41,1064.5,0.752
4446.684,1067,0.751
4461.96,1069.5,0.75

File: FSRI_TGA_N2_30K_R1.csv
Time (s),Temperature (K),Mass (mg)
0,325.0,4.042
29.9352,327.5,4.042
43.887,330.0,4.044
54.6948,332.5,4.043
63.9414,335.0,4.042
72.2616,337.5,4.042
80.0058,340.0,4.041
87.2988,342.5,4.042
94.2768,345.0,4.039
101.019,347.5,4.040
107.5428,350.0,4.041
113.9082,352.5,4.039
120.1404,355.0,4.038
126.2004,357.5,4.036
132.168,360.0,4.039
138.0396,362.5,4.038
143.8104,365.0,4.036
149.4984,367.5,4.036
155.118,370.0,4.036
160.665,372.5,4.036
166.155,375.0,4.036
171.618,377.5,4.034
177.0168,380.0,4.033
182.3976,382.5,4.032
187.7406,385.0,4.032
193.029,387.5,4.032
198.3072,390.0,4.030
203.5338,392.5,4.029
208.7412,395.0,4.030
213.8556,397.5,4.029
219.0078,400.0,4.029
224.0946,402.5,4.028
229.1574,405.0,4.028
234.1716,407.5,4.029
239.1522,410.0,4.028
244.1166,412.5,4.028
249.054,415.0,4.028
253.9542,417.5,4.028
258.8304,420.0,4.029
263.688,422.5,4.029
268.5192,425.0,4.028
273.3402,427.5,4.028
278.1402,430.0,4.027
282.9336,432.5,4.026
287.7066,435.0,4.027
292.4532,437.5,4.026
297.1962,440.0,4.026
301.9272,442.5,4.025
306.6468,445.0,4.024
311.3526,447.5,4.024
316.017,450.0,4.026
320.6982,452.5,4.026
325.3692,455.0,4.026
330.0072,457.5,4.024
334.6374,460.0,4.023
339.246,462.5,4.024
343.8384,465.0,4.023
348.4218,467.5,4.023
352.9908,470.0,4.021
357.5532,472.5,4.021
362.115,475.0,4.020
366.663,477.5,4.020
371.2086,480.0,4.018
375.7374,482.5,4.016
380.2614,485.0,4.014
384.801,487.5,4.014
389.3238,490.0,4.013
393.8382,492.5,4.009
398.3484,495.0,4.007
402.8556,497.5,4.006
407.3448,500.0,4.002
411.8694,502.5,3.999
416.3634,505.0,3.995
420.8616,507.5,3.992
425.3382,510.0,3.990
429.8244,512.5,3.983
434.3148,515.0,3.979
438.7926,517.5,3.973
443.2686,520.0,3.967
447.741,522.5,3.962
452.2074,525.0,3.955
456.6786,527.5,3.950
461.1366,530.0,3.944
465.6048,532.5,3.937
470.0556,535.0,3.930
474.5142,537.5,3.923
478.959,540.0,3.914
483.4068,542.5,3.906
487.8618,545.0,3.896
492.3042,547.5,3.886
496.7646,550.0,3.876
501.2172,552.5,3.866
505.6734,555.0,3.854
510.1278,557.5,3.842
514.5762,560.0,3.831
519.0378,562.5,3.817
523.494,565.0,3.802
527.949,567.5,3.786
532.413,570.0,3.770
536.8728,572.5,3.751
541.3332,575.0,3.734
545.7972,577.5,3.716
550.2612,580.0,3.695
554.7336,582.5,3.674
559.2066,585.0,3.650
563.6754,587.5,3.626
568.149,590.0,3.599
572.6346,592.5,3.572
577.1088,595.0,3.542
581.6028,597.5,3.510
586.0968,600.0,3.477
590.5944,602.5,3.439
595.0914,605.0,3.400
599.5998,607.5,3.359
604.0968,610.0,3.314
608.613,612.5,3.268
613.1202,615.0,3.220
617.6334,617.5,3.169
622.1556,620.0,3.117
626.6802,622.5,3.063
631.206,625.0,3.005
635.7288,627.5,2.948
640.248,630.0,2.890
644.7834,632.5,2.828
649.3272,635.0,2.767
653.883,637.5,2.704
658.4394,640.0,2.640
663.0126,642.5,2.572
667.5948,645.0,2.501
672.174,647.5,2.428
676.776,650.0,2.352
681.396,652.5,2.273
686.0088,655.0,2.190
690.6216,657.5,2.102
695.22,660.0,2.010
699.786,662.5,1.921
704.3754,665.0,1.830
708.9,667.5,1.739
713.3922,670.0,1.651
717.8502,672.5,1.572
722.2704,675.0,1.503
726.6792,677.5,1.441
731.0958,680.0,1.391
735.5196,682.5,1.356
739.9782,685.0,1.329
744.4722,687.5,1.310
749.016,690.0,1.295
753.585,692.5,1.285
758.1426,695.0,1.273
762.7458,697.5,1.261
767.3736,700.0,1.257
771.9936,702.5,1.250
776.5998,705.0,1.241
781.2198,707.5,1.234
785.8488,710.0,1.226
790.482,712.5,1.220
795.1152,715.0,1.213
799.752,717.5,1.203
804.399,720.0,1.198
809.0448,722.5,1.191
813.702,725.0,1.186
818.3646,727.5,1.178
823.0398,730.0,1.173
827.7126,732.5,1.168
832.4004,735.0,1.159
837.0894,737.5,1.154
841.7892,740.0,1.149
846.4908,742.5,1.144
851.181,745.0,1.137
855.8988,747.5,1.132
860.6514,750.0,1.126
865.3764,752.5,1.122
870.1038,755.0,1.117
874.8336,757.5,1.113
879.57,760.0,1.110
884.3118,762.5,1.108
889.041,765.0,1.103
893.7906,767.5,1.098
898.5408,770.0,1.093
903.2946,772.5,1.090
908.0418,775.0,1.086
912.8046,777.5,1.083
917.568,780.0,1.079
922.3386,782.5,1.077
927.1056,785.0,1.078
931.8828,787.5,1.073
936.6606,790.0,1.069
941.4354,792.5,1.066
946.2222,795.0,1.064
951.0096,797.5,1.059
955.8066,800.0,1.057
960.606,802.5,1.055
965.4084,805.0,1.053
970.2132,807.5,1.052
975.0198,810.0,1.049
979.836,812.5,1.046
984.6402,815.0,1.044
989.4642,817.5,1.041
994.293,820.0,1.038
999.132,822.5,1.037
1003.97,825.0,1.036
1008.8,827.5,1.032
1013.68,830.0,1.030
1018.54,832.5,1.026
1023.4,835.0,1.025
1028.27,837.5,1.025
1033.143,840.0,1.023
1038.02,842.5,1.020
1042.9,845.0,1.022
1047.78,847.5,1.017
1052.67,850.0,1.015
1057.542,852.5,1.013
1062.42,855.0,1.011
1067.316,857.5,1.009
1072.19,860.0,1.007
1077.07,862.5,1.005
1081.95,865.0,1.004
1086.822,867.5,1.002
1091.7,870.0,0.998
1096.581,872.5,0.998
1101.46,875.0,0.997
1106.33,877.5,0.994
1111.22,880.0,0.993
1116.09,882.5,0.991
1120.98,885.0,0.989
1125.84,887.5,0.989
1130.74,890.0,0.986
1135.63,892.5,0.984
1140.51,895.0,0.984
1145.39,897.5,0.981
1150.28,900.0,0.980
1155.165,902.5,0.978
1160.04,905.0,0.976
1164.94,907.5,0.976
1169.829,910.0,0.974
1174.71,912.5,0.973
1179.603,915.0,0.972
1184.5,917.5,0.970
1189.39,920.0,0.969
1194.29,922.5,0.968
1199.178,925.0,0.967
1204.08,927.5,0.965
1208.97,930.0,0.965
1213.86,932.5,0.963
1218.75,935.0,0.962
1223.64,937.5,0.961
1228.55,940.0,0.959
1233.44,942.5,0.961
1238.316,945.0,0.957
1243.24,947.5,0.956
1248.13,950.0,0.955
1253.03,952.5,0.954
1257.945,955.0,0.954
1262.847,957.5,0.952
1267.76,960.0,0.951
1272.68,962.5,0.950
1277.59,965.0,0.950
1282.51,967.5,0.950
1287.43,970.0,0.947
1292.36,972.5,0.947
1297.29,975.0,0.947
1302.2,977.5,0.946
1307.151,980.0,0.947
1312.08,982.5,0.944
1317.02,985.0,0.944
1321.98,987.5,0.943
1326.93,990.0,0.941
1331.89,992.5,0.941
1336.84,995.0,0.942
1341.801,997.5,0.941
1346.76,1000.0,0.939
1351.73,1002.5,0.938
1356.69,1005.0,0.938
1361.66,1007.5,0.934
1366.63,1010.0,0.934
1371.58,1012.5,0.935
1376.58,1015.0,0.935
1381.54,1017.5,0.935
1386.53,1020.0,0.933
1391.51,1022.5,0.933
1396.48,1025.0,0.931
1401.43,1027.5,0.930
1406.421,1030.0,0.931
1411.41,1032.5,0.931
1416.39,1035.0,0.930
1421.37,1037.5,0.929
1426.35,1040.0,0.929
1431.33,1042.5,0.929
1436.32,1045.0,0.927
1441.3,1047.5,0.926
1446.29,1050.0,0.925
1451.274,1052.5,0.925
1456.26,1055.0,0.924
1461.261,1057.5,0.923
1466.26,1060.0,0.925
1471.25,1062.5,0.923
1473.3,1063.5,0.923