Folder: matl-db/Wood/Calibration_Data/FSRI (part 10)

File: FSRI_Wood_Perpendicular_Cone_75kW_hor_R1.csv
Time,Mass (g),HRRPUA (kW/m2)
0.0,98.52,4.9
4.0,98.57,6.7
8.0,98.35,8.3
12.0,98.05,8.3
16.0,97.29,7.9
20.0,96.4,7.9
24.0,95.6,60.8
28.0,94.73,182.9
32.0,94.0,288.0
36.0,93.26,330.5
40.0,92.55,348.0
44.0,91.83,330.0
48.0,91.18,323.2
52.0,90.54,297.4
56.0,89.96,284.2
60.0,89.41,262.8
64.0,88.87,254.6
68.0,88.36,239.3
72.0,87.83,231.4
76.0,87.31,225.5
80.0,86.75,214.1
84.0,86.21,206.7
88.0,85.74,201.5
92.0,85.25,200.3
96.0,84.78,192.7
100.0,84.33,187.3
104.0,83.88,186.7
108.0,83.42,174.5
112.0,82.94,175.0
116.0,82.48,172.8
120.0,82.01,163.2
124.0,81.55,165.2
128.0,81.12,160.0
132.0,80.7,158.2
136.0,80.26,158.9
140.0,79.82,155.0
144.0,79.42,149.6
148.0,79.01,150.9
152.0,78.55,147.7
156.0,78.11,145.6
160.0,77.72,144.7
164.0,77.25,145.7
168.0,76.85,144.3
172.0,76.44,143.2
176.0,76.06,138.9
180.0,75.65,140.8
184.0,75.23,139.8
188.0,74.82,137.2
192.0,74.39,134.8
196.0,74.0,136.4
200.0,73.59,132.9
204.0,73.19,127.6
208.0,72.79,129.1
212.0,72.43,129.1
216.0,72.06,127.4
220.0,71.64,125.1
224.0,71.28,125.7
228.0,70.85,125.2
232.0,70.47,125.5
236.0,70.06,124.3
240.0,69.71,120.6
244.0,69.32,123.6
248.0,69.01,123.5
252.0,68.59,119.1
256.0,68.23,118.2
260.0,67.82,121.4
264.0,67.45,120.0
268.0,67.06,119.3
272.0,66.66,120.3
276.0,66.31,120.9
280.0,65.97,121.4
284.0,65.62,122.8
288.0,65.26,121.6
292.0,64.89,122.4
296.0,64.51,119.6
300.0,64.14,121.4
304.0,63.78,118.5
308.0,63.44,120.1
312.0,63.09,120.2
316.0,62.73,119.1
320.0,62.38,119.4
324.0,62.0,117.7
328.0,61.64,120.4
332.0,61.25,119.5
336.0,60.92,120.1
340.0,60.53,121.5
344.0,60.17,119.4
348.0,59.82,121.7
352.0,59.47,123.7
356.0,59.15,123.8
360.0,58.78,125.7
364.0,58.4,121.8
368.0,58.03,122.7
372.0,57.68,122.6
376.0,57.3,123.4
380.0,56.94,125.8
384.0,56.62,126.0
388.0,56.29,125.2
392.0,55.91,124.1
396.0,55.62,124.7
400.0,55.22,126.4
404.0,54.87,126.7
408.0,54.5,127.0
412.0,54.14,126.9
416.0,53.81,128.4
420.0,53.46,126.8
424.0,53.12,127.8
428.0,52.83,128.1
432.0,52.45,130.1
436.0,52.14,130.8
440.0,51.78,128.8
444.0,51.35,131.3
448.0,50.98,129.4
452.0,50.66,131.8
456.0,50.34,134.9
460.0,50.02,134.7
464.0,49.68,133.5
468.0,49.34,134.4
472.0,49.0,136.7
476.0,48.59,137.2
480.0,48.2,132.1
484.0,47.88,133.7
488.0,47.56,134.1
492.0,47.21,137.8
496.0,46.89,137.0
500.0,46.57,138.1
504.0,46.17,138.2
508.0,45.81,138.2
512.0,45.43,139.1
516.0,45.09,138.8
520.0,44.76,142.5
524.0,44.4,143.2
528.0,44.08,141.1
532.0,43.7,140.8
536.0,43.37,143.8
540.0,43.0,141.2
544.0,42.66,142.1
548.0,42.26,142.3
552.0,41.92,143.1
556.0,41.52,143.2
560.0,41.19,144.6
564.0,40.8,145.0
568.0,40.49,147.2
572.0,40.11,147.7
576.0,39.73,147.5
580.0,39.36,148.6
584.0,39.01,148.7
588.0,38.59,149.4
592.0,38.22,151.0
596.0,37.84,153.0
600.0,37.47,151.9
604.0,37.09,152.5
608.0,36.71,156.8
612.0,36.32,156.5
616.0,35.92,155.0
620.0,35.56,156.9
624.0,35.11,156.7
628.0,34.71,160.2
632.0,34.31,163.0
636.0,33.94,165.9
640.0,33.56,164.9
644.0,33.2,164.9
648.0,32.8,165.5
652.0,32.39,169.3
656.0,32.01,168.1
660.0,31.56,168.0
664.0,31.17,168.0
668.0,30.79,166.4
672.0,30.38,164.8
676.0,30.01,162.7
680.0,29.65,160.3
684.0,29.3,160.9
688.0,28.93,161.2
692.0,28.51,158.7
696.0,28.14,159.9
700.0,27.78,158.3
704.0,27.43,161.9
708.0,27.05,158.9
712.0,26.73,158.0
716.0,26.35,153.7
720.0,26.06,154.4
724.0,25.69,150.2
728.0,25.33,150.6
732.0,24.98,148.9
736.0,24.67,148.4
740.0,24.34,147.1
744.0,24.03,144.6
748.0,23.75,142.8
752.0,23.49,142.4
756.0,23.19,140.2
760.0,22.9,136.1
764.0,22.55,131.9
768.0,22.26,132.8
772.0,22.03,127.9
776.0,21.77,125.4
780.0,21.54,128.6
784.0,21.32,121.1
788.0,21.05,123.5
792.0,20.81,120.2
796.0,20.61,118.1
800.0,20.33,116.1
804.0,20.14,111.3
808.0,19.92,108.5
812.0,19.74,106.2
816.0,19.54,105.3
820.0,19.41,100.6
824.0,19.25,97.7
828.0,19.1,95.4
832.0,18.95,91.8
836.0,18.72,89.4
840.0,18.57,87.2
844.0,18.43,83.0
848.0,18.31,80.4
852.0,18.19,77.9
856.0,18.06,77.7
860.0,18.03,74.1
864.0,17.92,72.2
868.0,17.81,71.3
872.0,17.68,68.6
876.0,17.6,64.6
880.0,17.52,62.6
884.0,17.45,60.9
888.0,17.37,58.8
892.0,17.31,57.3
896.0,17.3,56.5
900.0,17.27,55.8
904.0,17.2,52.9
908.0,17.11,50.6
912.0,17.02,48.8
916.0,16.98,48.4
920.0,16.92,46.6
924.0,16.86,45.1
928.0,16.84,44.1
932.0,16.84,43.6
936.0,16.87,42.8
940.0,16.79,42.4
944.0,16.74,41.1
948.0,16.64,39.8
952.0,16.55,41.1
956.0,16.5,40.2
960.0,16.46,39.7
964.0,16.37,39.2
968.0,16.39,39.0
972.0,16.41,40.3
976.0,16.37,40.4
980.0,16.31,39.9
984.0,16.22,40.0
988.0,16.15,40.7
992.0,16.09,41.1
996.0,16.09,41.2
1000.0,16.05,40.3
1004.0,16.03,40.2
1008.0,16.08,39.2
1012.0,16.01,39.9
1016.0,15.94,39.8
1020.0,15.79,41.2
1022.0,15.77,40.4

File: FSRI_Wood_Perpendicular_Cone_75kW_hor_R2.csv
Time,Mass (g),HRRPUA (kW/m2)
0.0,103.75,0.0
4.0,103.31,1.0
8.0,103.09,1.8
12.0,102.9,2.0
16.0,102.51,1.5
20.0,101.82,1.5
24.0,100.89,3.9
28.0,100.04,71.0
32.0,99.2,209.7
36.0,98.45,298.2
40.0,97.73,332.9
44.0,97.13,341.1
48.0,96.47,321.7
52.0,95.85,293.7
56.0,95.25,285.6
60.0,94.6,268.1
64.0,94.06,251.6
68.0,93.53,241.4
72.0,93.01,229.9
76.0,92.47,222.5
80.0,91.97,210.6
84.0,91.52,203.0
88.0,91.02,197.3
92.0,90.58,192.1
96.0,90.03,189.0
100.0,89.54,179.4
104.0,89.17,177.6
108.0,88.67,173.9
112.0,88.24,168.9
116.0,87.83,164.0
120.0,87.4,161.1
124.0,86.94,160.6
128.0,86.51,154.8
132.0,86.01,151.4
136.0,85.61,149.4
140.0,85.17,149.5
144.0,84.77,144.1
148.0,84.37,143.6
152.0,83.95,142.2
156.0,83.55,139.6
160.0,83.13,139.1
164.0,82.68,136.4
168.0,82.29,134.9
172.0,81.9,133.9
176.0,81.46,133.0
180.0,81.05,132.6
184.0,80.67,131.4
188.0,80.32,128.7
192.0,79.91,133.0
196.0,79.46,129.4
200.0,79.01,125.0
204.0,78.62,127.4
208.0,78.2,124.5
212.0,77.81,122.5
216.0,77.45,125.0
220.0,77.05,122.4
224.0,76.71,122.4
228.0,76.26,119.2
232.0,75.84,118.7
236.0,75.51,111.7
240.0,75.09,117.7
244.0,74.71,117.0
248.0,74.31,114.0
252.0,73.99,113.6
256.0,73.66,110.6
260.0,73.3,114.7
264.0,72.96,112.1
268.0,72.56,112.8
272.0,72.24,111.7
276.0,71.81,110.7
280.0,71.41,110.2
284.0,71.07,108.0
288.0,70.72,108.5
292.0,70.39,107.0
296.0,70.05,109.0
300.0,69.71,109.3
304.0,69.33,109.2
308.0,68.96,109.1
312.0,68.61,105.3
316.0,68.26,104.5
320.0,67.9,106.3
324.0,67.6,106.6
328.0,67.26,106.2
332.0,66.94,106.1
336.0,66.58,107.0
340.0,66.24,106.9
344.0,65.94,104.4
348.0,65.54,104.0
352.0,65.18,103.9
356.0,64.85,106.0
360.0,64.5,106.2
364.0,64.21,105.6
368.0,63.92,107.5
372.0,63.56,106.8
376.0,63.24,108.0
380.0,62.86,108.7
384.0,62.51,106.8
388.0,62.19,109.3
392.0,61.88,112.4
396.0,61.54,113.1
400.0,61.19,112.1
404.0,60.92,112.3
408.0,60.55,111.2
412.0,60.2,112.5
416.0,59.88,115.9
420.0,59.49,117.0
424.0,59.21,117.5
428.0,58.84,115.6
432.0,58.57,116.4
436.0,58.24,118.9
440.0,57.88,118.3
444.0,57.54,118.1
448.0,57.18,121.1
452.0,56.83,122.1
456.0,56.55,119.9
460.0,56.18,123.3
464.0,55.84,119.5
468.0,55.53,122.7
472.0,55.21,124.1
476.0,54.86,120.3
480.0,54.54,123.5
484.0,54.21,124.9
488.0,53.85,127.7
492.0,53.47,127.7
496.0,53.14,124.5
500.0,52.8,125.7
504.0,52.51,127.5
508.0,52.16,126.4
512.0,51.81,125.4
516.0,51.47,124.4
520.0,51.15,126.2
524.0,50.77,127.6
528.0,50.43,127.7
532.0,50.12,129.3
536.0,49.78,128.5
540.0,49.45,129.9
544.0,49.1,130.0
548.0,48.74,130.0
552.0,48.44,128.8
556.0,48.06,133.7
560.0,47.69,130.9
564.0,47.37,129.8
568.0,47.01,132.7
572.0,46.65,135.2
576.0,46.29,136.1
580.0,45.96,133.3
584.0,45.61,136.9
588.0,45.23,136.7
592.0,44.88,142.0
596.0,44.5,137.6
600.0,44.16,138.4
604.0,43.78,142.4
608.0,43.41,144.1
612.0,43.01,142.8
616.0,42.67,145.4
620.0,42.3,145.8
624.0,41.93,146.6
628.0,41.55,145.3
632.0,41.15,146.2
636.0,40.79,150.8
640.0,40.4,152.7
644.0,40.01,150.1
648.0,39.61,152.0
652.0,39.26,156.6
656.0,38.84,154.5
660.0,38.48,156.1
664.0,38.07,158.6
668.0,37.63,158.1
672.0,37.23,158.8
676.0,36.86,159.3
680.0,36.46,159.0
684.0,36.07,157.7
688.0,35.66,159.9
692.0,35.27,162.9
696.0,34.88,160.6
700.0,34.51,165.4
704.0,34.07,161.2
708.0,33.64,161.7
712.0,33.23,164.5
716.0,32.84,164.9
720.0,32.45,166.6
724.0,32.09,166.7
728.0,31.7,163.4
732.0,31.36,160.2
736.0,30.96,161.4
740.0,30.56,164.1
744.0,30.13,161.0
748.0,29.76,158.6
752.0,29.4,156.5
756.0,28.99,155.2
760.0,28.65,162.1
764.0,28.34,158.1
768.0,27.99,156.7
772.0,27.63,157.9
776.0,27.27,155.2
780.0,26.91,152.3
784.0,26.58,151.9
788.0,26.22,149.2
792.0,25.88,150.4
796.0,25.54,150.4
800.0,25.26,146.4
804.0,24.95,147.3
808.0,24.67,140.9
812.0,24.34,141.3
816.0,24.0,138.3
820.0,23.67,137.5
824.0,23.42,132.1
828.0,23.15,131.4
832.0,22.94,127.5
836.0,22.65,127.2
840.0,22.39,125.8
844.0,22.17,125.0
848.0,21.94,119.6
852.0,21.71,115.4
856.0,21.44,113.1
860.0,21.21,112.4
864.0,21.04,109.8
868.0,20.79,108.1
872.0,20.64,102.7
876.0,20.45,98.7
880.0,20.29,98.2
884.0,20.1,95.8
888.0,19.96,94.0
892.0,19.75,91.5
896.0,19.59,89.0
900.0,19.43,84.9
904.0,19.29,83.0
908.0,19.18,79.7
912.0,19.1,79.1
916.0,18.97,76.1
920.0,18.87,71.5
924.0,18.73,67.2
928.0,18.61,63.3
932.0,18.5,61.4
936.0,18.43,60.8
940.0,18.33,58.9
944.0,18.27,57.2
948.0,18.18,56.1
952.0,18.14,53.8
956.0,18.08,51.4
960.0,18.01,49.3
964.0,17.9,47.5
968.0,17.84,46.2
972.0,17.79,45.1
976.0,17.74,46.0
980.0,17.68,45.7
984.0,17.69,43.5
988.0,17.64,42.5
992.0,17.6,40.4
996.0,17.55,39.4
1000.0,17.43,38.9
1004.0,17.4,37.8
1008.0,17.35,36.9
1012.0,17.29,36.5
1016.0,17.23,36.5
1020.0,17.2,36.3
1024.0,17.23,36.6
1028.0,17.18,36.9
1032.0,17.15,37.1
1036.0,17.01,38.0
1040.0,16.97,36.4
1044.0,16.95,37.2
1048.0,16.9,36.3
1052.0,16.84,37.0
1056.0,16.81,37.0
1060.0,16.79,37.0
1064.0,16.78,37.2
1068.0,16.71,36.9
1072.0,16.64,37.3
1076.0,16.59,37.3
1080.0,16.52,38.5
1084.0,16.47,39.8
1088.0,16.44,41.2
1089.0,16.43,40.9

File: FSRI_Wood_Perpendicular_Cone_75kW_hor_R3.csv
Time,Mass (g),HRRPUA (kW/m2)
0.0,97.21,1.3
4.0,97.17,1.5
8.0,97.22,1.7
12.0,96.85,0.8
16.0,96.14,-0.1
20.0,95.35,0.3
24.0,94.46,57.5
28.0,93.66,185.4
32.0,92.96,279.8
36.0,92.26,326.7
40.0,91.53,338.5
44.0,90.88,325.4
48.0,90.23,298.6
52.0,89.67,288.1
56.0,89.04,262.8
60.0,88.54,247.0
64.0,88.09,234.5
68.0,87.59,230.3
72.0,87.05,212.8
76.0,86.56,204.2
80.0,86.07,201.1
84.0,85.56,190.0
88.0,85.09,187.3
92.0,84.63,182.7
96.0,84.21,178.1
100.0,83.79,172.9
104.0,83.38,168.1
108.0,82.91,161.2
112.0,82.49,161.0
116.0,82.04,161.2
120.0,81.62,155.4
124.0,81.16,151.7
128.0,80.73,151.6
132.0,80.32,148.8
136.0,79.91,146.5
140.0,79.53,144.9
144.0,79.14,143.6
148.0,78.71,140.1
152.0,78.29,139.7
156.0,77.9,137.7
160.0,77.51,137.1
164.0,77.08,133.0
168.0,76.7,131.3
172.0,76.33,133.0
176.0,75.92,127.5
180.0,75.55,124.8
184.0,75.16,124.7
188.0,74.78,121.9
192.0,74.4,121.8
196.0,74.01,120.5
200.0,73.65,122.4
204.0,73.23,118.8
208.0,72.88,116.5
212.0,72.52,114.6
216.0,72.14,112.6
220.0,71.77,111.2
224.0,71.4,111.5
228.0,71.05,110.1
232.0,70.68,108.1
236.0,70.33,107.3
240.0,69.97,107.7
244.0,69.65,106.8
248.0,69.32,108.0
252.0,68.95,109.3
256.0,68.57,106.0
260.0,68.26,104.5
264.0,67.89,105.3
268.0,67.54,106.6
272.0,67.25,104.9
276.0,66.91,104.0
280.0,66.56,102.6
284.0,66.21,103.2
288.0,65.93,103.1
292.0,65.53,104.2
296.0,65.2,102.3
300.0,64.87,102.3
304.0,64.53,102.0
308.0,64.2,101.4
312.0,63.9,101.9
316.0,63.61,100.5
320.0,63.27,101.9
324.0,62.94,102.7
328.0,62.59,105.6
332.0,62.28,104.5
336.0,61.93,101.6
340.0,61.61,103.8
344.0,61.27,102.5
348.0,60.95,102.8
352.0,60.66,102.5
356.0,60.33,103.0
360.0,60.04,103.7
364.0,59.66,103.4
368.0,59.3,103.1
372.0,59.01,101.0
376.0,58.72,101.0
380.0,58.38,102.4
384.0,58.01,105.4
388.0,57.73,103.1
392.0,57.43,102.4
396.0,57.11,106.1
400.0,56.75,105.4
404.0,56.42,106.9
408.0,56.09,106.6
412.0,55.75,107.2
416.0,55.43,105.2
420.0,55.13,107.9
424.0,54.82,107.9
428.0,54.51,108.9
432.0,54.18,106.2
436.0,53.87,108.5
440.0,53.56,109.1
444.0,53.2,110.4
448.0,52.89,110.1
452.0,52.56,110.1
456.0,52.24,113.1
460.0,51.94,113.3
464.0,51.6,114.0
468.0,51.29,115.8
472.0,50.97,113.6
476.0,50.59,117.3
480.0,50.21,114.5
484.0,49.89,117.3
488.0,49.57,120.2
492.0,49.3,120.4
496.0,49.0,120.5
500.0,48.64,120.4
504.0,48.32,122.5
508.0,48.0,124.1
512.0,47.61,121.2
516.0,47.32,122.3
520.0,46.96,123.3
524.0,46.63,122.2
528.0,46.31,121.8
532.0,45.96,123.8
536.0,45.65,127.0
540.0,45.35,124.5
544.0,44.97,125.4
548.0,44.68,127.4
552.0,44.28,129.7
556.0,43.93,130.9
560.0,43.58,127.8
564.0,43.23,131.8
568.0,42.91,131.7
572.0,42.57,134.2
576.0,42.21,135.1
580.0,41.85,133.1
584.0,41.52,137.9
588.0,41.1,139.7
592.0,40.69,142.4
596.0,40.34,142.2
600.0,40.0,145.0
604.0,39.6,144.6
608.0,39.24,145.6
612.0,38.87,146.9
616.0,38.45,149.8
620.0,38.07,153.4
624.0,37.64,152.5
628.0,37.24,152.2
632.0,36.83,156.8
636.0,36.45,158.3
640.0,36.07,157.2
644.0,35.68,160.2
648.0,35.28,156.8
652.0,34.87,162.5
656.0,34.41,162.7
660.0,34.01,162.4
664.0,33.58,164.4
668.0,33.19,163.0
672.0,32.78,166.1
676.0,32.36,166.9
680.0,32.03,162.6
684.0,31.57,166.7
688.0,31.17,159.5
692.0,30.75,164.3
696.0,30.35,164.4
700.0,29.93,165.2
704.0,29.53,167.0
708.0,29.12,165.7
712.0,28.75,163.0
716.0,28.41,165.9
720.0,28.01,160.7
724.0,27.6,160.0
728.0,27.22,159.7
732.0,26.83,161.3
736.0,26.46,159.1
740.0,26.12,159.2
744.0,25.73,156.4
748.0,25.39,157.2
752.0,25.11,152.6
756.0,24.76,150.9
760.0,24.42,149.8
764.0,24.04,147.7
768.0,23.69,147.4
772.0,23.39,143.5
776.0,23.06,143.2
780.0,22.84,138.4
784.0,22.56,137.7
788.0,22.26,134.9
792.0,21.98,128.1
796.0,21.74,127.3
800.0,21.46,125.9
804.0,21.24,124.6
808.0,20.98,121.8
812.0,20.74,117.5
816.0,20.48,115.0
820.0,20.32,110.7
824.0,20.19,107.1
828.0,19.96,104.5
832.0,19.75,101.8
836.0,19.58,97.8
840.0,19.39,95.2
844.0,19.24,93.5
848.0,19.12,85.9
852.0,18.98,82.0
856.0,18.84,82.0
860.0,18.79,76.4
864.0,18.67,73.9
868.0,18.59,68.1
872.0,18.53,65.4
876.0,18.41,61.7
880.0,18.34,59.0
884.0,18.3,55.1
888.0,18.23,54.7
892.0,18.18,51.3
896.0,18.15,47.5
900.0,18.13,45.2
904.0,18.09,43.1
908.0,17.99,41.4
912.0,17.89,41.2
916.0,17.87,42.8
920.0,17.82,42.6
924.0,17.75,42.4
928.0,17.68,41.6
932.0,17.67,41.0
936.0,17.67,41.6
940.0,17.64,40.9
944.0,17.55,41.2
948.0,17.47,41.0
952.0,17.41,40.6
956.0,17.35,39.8
960.0,17.35,38.8
964.0,17.32,38.8
968.0,17.26,38.7
972.0,17.27,38.7
976.0,17.29,38.4
980.0,17.25,38.2
984.0,17.09,40.3
988.0,17.03,40.3
992.0,16.96,38.8
996.0,16.9,38.4
1000.0,16.94,38.2
1004.0,16.96,39.4
1008.0,16.95,38.8
1010.0,16.89,38.4

File: FSRI_Wood_STA_N2_10K_R1.csv
Time (s),Temperature (K),Mass (mg),Heat Flow Rate (W/g)
0.0,324.5,3.9592,0.017
51.2904,327.0,3.9595,0.0999
77.5735,329.5,3.9588,0.1366
99.5244,332.0,3.9594,0.16
119.543,334.5,3.9588,0.1757
138.43,337.0,3.9576,0.1896
156.588,339.5,3.9584,0.2005
174.157,342.0,3.9586,0.2095
191.409,344.5,3.9571,0.2176
208.268,347.0,3.9573,0.2272
224.858,349.5,3.9573,0.2348
241.163,352.0,3.9558,0.2441
257.231,354.5,3.9557,0.2482
273.015,357.0,3.9557,0.2548
288.676,359.5,3.9545,0.2625
304.199,362.0,3.9533,0.2648
319.478,364.5,3.9528,0.265
334.641,367.0,3.9519,0.2684
349.623,369.5,3.9518,0.2683
364.552,372.0,3.9475,0.2674
379.395,374.5,3.9501,0.2703
394.119,377.0,3.9472,0.2686
408.803,379.5,3.95,0.2687
423.407,382.0,3.9496,0.2673
438.052,384.5,3.9499,0.2678
452.569,387.0,3.9486,0.2671
467.116,389.5,3.9457,0.2685
481.634,392.0,3.9494,0.2672
496.137,394.5,3.9484,0.2709
510.578,397.0,3.9484,0.2721
525.031,399.5,3.9483,0.2717
539.43,402.0,3.9464,0.2752
553.723,404.5,3.9475,0.2768
568.115,407.0,3.9479,0.2793
582.428,409.5,3.9466,0.2807
596.711,412.0,3.9466,0.2827
610.953,414.5,3.9466,0.2843
625.148,417.0,3.9452,0.285
639.388,419.5,3.9453,0.2886
653.56,422.0,3.9445,0.2899
667.765,424.5,3.944,0.2936
681.961,427.0,3.944,0.295
696.144,429.5,3.9438,0.2995
710.27,432.0,3.9443,0.3022
724.401,434.5,3.9453,0.3052
738.519,437.0,3.9436,0.3086
752.62,439.5,3.943,0.3106
766.73,442.0,3.9417,0.3138
780.899,444.5,3.9427,0.3175
795.012,447.0,3.9413,0.3186
809.109,449.5,3.9413,0.3213
823.225,452.0,3.9387,0.3276
837.335,454.5,3.9377,0.3304
851.469,457.0,3.9361,0.3322
865.553,459.5,3.9354,0.3354
879.621,462.0,3.9334,0.3392
893.701,464.5,3.932,0.3416
907.828,467.0,3.9308,0.3451
921.903,469.5,3.9269,0.3466
935.955,472.0,3.9254,0.3496
950.087,474.5,3.9217,0.3522
964.17,477.0,3.9163,0.3544
978.261,479.5,3.915,0.3583
992.393,482.0,3.9115,0.3566
1006.5,484.5,3.907,0.3619
1020.65,487.0,3.9018,0.3679
1034.8,489.5,3.8976,0.3682
1048.96,492.0,3.8917,0.3721
1063.08,494.5,3.8869,0.3741
1077.18,497.0,3.8828,0.3769
1091.35,499.5,3.8766,0.3819
1105.48,502.0,3.8701,0.3814
1119.64,504.5,3.8646,0.3809
1133.76,507.0,3.8574,0.383
1147.93,509.5,3.852,0.3838
1162.1,512.0,3.8494,0.3837
1176.23,514.5,3.8381,0.3866
1190.42,517.0,3.8338,0.3904
1204.6,519.5,3.8256,0.3891
1218.77,522.0,3.8167,0.3911
1232.93,524.5,3.8087,0.3933
1247.04,527.0,3.8002,0.3942
1261.21,529.5,3.7884,0.3923
1275.46,532.0,3.7775,0.3916
1289.62,534.5,3.766,0.3919
1303.83,537.0,3.7545,0.3893
1318.07,539.5,3.74,0.3901
1332.27,542.0,3.7249,0.3892
1346.44,544.5,3.7105,0.3903
1360.71,547.0,3.6953,0.3927
1374.93,549.5,3.6751,0.3915
1389.21,552.0,3.6587,0.3916
1403.46,554.5,3.6414,0.3932
1417.74,557.0,3.62,0.3915
1432.02,559.5,3.5979,0.3938
1446.35,562.0,3.5747,0.3966
1460.61,564.5,3.5505,0.398
1474.93,567.0,3.5228,0.4022
1489.23,569.5,3.4956,0.4036
1503.5,572.0,3.4651,0.4084
1517.83,574.5,3.4347,0.4098
1532.13,577.0,3.4004,0.4147
1546.46,579.5,3.364,0.4217
1560.8,582.0,3.3269,0.428
1575.13,584.5,3.2834,0.4344
1589.52,587.0,3.2419,0.4413
1603.91,589.5,3.1965,0.4495
1618.28,592.0,3.1491,0.4604
1632.69,594.5,3.0979,0.4678
1647.06,597.0,3.0452,0.4737
1661.49,599.5,2.9898,0.4824
1675.91,602.0,2.9347,0.4885
1690.34,604.5,2.8744,0.4988
1704.76,607.0,2.8145,0.5048
1719.21,609.5,2.7523,0.5166
1733.66,612.0,2.6892,0.5276
1748.11,614.5,2.6244,0.5394
1762.55,617.0,2.5562,0.5523
1777,619.5,2.4877,0.5665
1791.43,622.0,2.4151,0.5852
1805.88,624.5,2.3429,0.605
1820.38,627.0,2.2656,0.6294
1834.91,629.5,2.1865,0.6548
1849.44,632.0,2.1002,0.6806
1864.01,634.5,2.0143,0.7078
1878.59,637.0,1.923,0.7358
1893.32,639.5,1.8281,0.7582
1908.1,642.0,1.7337,0.7621
1922.91,644.5,1.6309,0.7506
1937.63,647.0,1.5375,0.718
1952.29,649.5,1.4438,0.6495
1966.78,652.0,1.3664,0.5572
1981.21,654.5,1.295,0.4442
1995.6,657.0,1.2434,0.324
2009.93,659.5,1.2053,0.2134
2024.28,662.0,1.1771,0.1234
2038.72,664.5,1.1605,0.0686
2053.16,667.0,1.1489,0.0378
2067.65,669.5,1.1395,0.0248
2082.21,672.0,1.1309,0.0157
2096.74,674.5,1.1226,0.0083
2111.3,677.0,1.1154,0.0027
2125.83,679.5,1.1087,-0.0061
2140.48,682.0,1.0994,-0.012
2155.07,684.5,1.0911,-0.0185
2169.69,687.0,1.0834,-0.0302
2184.34,689.5,1.0777,-0.0369
2198.96,692.0,1.071,-0.0405
2213.61,694.5,1.0641,-0.0493
2228.22,697.0,1.057,-0.0544
2242.84,699.5,1.0499,-0.0583
2257.49,702.0,1.0433,-0.0645
2272.14,704.5,1.0357,-0.0643
2286.79,707.0,1.0315,-0.0645
2301.44,709.5,1.0234,-0.0661
2316.17,712.0,1.018,-0.0633
2330.91,714.5,1.0101,-0.0585
2345.64,717.0,1.0038,-0.0527
2360.4,719.5,0.9996,-0.0455
2375.16,722.0,0.9945,-0.0408
2389.92,724.5,0.9886,-0.0365
2404.68,727.0,0.9833,-0.0292
2419.41,729.5,0.9791,-0.0239
2434.19,732.0,0.9751,-0.0183
2448.96,734.5,0.9686,-0.0101
2463.79,737.0,0.9646,-0.0015
2478.54,739.5,0.9583,0.0004
2493.32,742.0,0.9551,0.008
2508.08,744.5,0.9503,0.0135
2522.81,747.0,0.9472,0.0137
2537.57,749.5,0.9438,0.0174
2552.34,752.0,0.9399,0.0166
2567.14,754.5,0.9372,0.0187
2581.97,757.0,0.9319,0.0243
2596.78,759.5,0.929,0.025
2611.59,762.0,0.9271,0.0246
2626.44,764.5,0.9237,0.0267
2641.28,767.0,0.9218,0.026
2656.13,769.5,0.9191,0.025
2670.98,772.0,0.9155,0.028
2685.86,774.5,0.9119,0.0273
2700.71,777.0,0.9093,0.0278
2715.5,779.5,0.9063,0.0272
2730.38,782.0,0.9037,0.0237
2745.22,784.5,0.9017,0.0279
2760.08,787.0,0.899,0.023
2774.93,789.5,0.8964,0.0224
2789.78,792.0,0.8938,0.0216
2804.7,794.5,0.8916,0.0183
2819.62,797.0,0.8895,0.0133
2834.51,799.5,0.8859,0.0137
2849.45,802.0,0.8837,0.0159
2864.37,804.5,0.8817,0.0151
2879.32,807.0,0.879,0.0101
2894.28,809.5,0.8751,0.011
2909.21,812.0,0.8738,0.0116
2924.17,814.5,0.8731,0.0125
2939.11,817.0,0.8702,0.0146
2954.03,819.5,0.8683,0.0166
2968.91,822.0,0.8662,0.0124
2983.78,824.5,0.8647,0.0102
2998.66,827.0,0.8608,0.0076
3013.55,829.5,0.8621,0.0088
3028.42,832.0,0.8594,0.0079
3043.37,834.5,0.8581,0.0068
3058.3,837.0,0.8548,0.0015
3073.29,839.5,0.8535,-0.0025
3088.22,842.0,0.8495,-0.0038
3103.19,844.5,0.8495,-0.0018
3118.16,847.0,0.8469,-0.0014
3133.18,849.5,0.8469,-0.0043
3148.19,852.0,0.8443,-0.0066
3163.19,854.5,0.8416,-0.0088
3178.19,857.0,0.8403,-0.0112
3193.21,859.5,0.8391,-0.0128
3208.21,862.0,0.8364,-0.0111
3223.22,864.5,0.8351,-0.0141
3238.25,867.0,0.8321,-0.0254
3253.27,869.5,0.8321,-0.0277
3268.25,872.0,0.8288,-0.0263
3283.23,874.5,0.8288,-0.0297
3298.25,877.0,0.8271,-0.0365
3313.28,879.5,0.8232,-0.0379
3328.35,882.0,0.8245,-0.0423
3343.39,884.5,0.8228,-0.0466
3358.43,887.0,0.8204,-0.0521
3373.49,889.5,0.8192,-0.0503
3388.5,892.0,0.818,-0.0564
3403.57,894.5,0.8143,-0.0594
3418.65,897.0,0.8146,-0.0605
3433.7,899.5,0.8126,-0.0608
3448.78,902.0,0.8136,-0.0607
3463.84,904.5,0.8103,-0.0636
3478.96,907.0,0.8097,-0.0687
3494.07,909.5,0.8084,-0.0703
3509.2,912.0,0.8084,-0.0719
3524.34,914.5,0.8061,-0.0717
3539.47,917.0,0.8051,-0.0731
3554.53,919.5,0.8051,-0.0775
3569.63,922.0,0.8024,-0.0758
3584.73,924.5,0.8011,-0.0778
3599.83,927.0,0.8011,-0.0793
3614.96,929.5,0.7998,-0.0831
3630.11,932.0,0.7978,-0.0744
3645.24,934.5,0.7982,-0.0744
3660.38,937.0,0.7955,-0.0737
3675.54,939.5,0.7955,-0.0786
3690.69,942.0,0.7952,-0.0732
3705.88,944.5,0.7944,-0.0757
3721.1,947.0,0.7943,-0.0763
3736.38,949.5,0.793,-0.0755
3751.59,952.0,0.793,-0.0806
3766.79,954.5,0.7917,-0.0808
3781.95,957.0,0.7904,-0.0797
3797.17,959.5,0.7884,-0.0785
3812.33,962.0,0.788,-0.0851
3827.52,964.5,0.7874,-0.0883
3842.71,967.0,0.7862,-0.0873
3857.87,969.5,0.7862,-0.0859
3873.06,972.0,0.7834,-0.0847
3888.3,974.5,0.7834,-0.0868
3903.56,977.0,0.7834,-0.0846
3918.81,979.5,0.7821,-0.0854
3934.05,982.0,0.7814,-0.0848
3949.29,984.5,0.7818,-0.0867
3964.49,987.0,0.7807,-0.0841
3979.68,989.5,0.7795,-0.0871
3994.89,992.0,0.7795,-0.0898
4010.06,994.5,0.7782,-0.0853
4025.3,997.0,0.7755,-0.0852
4040.51,999.5,0.7759,-0.0847
4055.71,1002.0,0.7745,-0.0783
4070.92,1004.5,0.7742,-0.0711
4086.12,1007.0,0.7742,-0.0671
4101.3,1009.5,0.7742,-0.0626
4116.5,1012.0,0.7729,-0.0635
4131.64,1014.5,0.7719,-0.0619
4146.87,1017.0,0.7729,-0.06
4162.12,1019.5,0.7688,-0.0602
4177.37,1022.0,0.7716,-0.0534
4192.62,1024.5,0.7702,-0.0452
4207.87,1027.0,0.7698,-0.0389
4223.13,1029.5,0.7685,-0.0328
4238.39,1032.0,0.7676,-0.0261
4253.7,1034.5,0.7672,-0.0151
4268.98,1037.0,0.7669,-0.0047
4284.26,1039.5,0.7655,-0.0018
4299.53,1042.0,0.7646,0.0022
4314.83,1044.5,0.7635,0.0055
4330.13,1047.0,0.7625,0.0139
4345.4,1049.5,0.7632,0.0182
4360.67,1052.0,0.7619,0.0165
4375.88,1054.5,0.7619,0.0259
4391.13,1057.0,0.7606,0.0237
4406.41,1059.5,0.7606,0.0207
4421.66,1062.0,0.7609,0.0251
4436.9,1064.5,0.759,0.0278
4452.22,1067.0,0.7577,0.0265
4464.49,1069.0,0.7599,0.0342