Folder: matl-db/Wood/Calibration_Data/FSRI (part 7)

File: FSRI_Wood_Parallel_Cone_25kW_hor_R1.csv
Time,Mass (g),HRRPUA (kW/m2)
0.0,86.22,1.4
8.0,86.49,8.0
16.0,86.36,9.1
24.0,86.3,8.7
32.0,86.27,2.4
40.0,86.21,-0.4
48.0,86.13,-0.9
56.0,85.97,-0.8
64.0,85.87,-0.5
72.0,85.86,-0.5
80.0,85.75,-0.7
88.0,85.2,-1.5
96.0,84.43,20.3
104.0,83.67,135.8
112.0,82.99,161.1
120.0,82.36,151.0
128.0,81.74,134.6
136.0,81.12,123.9
144.0,80.69,116.0
152.0,80.2,103.3
160.0,79.75,97.7
168.0,79.35,89.9
176.0,78.86,84.0
184.0,78.57,79.6
192.0,78.22,74.8
200.0,77.87,68.3
208.0,77.51,67.3
216.0,77.13,63.3
224.0,76.89,62.4
232.0,76.59,61.0
240.0,76.29,60.0
248.0,75.88,57.6
256.0,75.63,60.6
264.0,75.37,57.4
272.0,75.07,57.3
280.0,74.68,58.5
288.0,74.42,61.2
296.0,74.14,63.7
304.0,73.85,59.9
312.0,73.56,59.3
320.0,73.16,54.0
328.0,72.95,55.6
336.0,72.66,54.9
344.0,72.36,52.8
352.0,72.07,52.0
360.0,71.68,52.3
368.0,71.46,53.6
376.0,71.19,53.8
384.0,70.87,53.4
392.0,70.51,58.0
400.0,70.19,55.9
408.0,69.99,53.7
416.0,69.68,54.3
424.0,69.4,53.4
432.0,69.02,52.9
440.0,68.73,51.8
448.0,68.52,50.2
456.0,68.25,49.5
464.0,67.95,50.2
472.0,67.63,50.7
480.0,67.4,50.9
488.0,67.11,50.4
496.0,66.83,51.6
504.0,66.53,52.7
512.0,66.17,53.0
520.0,65.93,53.3
528.0,65.67,50.8
536.0,65.4,53.8
544.0,65.13,54.5
552.0,64.75,54.7
560.0,64.55,54.2
568.0,64.26,52.5
576.0,63.98,52.4
584.0,63.7,54.9
592.0,63.32,56.1
600.0,63.09,54.1
608.0,62.86,54.0
616.0,62.57,54.9
624.0,62.29,56.1
632.0,61.94,56.2
640.0,61.71,53.9
648.0,61.44,54.2
656.0,61.17,51.0
664.0,60.9,52.3
672.0,60.57,54.3
680.0,60.23,55.8
688.0,60.02,55.0
696.0,59.76,53.1
704.0,59.48,53.1
712.0,59.19,54.1
720.0,58.82,54.4
728.0,58.6,55.6
736.0,58.32,55.2
744.0,58.07,54.0
752.0,57.8,53.8
760.0,57.48,54.0
768.0,57.13,56.3
776.0,56.91,57.1
784.0,56.67,54.8
792.0,56.39,55.7
800.0,56.09,58.9
808.0,55.74,56.6
816.0,55.52,54.9
824.0,55.26,55.2
832.0,54.99,56.4
840.0,54.68,56.3
848.0,54.33,55.0
856.0,54.1,53.8
864.0,53.85,53.3
872.0,53.57,53.6
880.0,53.28,53.2
888.0,52.99,55.7
896.0,52.62,55.3
904.0,52.43,56.1
912.0,52.14,55.5
920.0,51.8,57.9
928.0,51.6,56.8
936.0,51.25,57.4
944.0,51.02,59.2
952.0,50.73,56.4
960.0,50.44,54.5
968.0,50.16,55.9
976.0,49.82,54.7
984.0,49.57,55.0
992.0,49.3,55.7
1000.0,49.04,57.9
1008.0,48.75,60.7
1016.0,48.43,59.0
1024.0,48.07,62.0
1032.0,47.86,64.5
1040.0,47.57,61.2
1048.0,47.28,62.1
1056.0,46.99,63.7
1064.0,46.59,64.1
1072.0,46.34,63.9
1080.0,46.09,64.6
1088.0,45.78,62.9
1096.0,45.47,64.9
1104.0,45.1,63.4
1112.0,44.8,66.1
1120.0,44.58,65.5
1128.0,44.29,66.0
1136.0,43.98,65.4
1144.0,43.62,68.8
1152.0,43.26,67.4
1160.0,43.04,67.9
1168.0,42.74,68.0
1176.0,42.42,67.9
1184.0,42.1,69.0
1192.0,41.69,69.3
1200.0,41.46,69.0
1208.0,41.16,70.0
1216.0,40.84,71.7
1224.0,40.48,73.1
1232.0,40.0,73.7
1240.0,39.83,74.4
1248.0,39.52,73.7
1256.0,39.19,77.3
1264.0,38.83,77.3
1272.0,38.4,75.9
1280.0,38.14,75.8
1288.0,37.8,76.7
1296.0,37.47,79.5
1304.0,37.04,80.3
1312.0,36.63,83.4
1320.0,36.36,82.6
1328.0,35.98,81.6
1336.0,35.58,81.8
1344.0,35.13,82.2
1352.0,34.82,83.6
1360.0,34.47,82.7
1368.0,34.09,83.2
1376.0,33.73,81.9
1384.0,33.31,81.1
1392.0,32.86,84.4
1400.0,32.56,85.3
1408.0,32.21,83.2
1416.0,31.81,84.5
1424.0,31.35,84.2
1432.0,30.92,83.6
1440.0,30.61,85.4
1448.0,30.25,84.2
1456.0,29.85,84.0
1464.0,29.45,85.8
1472.0,28.98,84.7
1480.0,28.7,87.0
1488.0,28.32,85.5
1496.0,27.95,84.1
1504.0,27.55,83.9
1512.0,27.09,85.1
1520.0,26.78,83.7
1528.0,26.43,84.1
1536.0,26.06,83.3
1544.0,25.69,80.9
1552.0,25.23,80.9
1560.0,24.97,80.7
1568.0,24.63,79.2
1576.0,24.24,81.0
1584.0,23.9,80.8
1592.0,23.48,81.3
1600.0,23.24,80.2
1608.0,22.92,81.7
1616.0,22.58,82.1
1624.0,22.16,81.3
1632.0,21.82,79.5
1640.0,21.6,77.0
1648.0,21.3,76.2
1656.0,21.0,76.0
1664.0,20.59,74.2
1672.0,20.31,72.7
1680.0,20.11,74.5
1688.0,19.83,71.1
1696.0,19.59,69.3
1704.0,19.3,66.3
1712.0,18.99,65.6
1720.0,18.83,65.0
1728.0,18.59,64.1
1736.0,18.36,60.6
1744.0,18.15,60.2
1752.0,17.84,61.5
1760.0,17.71,60.8
1768.0,17.51,59.0
1776.0,17.33,54.5
1784.0,17.11,55.1
1792.0,16.89,52.7
1800.0,16.8,49.0
1808.0,16.63,48.7
1816.0,16.48,47.2
1824.0,16.33,44.9
1832.0,16.09,43.9
1840.0,16.05,43.6
1848.0,15.9,42.2
1856.0,15.79,42.0
1864.0,15.65,41.3
1872.0,15.43,40.0
1880.0,15.4,39.8
1888.0,15.28,39.1
1896.0,15.18,36.9
1904.0,15.04,37.0
1912.0,14.85,37.8
1920.0,14.83,36.8
1928.0,14.73,36.1
1936.0,14.61,36.7
1944.0,14.5,37.0
1952.0,14.34,37.7
1960.0,14.26,38.4
1968.0,14.2,38.7
1976.0,14.09,35.9
1984.0,13.98,35.9
1992.0,13.8,36.6
2000.0,13.79,35.2
2008.0,13.69,34.5
2016.0,13.63,34.1
2024.0,13.52,33.6
2032.0,13.33,33.9
2040.0,13.32,34.3
2048.0,13.22,33.5
2056.0,13.14,33.9
2064.0,13.02,32.4
2072.0,12.86,33.1
2080.0,12.88,33.0
2088.0,12.78,32.3
2096.0,12.7,31.7
2104.0,12.58,31.0
2112.0,12.47,31.6
2120.0,12.46,32.4
2128.0,12.39,31.9
2136.0,12.29,31.4
2144.0,12.22,32.7
2152.0,12.05,32.1
2160.0,12.07,32.3
2168.0,12.0,30.9
2176.0,11.94,30.2
2184.0,11.84,29.8
2192.0,11.7,29.2
2200.0,11.69,29.2
2208.0,11.62,29.4
2216.0,11.56,30.0
2224.0,11.49,30.9
2232.0,11.37,28.9
2240.0,11.27,29.8
2248.0,11.3,28.6
2256.0,11.21,29.5
2264.0,11.13,30.2
2272.0,11.01,27.8
2280.0,10.93,28.3
2288.0,10.96,27.3
2296.0,10.87,28.8
2304.0,10.82,27.1
2312.0,10.71,25.8
2320.0,10.61,29.0
2328.0,10.63,28.4
2336.0,10.54,26.2
2344.0,10.52,26.5
2352.0,10.44,26.6
2360.0,10.26,26.4
2368.0,10.32,26.3
2376.0,10.25,26.8
2384.0,10.18,26.8
2392.0,10.08,27.5
2399.0,9.99,27.6

File: FSRI_Wood_Parallel_Cone_25kW_hor_R2.csv
Time,Mass (g),HRRPUA (kW/m2)
0.0,89.95,1.0
8.0,89.64,4.3
16.0,89.58,9.2
24.0,89.55,15.0
32.0,89.47,7.2
40.0,89.37,10.5
48.0,89.2,8.1
56.0,89.18,4.9
64.0,89.1,4.0
72.0,88.99,4.7
80.0,88.89,9.0
88.0,88.73,6.8
96.0,88.27,4.1
104.0,87.32,20.8
112.0,86.49,166.6
120.0,85.73,179.7
128.0,85.23,152.1
136.0,84.73,131.8
144.0,84.21,113.2
152.0,83.71,102.7
160.0,83.33,92.1
168.0,82.93,89.7
176.0,82.58,81.5
184.0,82.2,72.2
192.0,81.81,65.3
200.0,81.57,63.9
208.0,81.27,61.5
216.0,80.95,60.1
224.0,80.64,58.2
232.0,80.29,56.6
240.0,80.04,54.8
248.0,79.74,55.6
256.0,79.43,56.3
264.0,79.03,57.5
272.0,78.79,57.1
280.0,78.48,58.4
288.0,78.19,60.4
296.0,77.86,60.3
304.0,77.48,59.7
312.0,77.11,60.5
320.0,76.88,57.6
328.0,76.55,59.2
336.0,76.23,59.9
344.0,75.93,56.6
352.0,75.51,56.7
360.0,75.31,55.4
368.0,74.99,54.5
376.0,74.68,52.7
384.0,74.3,53.0
392.0,73.99,54.2
400.0,73.78,54.4
408.0,73.49,53.7
416.0,73.19,52.9
424.0,72.89,51.2
432.0,72.6,50.4
440.0,72.22,50.6
448.0,72.01,50.3
456.0,71.73,49.9
464.0,71.43,50.7
472.0,71.04,48.8
480.0,70.84,49.3
488.0,70.55,51.4
496.0,70.26,52.7
504.0,69.95,52.6
512.0,69.59,50.1
520.0,69.38,50.7
528.0,69.1,50.5
536.0,68.81,51.0
544.0,68.5,50.9
552.0,68.16,49.4
560.0,67.95,48.5
568.0,67.65,51.6
576.0,67.36,52.3
584.0,67.01,52.8
592.0,66.82,52.5
600.0,66.5,50.2
608.0,66.2,50.1
616.0,65.87,49.1
624.0,65.63,50.1
632.0,65.37,51.2
640.0,65.09,51.7
648.0,64.8,51.9
656.0,64.44,50.1
664.0,64.24,50.9
672.0,63.96,50.7
680.0,63.72,49.1
688.0,63.41,49.5
696.0,63.05,48.1
704.0,62.84,48.9
712.0,62.56,47.4
720.0,62.3,48.1
728.0,61.94,48.1
736.0,61.72,47.8
744.0,61.46,46.5
752.0,61.18,48.0
760.0,60.86,46.6
768.0,60.59,47.6
776.0,60.41,46.7
784.0,60.13,44.9
792.0,59.85,45.7
800.0,59.51,46.4
808.0,59.3,48.0
816.0,59.04,46.9
824.0,58.78,47.8
832.0,58.5,46.8
840.0,58.15,48.1
848.0,57.95,49.2
856.0,57.68,49.6
864.0,57.42,50.6
872.0,57.07,49.5
880.0,56.88,49.8
888.0,56.6,48.9
896.0,56.33,53.5
904.0,55.97,54.4
912.0,55.74,54.4
920.0,55.47,57.4
928.0,55.23,57.8
936.0,54.84,57.9
944.0,54.57,56.9
952.0,54.34,57.7
960.0,54.03,59.1
968.0,53.77,57.4
976.0,53.39,57.7
984.0,53.13,57.3
992.0,52.88,56.6
1000.0,52.62,57.2
1008.0,52.35,58.1
1016.0,51.98,58.4
1024.0,51.75,59.1
1032.0,51.47,57.6
1040.0,51.2,58.3
1048.0,50.89,57.8
1056.0,50.57,59.5
1064.0,50.37,58.7
1072.0,50.08,59.0
1080.0,49.79,61.0
1088.0,49.42,61.6
1096.0,49.2,59.5
1104.0,48.94,59.6
1112.0,48.64,60.9
1120.0,48.36,60.5
1128.0,48.0,62.7
1136.0,47.78,61.2
1144.0,47.49,63.0
1152.0,47.18,61.0
1160.0,46.85,62.8
1168.0,46.61,64.8
1176.0,46.33,62.7
1184.0,46.01,64.0
1192.0,45.73,65.8
1200.0,45.34,67.7
1208.0,45.11,66.8
1216.0,44.79,67.3
1224.0,44.5,66.5
1232.0,44.11,66.4
1240.0,43.83,66.7
1248.0,43.56,67.4
1256.0,43.26,67.0
1264.0,42.91,69.3
1272.0,42.5,72.3
1280.0,42.29,73.8
1288.0,41.94,73.1
1296.0,41.63,74.1
1304.0,41.22,71.2
1312.0,40.88,74.2
1320.0,40.59,73.5
1328.0,40.27,75.5
1336.0,39.89,75.2
1344.0,39.48,78.4
1352.0,39.25,79.3
1360.0,38.88,79.9
1368.0,38.53,78.6
1376.0,38.17,77.2
1384.0,37.77,75.4
1392.0,37.48,79.3
1400.0,37.1,81.0
1408.0,36.76,81.5
1416.0,36.34,79.8
1424.0,36.07,78.5
1432.0,35.68,81.8
1440.0,35.29,82.7
1448.0,34.84,82.2
1456.0,34.56,85.4
1464.0,34.21,85.0
1472.0,33.82,85.9
1480.0,33.44,87.6
1488.0,33.0,83.6
1496.0,32.71,83.3
1504.0,32.32,84.8
1512.0,31.95,81.0
1520.0,31.57,83.5
1528.0,31.14,82.6
1536.0,30.85,83.2
1544.0,30.5,82.0
1552.0,30.1,84.6
1560.0,29.66,83.9
1568.0,29.35,83.8
1576.0,28.98,84.0
1584.0,28.65,82.9
1592.0,28.24,83.4
1600.0,27.85,81.1
1608.0,27.56,81.4
1616.0,27.22,81.5
1624.0,26.88,83.8
1632.0,26.41,83.1
1640.0,26.15,80.4
1648.0,25.81,79.2
1656.0,25.48,82.3
1664.0,25.13,80.1
1672.0,24.72,78.2
1680.0,24.48,77.4
1688.0,24.18,75.0
1696.0,23.85,77.7
1704.0,23.49,76.4
1712.0,23.15,73.7
1720.0,22.96,72.1
1728.0,22.64,71.2
1736.0,22.3,71.2
1744.0,21.93,71.4
1752.0,21.75,69.6
1760.0,21.42,71.2
1768.0,21.19,71.1
1776.0,20.87,70.4
1784.0,20.57,67.5
1792.0,20.4,67.3
1800.0,20.14,64.9
1808.0,19.9,64.3
1816.0,19.56,66.1
1824.0,19.43,63.2
1832.0,19.21,59.6
1840.0,18.97,57.4
1848.0,18.69,55.0
1856.0,18.56,53.4
1864.0,18.37,50.5
1872.0,18.19,49.5
1880.0,17.96,49.9
1888.0,17.73,47.0
1896.0,17.63,44.7
1904.0,17.47,42.3
1912.0,17.3,39.0
1920.0,17.04,36.6
1928.0,17.0,34.7
1936.0,16.85,32.8
1944.0,16.69,35.6
1952.0,16.54,36.2
1960.0,16.36,34.8
1968.0,16.28,33.9
1976.0,16.13,32.7
1984.0,16.05,31.7
1992.0,15.81,33.6
2000.0,15.76,33.8
2008.0,15.63,32.0
2016.0,15.53,30.8
2024.0,15.42,30.1
2032.0,15.21,31.3
2040.0,15.18,30.7
2048.0,15.02,31.2
2056.0,14.98,30.3
2064.0,14.78,30.5
2072.0,14.74,31.7
2080.0,14.65,30.7
2088.0,14.56,31.9
2096.0,14.47,34.0
2104.0,14.29,36.8
2112.0,14.26,32.0
2120.0,14.21,26.9
2128.0,14.09,26.8
2136.0,13.94,25.7
2144.0,13.9,26.2
2152.0,13.86,28.1
2160.0,13.76,29.0
2168.0,13.65,26.3
2176.0,13.52,25.0
2184.0,13.52,25.8
2192.0,13.45,25.0
2200.0,13.38,23.8
2208.0,13.2,23.2
2216.0,13.22,26.0
2224.0,13.11,25.1
2232.0,13.06,25.2
2240.0,12.98,22.0
2248.0,12.84,22.3
2251.0,12.8,22.7

File: FSRI_Wood_Parallel_Cone_25kW_hor_R3.csv
Time,Mass (g),HRRPUA (kW/m2)
0.0,104.35,4.0
8.0,103.96,4.5
16.0,103.84,11.1
24.0,103.82,13.9
32.0,103.75,15.4
40.0,103.68,23.3
48.0,103.51,21.5
56.0,103.35,7.8
64.0,102.7,8.3
72.0,101.96,89.6
80.0,101.2,164.3
88.0,100.41,167.4
96.0,99.76,161.9
104.0,99.19,148.1
112.0,98.55,135.5
120.0,98.0,129.5
128.0,97.39,120.3
136.0,96.84,115.1
144.0,96.4,111.1
152.0,95.96,102.8
160.0,95.48,99.6
168.0,95.03,99.8
176.0,94.54,93.7
184.0,94.22,88.7
192.0,93.8,85.5
200.0,93.39,82.6
208.0,93.01,80.8
216.0,92.54,77.6
224.0,92.23,76.0
232.0,91.89,76.5
240.0,91.53,74.2
248.0,91.18,75.0
256.0,90.7,71.5
264.0,90.46,68.8
272.0,90.12,68.9
280.0,89.77,68.0
288.0,89.44,66.7
296.0,88.95,64.7
304.0,88.76,63.5
312.0,88.44,64.0
320.0,88.07,62.5
328.0,87.74,61.3
336.0,87.39,62.6
344.0,87.01,60.8
352.0,86.77,59.7
360.0,86.46,61.0
368.0,86.12,61.5
376.0,85.81,62.7
384.0,85.39,62.3
392.0,85.16,60.0
400.0,84.83,59.1
408.0,84.52,60.4
416.0,84.18,60.4
424.0,83.8,59.0
432.0,83.58,59.7
440.0,83.23,58.8
448.0,82.92,56.9
456.0,82.61,58.1
464.0,82.18,55.9
472.0,81.97,56.7
480.0,81.65,57.3
488.0,81.33,56.4
496.0,81.02,55.8
504.0,80.6,56.1
512.0,80.34,55.0
520.0,80.06,55.3
528.0,79.76,56.0
536.0,79.41,56.5
544.0,79.06,63.4
552.0,78.68,65.2
560.0,78.37,63.4
568.0,78.03,62.2
576.0,77.72,60.5
584.0,77.28,60.8
592.0,77.01,59.6
600.0,76.73,59.2
608.0,76.4,59.6
616.0,76.06,60.2
624.0,75.66,60.5
632.0,75.42,62.0
640.0,75.06,62.2
648.0,74.75,61.4
656.0,74.39,61.0
664.0,74.02,61.9
672.0,73.77,62.1
680.0,73.46,61.3
688.0,73.13,62.9
696.0,72.81,61.4
704.0,72.4,62.0
712.0,72.16,62.3
720.0,71.83,63.2
728.0,71.54,63.2
736.0,71.21,61.9
744.0,70.81,61.2
752.0,70.52,60.9
760.0,70.27,59.7
768.0,69.94,61.4
776.0,69.65,62.5
784.0,69.26,61.5
792.0,69.02,60.5
800.0,68.72,60.9
808.0,68.38,60.3
816.0,68.08,62.0
824.0,67.69,60.4
832.0,67.46,61.1
840.0,67.15,62.3
848.0,66.83,62.8
856.0,66.55,62.4
864.0,66.13,62.9
872.0,65.92,62.6
880.0,65.61,61.2
888.0,65.32,63.5
896.0,65.01,61.8
904.0,64.6,62.5
912.0,64.36,64.0
920.0,64.09,65.0
928.0,63.78,64.2
936.0,63.47,66.9
944.0,63.14,66.6
952.0,62.86,63.8
960.0,62.54,66.1
968.0,62.23,65.4
976.0,61.92,63.4
984.0,61.54,64.7
992.0,61.28,66.6
1000.0,61.01,66.4
1008.0,60.68,66.8
1016.0,60.35,68.3
1024.0,59.99,69.2
1032.0,59.73,69.1
1040.0,59.43,70.0
1048.0,59.12,71.8
1056.0,58.79,71.9
1064.0,58.38,72.1
1072.0,58.17,73.0
1080.0,57.88,72.0
1088.0,57.54,71.4
1096.0,57.23,73.5
1104.0,56.8,71.0
1112.0,56.55,71.1
1120.0,56.24,72.0
1128.0,55.9,72.7
1136.0,55.57,72.8
1144.0,55.12,73.6
1152.0,54.83,77.2
1160.0,54.55,78.1
1168.0,54.2,79.7
1176.0,53.84,78.6
1184.0,53.42,76.7
1192.0,53.18,74.1
1200.0,52.83,77.2
1208.0,52.47,80.2
1216.0,52.09,80.1
1224.0,51.68,77.0
1232.0,51.4,80.4
1240.0,51.04,77.4
1248.0,50.67,80.0
1256.0,50.33,79.5
1264.0,49.9,78.7
1272.0,49.57,81.8
1280.0,49.22,81.7
1288.0,48.86,81.6
1296.0,48.48,84.2
1304.0,47.97,84.0
1312.0,47.67,84.8
1320.0,47.29,84.3
1328.0,46.92,84.4
1336.0,46.51,86.6
1344.0,46.05,85.9
1352.0,45.72,86.8
1360.0,45.31,88.9
1368.0,44.93,89.8
1376.0,44.51,90.4
1384.0,44.01,88.4
1392.0,43.7,89.0
1400.0,43.26,91.4
1408.0,42.84,96.0
1416.0,42.44,93.4
1424.0,41.96,92.2
1432.0,41.6,92.4
1440.0,41.17,95.5
1448.0,40.75,95.7
1456.0,40.33,94.2
1464.0,39.85,96.2
1472.0,39.46,94.6
1480.0,39.02,96.3
1488.0,38.58,94.6
1496.0,38.13,93.4
1504.0,37.48,94.6
1512.0,37.24,93.7
1520.0,36.87,96.1
1528.0,36.4,97.2
1536.0,35.96,98.3
1544.0,35.42,104.2
1552.0,35.09,102.0
1560.0,34.65,99.5
1568.0,34.25,99.6
1576.0,33.73,99.2
1584.0,33.19,102.7
1592.0,32.85,103.6
1600.0,32.39,100.8
1608.0,31.93,101.5
1616.0,31.46,105.8
1624.0,30.87,105.7
1632.0,30.52,105.8
1640.0,30.08,108.2
1648.0,29.62,107.8
1656.0,29.14,101.2
1664.0,28.6,102.8
1672.0,28.25,103.9
1680.0,27.8,102.9
1688.0,27.38,103.0
1696.0,26.93,102.0
1704.0,26.42,100.8
1712.0,26.1,98.7
1720.0,25.66,98.8
1728.0,25.23,100.8
1736.0,24.87,107.2
1744.0,24.28,104.5
1752.0,23.95,103.3
1760.0,23.54,100.9
1768.0,23.17,97.4
1776.0,22.76,93.3
1784.0,22.36,92.0
1792.0,21.93,93.1
1800.0,21.67,88.6
1808.0,21.35,85.2
1816.0,21.05,82.1
1824.0,20.66,78.6
1832.0,20.38,76.5
1840.0,20.15,71.2
1848.0,19.91,69.0
1856.0,19.67,65.4
1864.0,19.29,66.7
1872.0,19.19,63.4
1880.0,18.94,62.7
1888.0,18.74,58.8
1896.0,18.54,55.4
1904.0,18.24,55.2
1912.0,18.18,51.3
1920.0,18.02,46.8
1928.0,17.88,44.1
1936.0,17.73,41.0
1944.0,17.51,41.3
1952.0,17.38,36.5
1960.0,17.36,35.6
1968.0,17.24,32.8
1976.0,17.14,32.6
1984.0,16.95,32.0
1992.0,16.94,33.4
2000.0,16.87,33.8
2008.0,16.78,33.2
2016.0,16.7,30.7
2024.0,16.55,27.0
2032.0,16.49,26.2
2040.0,16.47,27.7
2048.0,16.37,28.0
2056.0,16.31,28.1
2064.0,16.14,27.7
2072.0,16.15,25.8
2080.0,16.11,23.8
2088.0,16.04,23.1
2096.0,15.96,22.9
2104.0,15.81,22.6
2112.0,15.83,22.2
2120.0,15.76,23.0
2128.0,15.71,23.4
2136.0,15.63,22.4
2144.0,15.47,22.7
2152.0,15.51,21.9
2160.0,15.45,21.5
2168.0,15.39,20.7
2170.0,15.39,20.6

File: FSRI_Wood_Parallel_Cone_50kW_hor_R1.csv
Time,Mass (g),HRRPUA (kW/m2)
0.0,96.91,1.3
6.0,95.52,3.1
12.0,94.76,7.3
18.0,93.96,5.8
24.0,93.32,67.7
30.0,92.7,170.8
36.0,92.0,202.9
42.0,91.35,202.6
48.0,90.7,191.9
54.0,90.03,179.8
60.0,89.46,168.0
66.0,88.89,167.4
72.0,88.47,158.3
78.0,87.97,147.8
84.0,87.5,141.2
90.0,87.01,132.6
96.0,86.49,129.1
102.0,86.0,123.7
108.0,85.59,125.0
114.0,85.19,121.5
120.0,84.76,121.0
126.0,84.35,118.5
132.0,83.87,117.6
138.0,83.43,115.2
144.0,83.02,114.1
150.0,82.69,112.8
156.0,82.26,108.9
162.0,81.86,109.3
168.0,81.42,106.8
174.0,81.03,105.7
180.0,80.64,101.9
186.0,80.37,101.9
192.0,79.98,98.5
198.0,79.6,99.6
204.0,79.25,99.2
210.0,78.78,99.2
216.0,78.41,97.0
222.0,78.08,99.8
228.0,77.79,97.4
234.0,77.43,97.3
240.0,77.06,97.3
246.0,76.64,97.0
252.0,76.24,98.5
258.0,75.9,95.6
264.0,75.61,95.2
270.0,75.29,94.6
276.0,74.91,95.4
282.0,74.58,95.0
288.0,74.23,94.1
294.0,73.83,93.2
300.0,73.46,90.9
306.0,73.18,89.6
312.0,72.87,92.4
318.0,72.53,90.0
324.0,72.19,89.4
330.0,71.78,89.8
336.0,71.43,88.7
342.0,71.1,88.8
348.0,70.84,88.4
354.0,70.52,87.4
360.0,70.17,86.8
366.0,69.81,85.1
372.0,69.42,85.1
378.0,69.15,82.2
384.0,68.89,86.4
390.0,68.54,86.4
396.0,68.25,86.0
402.0,67.9,86.4
408.0,67.46,84.3
414.0,67.15,85.7
420.0,66.91,84.7
426.0,66.62,84.8
432.0,66.29,86.1
438.0,65.96,85.1
444.0,65.63,84.9
450.0,65.21,85.0
456.0,64.9,84.4
462.0,64.65,83.1
468.0,64.36,82.7
474.0,64.06,84.1
480.0,63.73,84.4
486.0,63.42,82.8
492.0,63.03,82.9
498.0,62.67,83.1
504.0,62.35,84.8
510.0,62.12,83.4
516.0,61.79,84.8
522.0,61.49,85.5
528.0,61.12,85.9
534.0,60.73,87.0
540.0,60.41,84.4
546.0,60.14,84.2
552.0,59.87,85.3
558.0,59.55,83.0
564.0,59.24,82.0
570.0,58.81,81.5
576.0,58.49,79.7
582.0,58.18,80.2
588.0,57.94,81.8
594.0,57.62,82.8
600.0,57.31,84.1
606.0,56.95,84.3
612.0,56.57,83.8
618.0,56.26,82.4
624.0,55.95,82.6
630.0,55.71,82.3
636.0,55.4,83.6
642.0,55.09,83.8
648.0,54.79,84.7
654.0,54.44,84.2
660.0,54.06,83.4
666.0,53.73,85.3
672.0,53.45,83.9
678.0,53.16,83.1
684.0,52.85,84.7
690.0,52.53,85.6
696.0,52.13,87.6
702.0,51.81,87.8
708.0,51.5,86.2
714.0,51.25,86.0
720.0,50.95,87.3
726.0,50.63,86.5
732.0,50.29,86.8
738.0,49.93,88.0
744.0,49.55,88.1
750.0,49.29,88.0
756.0,49.02,86.9
762.0,48.73,87.4
768.0,48.42,87.9
774.0,48.12,89.0
780.0,47.7,85.7
786.0,47.38,86.1
792.0,47.07,85.9
798.0,46.81,86.5
804.0,46.52,88.5
810.0,46.19,86.6
816.0,45.83,88.9
822.0,45.45,88.2
828.0,45.14,89.6
834.0,44.9,88.6
840.0,44.6,89.6
846.0,44.27,90.2
852.0,43.95,89.9
858.0,43.54,88.8
864.0,43.22,89.8
870.0,42.94,89.9
876.0,42.68,90.7
882.0,42.37,91.3
888.0,42.03,90.2
894.0,41.73,91.6
900.0,41.3,93.2
906.0,40.97,95.8
912.0,40.75,93.6
918.0,40.4,94.0
924.0,40.08,94.5
930.0,39.75,93.6
936.0,39.39,92.6
942.0,39.0,91.8
948.0,38.67,94.2
954.0,38.42,95.8
960.0,38.12,96.7
966.0,37.73,94.6
972.0,37.43,96.5
978.0,37.07,99.4
984.0,36.64,98.4
990.0,36.3,98.4
996.0,36.03,97.0
1002.0,35.72,98.9
1008.0,35.36,98.7
1014.0,35.04,100.2
1020.0,34.58,102.7
1026.0,34.26,101.3
1032.0,33.89,102.8
1038.0,33.55,101.3
1044.0,33.23,101.2
1050.0,32.9,104.3
1056.0,32.55,107.2
1062.0,32.08,106.8
1068.0,31.74,107.2
1074.0,31.38,108.1
1080.0,31.09,107.4
1086.0,30.75,108.1
1092.0,30.38,107.5
1098.0,29.96,106.5
1104.0,29.53,106.9
1110.0,29.17,109.0
1116.0,28.86,108.5
1122.0,28.49,111.6
1128.0,28.08,111.9
1134.0,27.68,109.6
1140.0,27.27,111.5
1146.0,26.88,114.8
1152.0,26.48,112.7
1158.0,26.21,116.1
1164.0,25.83,113.7
1170.0,25.44,110.9
1176.0,25.01,113.2
1182.0,24.55,112.6
1188.0,24.21,113.6
1194.0,23.85,112.7
1200.0,23.5,114.1
1206.0,23.11,112.1
1212.0,22.74,117.4
1218.0,22.31,113.5
1224.0,21.93,114.2
1230.0,21.56,113.3
1236.0,21.24,111.0
1242.0,20.87,110.1
1248.0,20.5,110.5
1254.0,20.12,111.6
1260.0,19.7,111.5
1266.0,19.35,110.2
1272.0,19.06,108.8
1278.0,18.72,109.2
1284.0,18.42,107.9
1290.0,18.04,108.0
1296.0,17.67,108.7
1302.0,17.33,103.1
1308.0,17.09,102.0
1314.0,16.85,101.9
1320.0,16.53,99.4
1326.0,16.26,98.7
1332.0,15.91,94.5
1338.0,15.64,93.2
1344.0,15.39,91.0
1350.0,15.27,87.0
1356.0,15.06,85.0
1362.0,14.82,81.9
1368.0,14.65,79.4
1374.0,14.33,75.8
1380.0,14.17,72.7
1386.0,14.0,68.5
1392.0,13.9,66.5
1398.0,13.81,62.6
1404.0,13.69,59.9
1410.0,13.6,56.2
1416.0,13.4,54.3
1422.0,13.26,51.4
1428.0,13.23,49.1
1434.0,13.19,47.9
1440.0,13.13,45.7
1446.0,13.03,43.9
1452.0,12.84,40.5
1458.0,12.74,40.2
1464.0,12.66,37.6
1470.0,12.73,37.5
1476.0,12.62,38.2
1482.0,12.55,37.7
1488.0,12.41,37.7
1494.0,12.34,37.5
1500.0,12.34,35.9
1506.0,12.31,35.6
1512.0,12.24,36.6
1518.0,12.17,35.9
1524.0,12.03,37.5
1530.0,11.94,37.3
1536.0,11.89,38.6
1542.0,11.91,39.2
1548.0,11.83,37.5
1554.0,11.76,38.7
1560.0,11.64,37.6
1566.0,11.56,37.3
1572.0,11.49,36.7
1578.0,11.53,36.2
1580.0,11.51,35.8

File: FSRI_Wood_Parallel_Cone_50kW_hor_R2.csv
Time,Mass (g),HRRPUA (kW/m2)
0.0,96.6,2.2
6.0,96.61,5.7
12.0,96.43,12.1
18.0,95.79,12.6
24.0,94.91,26.4
30.0,94.14,144.1
36.0,93.48,197.2
42.0,92.79,210.6
48.0,92.12,201.9
54.0,91.41,201.0
60.0,90.71,193.8
66.0,90.1,186.8
72.0,89.56,176.7
78.0,89.0,169.6
84.0,88.43,159.0
90.0,87.89,151.9
96.0,87.32,149.0
102.0,86.83,142.7
108.0,86.4,137.1
114.0,85.93,133.0
120.0,85.49,128.5
126.0,84.99,121.3
132.0,84.52,122.5
138.0,84.07,121.1
144.0,83.73,116.9
150.0,83.32,112.4
156.0,82.87,111.0
162.0,82.46,109.9
168.0,81.96,109.5
174.0,81.54,107.5
180.0,81.24,107.5
186.0,80.81,104.3
192.0,80.43,104.0
198.0,79.95,105.2
204.0,79.54,105.0
210.0,79.16,103.1
216.0,78.85,101.9
222.0,78.44,102.3
228.0,78.09,102.2
234.0,77.61,101.7
240.0,77.25,102.4
246.0,76.84,102.6
252.0,76.54,103.2
258.0,76.16,102.7
264.0,75.79,100.2
270.0,75.32,97.4
276.0,74.93,96.8
282.0,74.65,96.1
288.0,74.27,96.8
294.0,73.9,98.0
300.0,73.53,100.1
306.0,73.03,100.4
312.0,72.68,100.1
318.0,72.46,100.0
324.0,72.07,99.0
330.0,71.71,99.0
336.0,71.31,97.9
342.0,70.88,97.6
348.0,70.5,95.9
354.0,70.19,95.8
360.0,69.82,94.6
366.0,69.47,99.1
372.0,69.05,99.5
378.0,68.64,99.0
384.0,68.29,98.8
390.0,68.02,96.6
396.0,67.67,95.6
402.0,67.3,97.3
408.0,66.91,97.0
414.0,66.49,95.3
420.0,66.12,93.4
426.0,65.85,92.3
432.0,65.54,91.6
438.0,65.19,92.9
444.0,64.82,93.1
450.0,64.39,95.1
456.0,64.03,94.7
462.0,63.8,93.9
468.0,63.46,92.4
474.0,63.11,93.0
480.0,62.67,91.4
486.0,62.31,90.5
492.0,61.97,89.6
498.0,61.73,90.2
504.0,61.39,88.5
510.0,61.07,89.1
516.0,60.62,89.3
522.0,60.28,89.3
528.0,59.96,88.9
534.0,59.68,91.6
540.0,59.36,89.3
546.0,59.05,87.0
552.0,58.58,87.7
558.0,58.27,87.8
564.0,57.92,89.2
570.0,57.66,90.2
576.0,57.33,92.6
582.0,56.99,90.1
588.0,56.69,90.0
594.0,56.3,90.8
600.0,55.96,89.8
606.0,55.72,91.2
612.0,55.4,94.2
618.0,55.03,95.5
624.0,54.64,94.7
630.0,54.27,91.5
636.0,53.91,91.6
642.0,53.65,89.4
648.0,53.33,91.1
654.0,52.99,90.7
660.0,52.63,94.3
666.0,52.22,94.4
672.0,51.89,95.1
678.0,51.63,93.9
684.0,51.31,93.8
690.0,50.99,95.6
696.0,50.57,94.2
702.0,50.2,93.8
708.0,49.84,91.2
714.0,49.53,91.6
720.0,49.27,93.6
726.0,48.91,93.2
732.0,48.58,93.2
738.0,48.19,92.6
744.0,47.81,90.9
750.0,47.51,93.4
756.0,47.23,92.2
762.0,46.92,91.8
768.0,46.58,93.3
774.0,46.18,93.6
780.0,45.82,93.3
786.0,45.51,94.6
792.0,45.2,94.4
798.0,44.93,93.8
804.0,44.59,94.9
810.0,44.22,95.3
816.0,43.83,93.3
822.0,43.47,93.3
828.0,43.24,96.3
834.0,42.91,96.5
840.0,42.58,97.5
846.0,42.23,98.2
852.0,41.85,97.7
858.0,41.54,98.4
864.0,41.28,99.3
870.0,40.91,100.7
876.0,40.56,100.7
882.0,40.25,97.2
888.0,39.86,98.9
894.0,39.48,99.8
900.0,39.19,101.2
906.0,38.89,101.4
912.0,38.55,103.0
918.0,38.2,100.2
924.0,37.8,100.4
930.0,37.46,100.8
936.0,37.13,99.2
942.0,36.83,98.0
948.0,36.54,100.2
954.0,36.19,101.0
960.0,35.79,102.3
966.0,35.44,100.5
972.0,35.11,100.0
978.0,34.81,102.5
984.0,34.46,102.1
990.0,34.13,102.0
996.0,33.75,103.4
1002.0,33.31,103.7
1008.0,32.95,101.4
1014.0,32.66,103.8
1020.0,32.32,102.4
1026.0,31.97,105.0
1032.0,31.64,105.0
1038.0,31.19,103.7
1044.0,30.86,102.7
1050.0,30.53,105.0
1056.0,30.22,105.0
1062.0,29.85,108.7
1068.0,29.52,107.0
1074.0,29.05,107.5
1080.0,28.69,105.4
1086.0,28.42,106.3
1092.0,28.06,107.6
1098.0,27.69,106.7
1104.0,27.33,106.7
1110.0,26.94,102.7
1116.0,26.55,104.4
1122.0,26.26,104.8
1128.0,25.96,105.9
1134.0,25.62,102.3
1140.0,25.3,102.8
1146.0,24.89,103.2
1152.0,24.43,104.2
1158.0,24.12,102.6
1164.0,23.84,103.1
1170.0,23.57,103.8
1176.0,23.25,101.9
1182.0,22.96,97.8
1188.0,22.56,94.9
1194.0,22.25,97.1
1200.0,21.97,96.5
1206.0,21.75,97.6
1212.0,21.45,93.7
1218.0,21.15,94.8
1224.0,20.78,94.4
1230.0,20.44,94.6
1236.0,20.18,90.3
1242.0,20.04,88.3
1248.0,19.82,89.4
1254.0,19.55,86.0
1260.0,19.24,84.3
1266.0,18.91,82.1
1272.0,18.69,81.9
1278.0,18.57,80.3
1284.0,18.37,79.2
1290.0,18.17,77.1
1296.0,17.95,74.4
1302.0,17.66,74.0
1308.0,17.48,70.4
1314.0,17.44,69.8
1320.0,17.27,64.6
1326.0,17.1,63.5
1332.0,16.93,63.1
1338.0,16.64,60.6
1344.0,16.52,58.6
1350.0,16.52,57.0
1356.0,16.41,54.6
1362.0,16.32,53.1
1368.0,16.08,51.5
1374.0,15.97,49.8
1380.0,15.87,47.8
1386.0,15.93,44.3
1392.0,15.87,41.7
1398.0,15.77,40.9
1404.0,15.69,40.2
1410.0,15.46,39.4
1416.0,15.4,38.3
1422.0,15.47,36.8
1428.0,15.41,37.9
1434.0,15.34,38.3
1440.0,15.25,36.4
1446.0,15.05,36.2
1452.0,14.98,34.8
1458.0,15.05,35.1
1464.0,15.0,34.9
1470.0,14.94,34.3
1476.0,14.78,34.9
1482.0,14.62,34.4
1488.0,14.55,34.8
1494.0,14.64,34.7
1500.0,14.57,33.7
1506.0,14.54,34.2
1512.0,14.4,33.0
1518.0,14.25,33.2
1524.0,14.31,33.7