Folder: matl-db/Wood/Calibration_Data/FSRI

Note: Wood/Calibration_Data/FSRI/README.md
# UL Fire Safety Research Institute (FSRI)

### Experimental Conditions: TGA/DSC
A NETZSCH STA 449 F3 Jupiter was used to simultaneously conduct Thermogravimetric Analysis (TGA) and Differential Scanning Calorimetry (DSC) experiments.

* Heating Rate: 10 K/min
* Temperature program
  - Initial Temperature: 323 K
  - Initial Isotherm: 600 s (hold at 323 K for 600 s)  
  - Maximum Temperature: 1073 K
  - Final Isotherm: 600 s (hold at 1098 K for 600 s)  
* Sample mass: 4.0 mg +/- 0.1 mg
* Sample geometry: Powdered
* Calibration type: Before each experiment, a baseline test was performed using an empty crucible. Temperature/Heat flow sensitivity calibration were performed every 200 temperature cycles using a set of 6 reference materials with melting temperature between 312-1081 K
* Crucible
  - Type: Pt-Rh
  - Volume: 85 uL
  - Diameter: 6.8 mm
  - Mass: See Below (Reference crucible: 256.93 mg)
  - Lid: True
  - Note: Pt-Rh crucibles (outer diameter 6.8mm / volume 85 uL) with a lid (a small hole in the lid allowed for gaseous decomposition products to escape).
* Carrier Gas
  - Type: Nitrogen
  - Flow rate: 70 ml/min (50 mL/min purge, 20 mL/min protective)
  - Note: Ultra High Purity (UHP) Nitrogen
* Instrument
  - Type: NETZSCH STA 449 F3 Jupiter
  - Furnace Type: Platinum
  - Notes: None

| Test Name | O2 volume % |  Initial Sample Mass (mg)  | Cruicble Mass (mg) |
| --------- | :---------: | :------------------------: | :----------------: |
|FSRI\_STA\_N2\_3K\_R1  | 0 | 4.02 | 252.00 |
|FSRI\_STA\_N2\_10K\_R1 | 0 | 3.97 | 253.88 |
|FSRI\_STA\_N2\_10K\_R2 | 0 | 3.99 | 256.93 | 
|FSRI\_STA\_N2\_10K\_R3 | 0 | 3.94 | 255.14 | 
|FSRI\_STA\_N2\_30K\_R1 | 0 | 4.05 | 263.15 | 
|FSRI\_STA\_N2\_30K\_R2 | 0 | 4.05 | 256.71 | 
|FSRI\_STA\_N2\_30K\_R3 | 0 | 3.98 | 252.42 | 

### Experimental Conditions, Gasification (CAPA)
*Reference: More information is available at: 
  - [J. Swann, et al., Fire Safety Journal, 2017, https://doi.org/10.1016/j.firesaf.2017.03.038]
  - [Grayson Bellamy Masters Thesis, DEVELOPMENT AND IMPROVEMENTS OF THE CONTROLLED ATMOSPHERE PYROLYSIS APPARATUS, University of Maryland, 2022, https://doi.org/10.13016/gzi8-ivaz]
* Sample Surface Area: 0.00385 m2 (nominal)
* Sample Diameter: 0.07 m (nominal)
* Sample holder dimensions:
    - Circular pan: 80mm x 20mm
* Sample adhered to 0.0254 mm thick copper foil with high temperature zirconia adhesive (Cotronics Resbond 904)
* Bottom face of foil painted with Rust-Oleam High Heat black paint - emissivity ~ 0.92 in temperature range of interest [See: Bellamy, et al., Fire Safety Journal, 2023, https://doi.org/10.1016/j.firesaf.2023.103775]
* Infrared camera (FLIR E95) focused on exposed surface of painted copper foil
* Edge Insulation: 5mm thick insulation in ring around edge of sample and stacked to the bottom of the sample holder such that the surface of the sample is flush with the surface of the sample holder (Kaowool PM Board. Density = 256 kg/m3. Thermal Conductivity 0.0576, 0.0850, 0.125

File: FSRI_CAPA_N2_40kW_R1.csv
Time [s],Mass [g],Back Surface Temperature [K],Top Surface Temperature [K]
0,12.377,293.104,416.511
4,12.372,293.198,541.077
8,12.2997,293.124,608.889
12,12.2785,293.157,639.497
16,12.246,293.221,
20,12.1757,293.521,
24,12.0802,294.109,
28,11.9837,295.163,
32,11.9461,296.638,
36,11.8427,298.64,
40,11.7725,301.054,
44,11.6645,303.846,
48,11.5579,306.93,
52,11.4844,310.191,
56,11.3846,313.706,
60,11.308,317.257,
64,11.2807,320.848,
68,11.1648,324.352,
72,11.075,327.962,
76,11.0182,331.521,
80,10.9628,334.994,
84,10.877,338.32,
88,10.7624,341.576,
92,10.6813,344.591,
96,10.6279,347.502,
100,10.592,350.279,
104,10.4535,352.958,
108,10.3915,355.498,
112,10.3398,357.667,
116,10.2225,359.478,
120,10.1978,360.831,
124,10.1085,361.82,
128,10.0573,362.311,
132,10.0182,362.017,
136,9.95709,361.869,
140,9.83638,362.089,
144,9.73721,362.479,
148,9.7045,363.08,
152,9.6613,363.853,
156,9.60102,364.726,
160,9.45837,365.734,
164,9.40943,366.912,
168,9.40335,368.234,
172,9.30036,369.66,
176,9.21075,371.458,
180,9.15609,373.328,
184,9.11486,375.513,
188,9.01169,377.841,
192,8.95276,380.296,
196,8.96349,383.051,
200,8.90483,385.895,
204,8.88219,388.8,
208,8.77026,391.674,
212,8.71612,394.638,
216,8.71183,397.65,
220,8.59563,400.596,
224,8.55794,403.496,
228,8.49527,406.513,
232,8.45768,409.257,
236,8.34507,411.961,
240,8.34362,414.646,
244,8.3283,417.23,
248,8.22806,419.817,
252,8.17807,422.207,
256,8.14067,424.419,
260,8.08252,426.726,
264,8.04003,428.854,
268,7.95665,430.929,
272,7.88488,432.921,
276,7.84904,434.871,
280,7.78529,436.7402,
284,7.70266,438.3941,
288,7.63583,440.059,
292,7.60041,441.809,
296,7.53319,443.303,
300,7.5239,444.876,
304,7.36851,446.296,
308,7.34503,447.748,
312,7.3222,449.131,
316,7.18563,450.419,
320,7.1878,451.711,
324,7.12555,452.51,
328,7.07525,453.682,
332,6.98471,454.701,
336,6.95181,455.954,
340,6.85849,457.009,
344,6.80323,457.875,
348,6.74185,458.815,
352,6.70702,459.52,
356,6.61573,460.408,
360,6.61889,461.155,
364,6.49735,462.017,
368,6.49742,462.993,
372,6.44426,463.611,
376,6.38899,464.136,
380,6.30001,464.732,
384,6.33369,465.179,
388,6.226,465.679,
392,6.1908,466.594,
396,6.14946,466.998,
400,6.10939,467.396,
404,6.04425,467.874,
408,6.03318,468.249,
412,5.97511,468.751,
416,5.9331,469.171,
420,5.91011,469.673,
424,5.86533,469.629,
428,5.77904,470.75,
432,5.77987,471.338,
436,5.71343,471.814,
440,5.69197,472.202,
444,5.66561,473.062,
448,5.65928,473.281,
452,5.59995,473.872,
456,5.52606,474.303,
460,5.55976,474.95,
464,5.49675,475.212,
468,5.49592,475.733,
472,5.45994,475.837,
476,5.39199,476.349,
480,5.39577,476.913,
484,5.33645,477.183,
488,5.29164,477.757,
492,5.3053,478.265,
496,5.2581,477.982,
500,5.23659,478.793,
504,5.22331,479.036,
508,5.16297,479.252,
512,5.15412,479.786,
516,5.12641,480.241,
520,5.11738,480.589,
524,5.11665,480.684,
528,5.00717,481.148,
532,5.02616,481.259,
536,5.00191,481.773,
540,4.9945,481.79,
544,4.9422,482.109,
548,4.92875,482.63,
552,4.93372,482.901,
556,4.86194,483.121,
560,4.85251,483.132,
564,4.87556,483.583,
568,4.83254,483.518,
572,4.8389,484.083,
576,4.79885,484.099,
580,4.78081,484.455,
584,4.7854,485.064,
588,4.78148,485.007,
592,4.75211,485.393,
596,4.71192,485.443,
600,4.71589,485.769,
604,4.67995,485.895,
608,4.7023,485.923,
612,4.68239,486.328,
616,4.64897,486.227,
620,4.63834,486.737,
624,4.59373,486.6262,
628,4.61057,486.7027,
632,4.58749,486.9504,
636,4.59134,487.391,
640,4.5386,487.381,
644,4.56312,487.526,
648,4.52202,487.763,
652,4.55178,487.961,
656,4.47866,488.368,
660,4.50524,488.347,
664,4.50361,488.334,
668,4.47947,488.894,
672,4.44958,488.682,
676,4.47979,488.483,
680,4.4625,488.798,
684,4.3865,489.178,
688,4.42608,489.378,
692,4.40678,489.299,
696,4.39104,489.554,
700,4.38239,489.362,
704,4.35986,489.507,
708,4.37264,489.623,
712,4.34596,489.986,
716,4.34334,490.371,
720,4.32464,490.519,
724,4.32176,490.355,
728,4.31551,490.618,
732,4.33183,490.449,
736,4.30951,490.835,
740,4.29888,490.51,
744,4.29105,490.812,
748,4.30711,491.04,
752,4.281,491.362,
756,4.22115,491.443,
760,4.22791,491.694,
764,4.27909,491.825,
768,4.20994,491.89,
772,4.18478,491.962,
776,4.20984,492.01,
780,4.18178,492.104,
784,4.19972,491.889,
788,4.15318,492.002,
792,4.16227,492.264,
796,4.19615,492.229,
800,4.16519,492.226,
804,4.15968,492.482,
808,4.1274,492.347,
812,4.18885,492.632,
816,4.10277,492.649,
820,4.16516,492.826,
824,4.13293,492.539,
828,4.13984,492.936,
832,4.1155,493.019,
836,4.11404,493.368,
840,4.11156,493.078,
844,4.08335,493.201,
848,4.08055,493.264,
852,4.08503,493.148,
856,4.03431,493.341,
860,4.093,493.426,
864,4.07786,492.93,
868,4.0439,493.679,
872,4.05552,493.549,
876,4.04842,493.499,
880,4.00549,493.374,
884,4.08428,493.659,
888,4.05676,493.813,
892,4.03356,494,
896,4.0417,494.107,
900,3.99052,493.967,
904,3.99989,494.022,
908,3.98751,494.246,
912,3.99243,494.086,
916,3.97979,494.047,
920,3.98289,494.515,
924,3.97259,494.449,
928,3.95826,494.64,
932,3.95412,494.683,
936,3.91848,494.793,
940,3.98949,494.629,
944,3.92904,494.827,
948,4.00493,494.571,
952,3.93637,494.885,
956,3.93779,494.817,
960,3.91775,494.825,
964,3.93146,494.807,
968,3.9649,494.846,
972,3.92746,494.9333,
976,3.92858,495.019,
980,3.89704,494.911,
984,3.88528,494.971,
988,3.88295,495.007,
992,3.89152,495.147,
996,3.91921,495.04,
1000,3.89712,495.205,
1004,3.89145,495.285,
1008,3.8547,495.084,
1012,3.90503,495.001,
1016,3.86021,494.977,
1020,3.88799,495.277,
1024,3.82614,495.199,899.704
1028,3.82673,495.406,908.255
1032,3.83144,495.543,909.277
1036,3.87793,495.268,908.276
1040,3.83899,495.553,909.751
1044,3.83752,495.685,908.653
1048,3.79181,495.697,906.849
1052,3.86351,495.751,912.36
1056,3.84919,495.91,909.02
1060,3.82605,496.035,909.597
1064,3.84508,495.829,910.717
1068,3.82796,495.939,914.555
1072,3.83722,496.008,912.639
1076,3.79009,495.959,909.982
1080,3.83668,496.037,911.763
1084,3.81999,495.983,917.439
1088,3.81838,496.121,910.513
1092,3.80848,496.224,912.061
1096,3.796,496.192,916.974
1100,3.81239,496.143,915.257
1104,3.77082,496.303,910.934
1108,3.75277,496.351,911.239
1112,3.76469,496.336,913.907
1113,3.78322,496.343,905.932

File: FSRI_CAPA_N2_40kW_R2.csv
Time [s],Mass [g],Back Surface Temperature [K],Top Surface Temperature [K]
0,12.7394,297.129,414.797
4,12.7261,297.077,550.636
8,12.6477,297.034,612.799
12,12.6084,297.007,
16,12.5302,297.016,
20,12.4552,297.269,
24,12.3981,297.664,
28,12.2773,298.414,
32,12.255,299.686,
36,12.1625,301.441,
40,12.0279,303.584,
44,11.925,306.121,
48,11.8531,308.871,
52,11.7403,311.907,
56,11.6805,315.068,
60,11.5682,318.434,
64,11.5106,321.652,
68,11.4092,324.909,
72,11.3854,328.316,
76,11.222,331.679,
80,11.1782,334.985,
84,11.1329,337.908,
88,11.0259,340.977,
92,10.9587,343.633,
96,10.8841,346.393,
100,10.8177,348.893,
104,10.7324,351.172,
108,10.6711,353.357,
112,10.5914,355.174,
116,10.5429,356.975,
120,10.4262,358.348,
124,10.3804,359.507,
128,10.3202,360.259,
132,10.2546,360.669,
136,10.166,360.936,
140,10.0683,361.137,
144,10.0529,361.289,
148,9.98646,361.478,
152,9.91116,361.833,
156,9.82861,362.321,
160,9.77746,362.892,
164,9.69454,363.692,
168,9.65619,364.558,
172,9.58444,365.64,
176,9.55976,366.931,
180,9.45167,368.362,
184,9.38369,370.052,
188,9.36447,371.922,
192,9.29729,374.013,
196,9.22892,376.483,
200,9.19282,378.961,
204,9.10894,381.657,
208,9.10065,384.514,
212,8.9689,387.456,
216,8.96887,390.317,
220,8.90725,393.332,
224,8.82469,396.231,
228,8.7966,399.254,
232,8.76523,402.169,
236,8.70926,404.928,
240,8.66097,407.715,
244,8.61649,410.37,
248,8.57203,413.002,
252,8.50181,415.519,
256,8.41513,418.066,
260,8.3729,420.366,
264,8.29726,422.585,
268,8.25478,424.621,
272,8.19982,426.699,
276,8.14104,428.693,
280,8.07769,430.592,
284,7.97407,432.322,
288,7.9784,434.0944,
292,7.90031,435.6553,
296,7.8361,437.341,
300,7.77291,438.838,
304,7.71552,440.145,
308,7.66426,441.742,
312,7.5741,443.134,
316,7.50358,444.163,
320,7.46483,445.139,
324,7.42273,446.658,
328,7.28152,447.4,
332,7.27849,448.899,
336,7.21097,449.478,
340,7.16637,450.266,
344,7.05831,451.323,
348,7.03309,452.157,
352,6.94335,453.2,
356,6.93272,453.437,
360,6.84217,454.29,
364,6.76907,455.335,
368,6.68631,456.273,
372,6.65098,456.899,
376,6.60196,456.48,
380,6.53737,456.614,
384,6.50484,458.062,
388,6.43851,456.884,
392,6.43403,458.054,
396,6.3665,459.206,
400,6.32843,458.496,
404,6.24316,459.531,
408,6.23307,459.45,
412,6.17447,459.764,
416,6.11103,461.244,
420,6.05851,461.203,
424,6.03513,461.679,
428,5.96148,461.41,
432,5.95231,461.803,
436,5.91624,461.972,
440,5.83331,462.216,
444,5.88279,462.235,
448,5.7775,462.638,
452,5.75298,462.61,
456,5.74808,462.405,
460,5.69305,463.404,
464,5.64016,463.068,
468,5.57848,463.199,
472,5.60991,462.599,
476,5.56144,464.273,
480,5.52716,464.023,
484,5.52791,464.567,
488,5.4511,464.507,
492,5.41421,464.74,
496,5.37553,465.583,
500,5.40985,466.338,
504,5.29004,466.018,
508,5.29099,466.781,
512,5.26598,467.05,
516,5.25009,467.785,
520,5.25997,468.205,
524,5.25765,468.028,
528,5.19607,468.546,
532,5.19228,468.844,
536,5.16371,469.12,
540,5.10705,469.281,
544,5.13143,469.563,
548,5.06036,469.389,
552,5.07975,470.381,
556,5.03667,470.426,
560,4.9951,470.748,
564,5.0149,470.687,
568,4.9762,471.578,
572,4.95892,471.726,
576,4.97907,472.251,
580,4.90539,472.02,
584,4.89765,472.326,
588,4.90066,472.653,
592,4.86003,472.587,
596,4.86227,473.35,
600,4.81568,473.509,
604,4.80123,473.714,
608,4.81468,474.037,
612,4.78419,474.347,
616,4.74111,474.522,
620,4.77499,474.105,
624,4.75226,474.935,
628,4.71545,474.886,
632,4.72142,475.0785,
636,4.73208,475.5054,
640,4.68865,475.2826,
644,4.67157,475.832,
648,4.67618,475.92,
652,4.65208,476.301,
656,4.64448,476.525,
660,4.66353,476.622,
664,4.64815,476.644,
668,4.57607,476.98,
672,4.59149,476.971,
676,4.5808,477.293,
680,4.56629,476.918,
684,4.54993,477.509,
688,4.4984,477.647,
692,4.51933,477.8,
696,4.50541,478.003,
700,4.5154,478.255,
704,4.49178,478.642,
708,4.46552,478.555,
712,4.46158,478.637,
716,4.46244,478.617,
720,4.44419,478.856,
724,4.47527,478.839,
728,4.48596,478.969,
732,4.42608,478.991,
736,4.40488,479.303,
740,4.42144,479.428,
744,4.40124,479.448,
748,4.40388,479.464,
752,4.36056,479.831,
756,4.39117,479.955,
760,4.36266,480.002,
764,4.35699,480.063,
768,4.35781,480.414,
772,4.38721,480.222,
776,4.33199,480.653,
780,4.34956,480.736,
784,4.34147,480.687,
788,4.30441,480.632,
792,4.3167,480.737,
796,4.29728,481.079,
800,4.28938,480.863,
804,4.2802,481.117,
808,4.27579,481.114,
812,4.28448,481.292,
816,4.25837,481.329,
820,4.25822,481.454,
824,4.24688,481.715,
828,4.25255,481.923,
832,4.24899,481.981,
836,4.20421,481.866,
840,4.24332,481.818,
844,4.22803,482.272,
848,4.20475,482.088,
852,4.21372,482.315,
856,4.22891,482.564,
860,4.19789,482.524,
864,4.194,482.771,
868,4.20371,482.65,
872,4.21178,482.792,
876,4.18299,482.667,
880,4.16357,482.871,
884,4.10774,483.159,
888,4.18275,483.305,
892,4.17753,483.177,
896,4.13468,483.264,
900,4.16665,483.373,
904,4.11668,483.369,
908,4.14354,483.593,
912,4.13815,483.531,
916,4.08364,483.264,
920,4.11071,483.371,
924,4.12793,483.531,
928,4.10746,483.868,
932,4.05903,483.8,
936,4.09326,483.944,
940,4.09363,483.89,
944,4.0706,484.1,
948,4.09534,484.185,894.677
952,4.05969,484.241,899.611
956,4.085,484.423,895.622
960,4.03956,484.23,895.937
964,4.04988,484.436,897.826
968,4.09416,484.672,895.622
972,4.06283,484.875,895.097
976,3.98527,484.736,893.312
980,4.06964,484.9005,897.511
984,4.06149,484.8589,908.01
988,4.03869,485.109,899.926

File: FSRI_CAPA_N2_60kW_R1.csv
Time [s],Mass [g],Back Surface Temperature [K],Top Surface Temperature [K]
0,13.1137,296.323,396.361
3,13.0523,296.277,609.505
6,12.9379,296.236,
9,12.9528,296.406,
12,12.845,296.541,
15,12.7314,296.684,
18,12.5991,297.204,
21,12.4459,298.015,
24,12.3528,299.066,
27,12.242,300.462,
30,12.1321,302.102,
33,11.9887,304.043,
36,11.882,306.199,
39,11.807,308.29,
42,11.6851,310.647,
45,11.5813,313.231,
48,11.4921,315.623,
51,11.4224,318.071,
54,11.311,320.764,
57,11.2134,323.317,
60,11.128,325.923,
63,11.0201,328.517,
66,10.9556,331.052,
69,10.8455,333.639,
72,10.7549,336.023,
75,10.6947,338.328,
78,10.5879,340.728,
81,10.4662,342.987,
84,10.425,345.212,
87,10.3713,347.32,
90,10.2939,349.253,
93,10.1431,351.109,
96,10.1491,353.024,
99,10.0423,354.432,
102,9.92059,355.481,
105,9.88724,356.236,
108,9.8377,356.875,
111,9.74229,357.141,
114,9.69764,357.507,
117,9.56882,357.828,
120,9.50891,358.094,
123,9.42781,358.393,
126,9.35416,358.689,
129,9.28734,358.969,
132,9.22205,359.512,
135,9.14705,360.096,
138,9.08785,360.714,
141,9.0079,361.419,
144,8.92576,362.28,
147,8.87456,363.267,
150,8.78667,364.396,
153,8.76206,365.695,
156,8.7244,367.255,
159,8.60529,369.21,
162,8.5866,370.969,
165,8.53265,373.214,
168,8.42271,375.648,
171,8.35407,378.334,
174,8.34235,380.84,
177,8.24827,383.626,
180,8.17959,386.662,
183,8.11725,389.42,
186,8.08129,392.52,
189,7.99326,395.204,
192,7.96998,397.683,
195,7.8644,400.722,
198,7.81414,403.26,
201,7.73454,406.092,
204,7.67947,407.904,
207,7.67617,411.187,
210,7.56275,412.99,
213,7.50842,415.344,
216,7.48936,416.858,
219,7.35474,419.354,
222,7.31377,421.083,
225,7.24066,423.037,
228,7.18366,424.921,
231,7.1279,425.661,
234,6.96461,428.866,
237,6.98521,430.405,
240,6.89151,432.018,
243,6.83744,433.497,
246,6.77111,435.948,
249,6.68677,436.176,
252,6.6618,436.641,
255,6.58447,439.19,
258,6.52111,440.394,
261,6.4256,441.422,
264,6.34287,442.502,
267,6.29778,443.367,
270,6.2285,444.052,
273,6.18035,445.592,
276,6.08092,443.152,
279,6.05464,442.941,
282,5.99869,444.429,
285,5.92856,445.8,
288,5.88191,446.0511,
291,5.81737,446.328,
294,5.70833,448.199,
297,5.66776,449.522,
300,5.60744,447.811,
303,5.52078,447.87,
306,5.45983,448.465,
309,5.45221,449.538,
312,5.36309,453.315,
315,5.28052,453.389,
318,5.26,452.936,
321,5.20964,454.445,
324,5.14486,453.961,
327,5.0802,456.848,
330,5.0431,457.351,
333,5.01151,458.992,
336,4.94003,458.698,
339,4.88001,460.442,
342,4.80311,460.357,
345,4.76434,458.636,
348,4.72464,461.236,
351,4.72484,462.552,
354,4.65061,463.898,
357,4.56282,463.487,
360,4.57173,464.864,
363,4.50719,467.738,
366,4.43593,465.729,
369,4.43837,467.887,
372,4.40271,467.952,
375,4.3471,467.529,
378,4.31772,469.992,
381,4.28612,470.418,
384,4.19049,471.667,
387,4.14202,471.843,
390,4.15351,472.392,
393,4.10732,473.477,
396,4.0974,472.633,
399,4.01724,474.491,
402,3.98133,474.536,
405,3.9968,475.134,
408,3.94205,476.656,
411,3.8967,476.466,
414,3.85839,477.89,
417,3.83084,477.673,
420,3.77221,478.745,
423,3.79468,479.333,
426,3.70412,479.714,
429,3.72953,480.036,
432,3.71935,480.23,
435,3.65298,480.714,
438,3.60199,481.53,
441,3.632,480.495,
444,3.60393,482.182,
447,3.55402,482.87,
450,3.53014,483.068,
453,3.51883,484.159,
456,3.5191,484.014,
459,3.47441,484.444,
462,3.45141,485.319,
465,3.49989,485.639,
468,3.4703,486.815,
471,3.41903,485.769,
474,3.39963,486.947,
477,3.40045,487.126,
480,3.40187,487.393,
483,3.32709,487.746,
486,3.36235,488.167,
489,3.29812,487.745,
492,3.28858,488.705,
495,3.31467,488.023,
498,3.23625,488.668,
501,3.26355,488.357,
504,3.21255,489.897,
507,3.22149,489.966,
510,3.16614,489.749,
513,3.19923,490.172,
516,3.22292,489.874,
519,3.1931,490.322,
522,3.18466,490.56,
525,3.15242,491.114,
528,3.13828,491.025,
531,3.15741,491.788,
534,3.14662,491.726,
537,3.10721,492.059,
540,3.12584,492.454,
543,3.0863,492.995,
546,3.12315,493.867,
549,3.12617,493.684,
552,3.11411,493.311,
555,3.07385,493.747,
558,3.04614,493.392,
561,3.05433,494.012,
564,3.02864,494.019,
567,3.06998,494.427,
570,3.03228,494.994,
573,3.04891,494.642,
576,3.04792,495.069,
579,3.00826,495.337,
582,3.02947,495.198,
585,3.01946,495.463,
588,2.96836,496.02,
591,2.98347,495.657,
594,3.02682,496.031,
597,3.00877,496.205,
600,3.0315,496.324,
603,2.95893,496.425,1019.89
606,2.98707,496.023,1025.23
609,2.92966,496.203,1023.76
612,2.95091,496.289,1029.21
615,2.98539,496.604,1031.82
618,2.90267,496.435,1031.09
621,2.93191,496.157,1028.26
624,2.91882,496.184,1023.76
627,2.96441,496.669,1025.96
630,2.91682,496.4048,1028.06
633,2.91195,496.4443,1028.58
636,2.94687,496.8377,1026.49
639,2.95956,496.66,1024.08
642,2.93214,497.158,1027.74
645,2.87314,497.212,1035.38
648,2.96411,496.991,1025.12
651,2.88698,497.212,1031.72
654,2.87979,497.403,1032.35
657,2.89165,497.241,1036.22
660,2.88719,497.013,1034.65
663,2.92184,497.497,1033.08
666,2.87868,497.66,1039.15
669,2.89803,497.133,1038.42
672,2.89742,497.523,1030.78
675,2.88875,496.941,1030.15
678,2.88566,497.431,1026.28
681,2.86998,497.477,1030.78
684,2.86378,497.503,1031.72
687,2.88467,497.799,1031.09
690,2.84324,497.767,1029.63

File: FSRI_CAPA_N2_60kW_R2.csv
Time (s),Mass (g),TC Back (K),TC Top (K)
0,11.821,298.6,427.3
2,11.742,298.6,564.1
4,11.74,298.6,619.4
6,11.728,298.7,671.8
8,11.581,298.7,705.4
10,11.585,298.6,755.2
12,11.513,298.7,
14,11.402,298.6,
16,11.292,298.7,
18,11.262,298.8,
20,11.165,298.9,
22,11.054,299.2,
24,10.93,299.3,
26,10.9,299.9,
28,10.808,300.4,
30,10.665,301.2,
32,10.685,301.8,
34,10.583,302.8,
36,10.541,303.9,
38,10.456,305,
40,10.381,306.1,
42,10.343,307.4,
44,10.251,308.7,
46,10.207,309.9,
48,10.143,311.3,
50,10.101,312.8,
52,10.028,314.1,
54,9.931,315.6,
56,9.945,317.1,
58,9.881,318.7,
60,9.804,320.4,
62,9.782,321.9,
64,9.674,323.4,
66,9.631,325,
68,9.548,326.6,
70,9.54,328.2,
72,9.487,329.8,
74,9.458,331.3,
76,9.394,333,
78,9.22,334.3,
80,9.258,335.8,
82,9.202,337.2,
84,9.166,338.7,
86,9.141,340.1,
88,9.038,341.5,
90,9.038,342.7,
92,8.937,344.1,
94,8.932,345.2,
96,8.842,346.4,
98,8.801,347.6,
100,8.751,348.6,
102,8.712,349.8,
104,8.654,350.6,
106,8.594,351.3,
108,8.498,352.2,
110,8.494,353,
112,8.466,353.5,
114,8.451,353.9,
116,8.383,353.2,
118,8.344,353.2,
120,8.257,353.4,
122,8.203,353.6,
124,8.259,353.8,
126,8.085,354.1,
128,8.07,354.3,
130,8.012,354.5,
132,8.032,354.7,
134,7.953,355.2,
136,7.94,355.5,
138,7.884,355.8,
140,7.846,356.1,
142,7.766,356.6,
144,7.748,357,
146,7.73,357.6,
148,7.683,358.5,
150,7.594,359.2,
152,7.507,360.1,
154,7.532,360.7,
156,7.478,362.1,
158,7.425,363.1,
160,7.431,364.3,
162,7.352,365.7,
164,7.377,367.3,
166,7.274,368.7,
168,7.258,370.4,
170,7.248,372.1,
172,7.181,374.2,
174,7.139,376.2,
176,7.134,378.2,
178,7.091,379.1,
180,7.043,381.2,
182,6.96,383.1,
184,6.916,385.2,
186,6.864,387.2,
188,6.826,389.2,
190,6.805,391.2,
192,6.805,393.2,
194,6.695,395.1,
196,6.748,396.2,
198,6.709,398.2,
200,6.618,400.1,
202,6.675,401.2,
204,6.544,403.2,
206,6.517,405.2,
208,6.526,406.2,
210,6.447,408.2,
212,6.428,409.2,
214,6.371,411.2,
216,6.379,412.1,
218,6.35,414.2,
220,6.308,415.1,
222,6.256,417.1,
224,6.19,418.2,
226,6.147,419.2,
228,6.148,421.2,
230,6.137,422.2,
232,6.047,423.2,
234,6.072,424.2,
236,5.972,426.1,
238,5.964,427.2,
240,5.935,428.2,
242,5.865,429.2,
244,5.804,430.1,
246,5.791,431.2,
248,5.784,432.2,
250,5.714,434.2,
252,5.662,435.1,
254,5.617,436.2,
256,5.579,436.2,
258,5.559,438.2,
260,5.557,439.1,
262,5.537,440.1,
264,5.457,441.1,
266,5.405,441.1,
268,5.37,442.2,
270,5.356,443.2,
272,5.312,444.2,
274,5.231,445.2,
276,5.19,446.2,
278,5.188,447.2,
280,5.149,448.2,
282,5.085,449.2,
284,5.02,450.2,
286,5.077,450.2,
288,4.995,451.2,
290,4.888,452.2,
292,4.864,453.1,
294,4.884,453.2,
296,4.827,454.2,
298,4.829,455.2,
300,4.819,456.2,
302,4.701,456.2,
304,4.674,457.2,
306,4.659,458.2,
308,4.625,458.1,
310,4.526,459.2,
312,4.585,460.2,
314,4.524,460.1,
316,4.517,461.2,
318,4.437,462.2,
320,4.447,462.2,
322,4.436,463.2,
324,4.353,463.2,
326,4.334,464.2,
328,4.303,465.2,
330,4.238,465.2,
332,4.237,466.2,
334,4.229,466.2,
336,4.193,466.2,
338,4.182,467.2,
340,4.142,468.2,
342,4.119,468.2,
344,4.059,468.1,
346,4.037,469.2,
348,4.065,470.2,
350,3.992,470.2,
352,3.977,471.2,
354,3.922,471.2,
356,3.93,471.2,
358,3.879,472.2,
360,3.889,472.2,
362,3.858,473.2,
364,3.882,473.2,
366,3.835,473.2,
368,3.821,474.2,
370,3.781,475.2,
372,3.777,475.2,
374,3.663,476.1,
376,3.702,476.2,
378,3.638,477.2,
380,3.668,477.1,
382,3.59,477.2,
384,3.589,478.2,
386,3.592,477.2,
388,3.623,478.2,
390,3.552,478.2,
392,3.506,479.2,
394,3.564,479.2,
396,3.499,479.2,
398,3.508,480.1,
400,3.493,480.2,
402,3.45,480.2,
404,3.463,481.1,
406,3.403,481.2,
408,3.43,482.2,
410,3.336,482.2,
412,3.367,482.2,
414,3.392,482.2,
416,3.334,483.2,
418,3.316,483.2,
420,3.281,483.2,
422,3.317,483.2,
424,3.294,484.2,
426,3.258,484.2,
428,3.267,484.2,
430,3.272,484.3,
432,3.258,484.2,
434,3.172,484.2,
436,3.23,485.2,
438,3.221,485.1,
440,3.233,485.2,
442,3.184,486.1,
444,3.204,486.2,
446,3.176,486.2,
448,3.144,486.2,
450,3.145,485.2,
452,3.145,486.7,
454,3.11,487.1,
456,3.086,486.7,
458,3.108,488.2,
460,3.062,488.2,
462,3.072,488.2,
464,3.106,488.2,
466,3.061,488.2,
468,3.035,488.2,
470,3.006,489.2,
472,3.048,489.1,
474,3.026,489.2,
476,2.958,488.2,
478,3.024,489.2,
480,2.986,489,
482,2.948,489.6,
484,2.967,489.2,
486,2.969,490.1,
488,2.996,490.2,
490,2.931,491.1,
492,2.952,490.2,
494,2.905,490.2,
496,2.875,491.2,
498,2.89,490.2,
500,2.889,490.2,1035.5
502,2.915,491.2,1032.5
504,2.909,491.1,1030
506,2.935,491.2,1034.7
508,2.925,491.2,1032
510,2.902,491.2,1026.2
512,2.877,491.2,1033.8
514,2.874,491.1,1029.4
516,2.88,491.2,1038.7
518,2.884,492.2,1032.7
520,2.9,491.1,1032.6
522,2.91,491.1,1036.8
524,2.842,492.2,1038.7
526,2.85,492.2,1035.6
528,2.841,493.2,1033.4
530,2.831,493.1,1030.3
532,2.794,493.2,1030.9
534,2.835,492.9,1027.7
536,2.819,493.1,1037.6
538,2.835,493.2,1032.2
540,2.85,493.2,1034
542,2.831,493.2,1033.5
544,2.801,493.2,1035.2