Folder: matl-db/Wood/Calibration_Data/FZJ (part 6)

File: FZJ_Wood_MCC_N2_60K_R6.csv
Time (s),Temperature (K),HRR (W/g)
0.00,347.98,-0.51
13.23,350.48,3.87
17.52,352.98,2.88
20.78,355.48,2.02
23.64,357.98,1.62
26.37,360.48,1.37
28.94,362.98,1.08
31.44,365.48,0.56
33.92,367.98,0.45
36.30,370.48,0.66
38.72,372.98,0.41
41.11,375.48,0.39
43.42,377.98,-0.17
45.79,380.48,0.12
48.14,382.98,-0.03
50.47,385.48,-0.04
52.79,387.98,-0.28
55.12,390.48,-0.09
57.47,392.98,0.08
59.82,395.48,-0.05
62.19,397.98,-0.04
64.51,400.48,0.07
66.86,402.98,0.16
69.24,405.48,0.29
71.61,407.98,0.27
73.99,410.48,0.21
76.38,412.98,-0.19
78.77,415.48,0.39
81.19,417.98,0.59
83.58,420.48,0.45
85.99,422.98,0.66
88.39,425.48,0.53
90.85,427.98,0.80
93.24,430.48,0.79
95.69,432.98,1.12
98.15,435.48,1.32
100.57,437.98,1.51
103.02,440.48,1.61
105.48,442.98,1.61
107.90,445.48,2.14
110.36,447.98,2.50
112.78,450.48,2.96
115.25,452.98,3.03
117.72,455.48,3.34
120.13,457.98,3.78
122.62,460.48,4.23
125.06,462.98,4.31
127.54,465.48,5.17
129.97,467.98,5.59
132.43,470.48,6.26
134.92,472.98,6.89
137.35,475.48,7.37
139.82,477.98,8.26
142.29,480.48,8.59
144.76,482.98,9.57
147.24,485.48,9.95
149.69,487.98,10.76
152.15,490.48,11.25
154.62,492.98,12.08
157.12,495.48,12.72
159.61,497.98,13.19
162.08,500.48,13.30
164.57,502.98,13.80
167.04,505.48,13.95
169.54,507.98,13.75
172.02,510.48,14.16
174.48,512.98,14.05
176.99,515.48,14.31
179.48,517.98,14.50
181.92,520.48,14.67
184.41,522.98,15.34
186.90,525.48,15.81
189.38,527.98,16.31
191.88,530.48,16.92
194.36,532.98,17.88
196.86,535.48,18.32
199.34,537.98,19.82
201.84,540.48,20.32
204.38,542.98,21.26
206.84,545.48,22.25
209.36,547.98,23.63
211.83,550.48,24.47
214.33,552.98,25.83
216.81,555.48,27.14
219.31,557.98,28.64
221.84,560.48,30.53
224.31,562.98,31.67
226.79,565.48,33.56
229.27,567.98,35.22
231.77,570.48,36.63
234.27,572.98,38.74
236.78,575.48,40.07
239.29,577.98,42.18
241.76,580.48,44.50
244.26,582.98,45.72
246.78,585.48,47.92
249.26,587.98,49.86
251.77,590.48,51.76
254.28,592.98,54.00
256.77,595.48,56.36
259.26,597.98,58.84
261.73,600.48,61.28
264.23,602.98,64.12
266.72,605.48,66.85
269.23,607.98,70.25
271.75,610.48,73.11
274.24,612.98,76.05
276.74,615.48,78.71
279.23,617.98,81.19
281.73,620.48,83.64
284.24,622.98,85.05
286.75,625.48,87.28
289.25,627.98,89.29
291.75,630.48,90.28
294.24,632.98,92.48
296.74,635.48,94.64
299.23,637.98,97.23
301.70,640.48,100.28
304.21,642.98,103.87
306.70,645.48,108.23
309.23,647.98,113.25
311.73,650.48,118.46
314.25,652.98,124.17
316.72,655.48,129.82
319.26,657.98,135.07
321.75,660.48,139.40
324.27,662.98,142.47
326.75,665.48,143.50
329.28,667.98,141.56
331.78,670.48,136.21
334.29,672.98,127.04
336.75,675.48,114.84
339.27,677.98,98.78
341.75,680.48,81.41
344.22,682.98,64.13
346.68,685.48,48.61
349.17,687.98,36.00
351.62,690.48,26.71
354.11,692.98,21.16
356.58,695.48,18.21
359.08,697.98,16.74
361.56,700.48,16.76
364.04,702.98,15.73
366.55,705.48,15.19
369.08,707.98,14.62
371.59,710.48,14.11
374.07,712.98,13.24
376.59,715.48,12.85
379.08,717.98,12.48
381.58,720.48,11.76
384.04,722.98,11.03
386.57,725.48,10.99
389.09,727.98,10.21
391.58,730.48,9.56
394.04,732.98,9.05
396.57,735.48,8.88
399.08,737.98,8.05
401.59,740.48,7.53
404.11,742.98,7.15
406.59,745.48,6.90
409.13,747.98,6.55
411.62,750.48,5.84
414.14,752.98,5.19
416.67,755.48,4.86
419.18,757.98,4.58
421.65,760.48,3.94
424.17,762.98,3.68
426.66,765.48,3.52
429.18,767.98,2.91
431.70,770.48,3.05
434.21,772.98,2.44
436.68,775.48,2.38
439.21,777.98,2.48
441.74,780.48,1.86
444.23,782.98,2.01
446.73,785.48,1.70
449.23,787.98,1.29
451.74,790.48,1.39
454.23,792.98,1.27
456.75,795.48,0.86
459.24,797.98,1.43
461.75,800.48,0.82
464.24,802.98,1.22
466.75,805.48,0.08
469.24,807.98,0.54
471.76,810.48,0.90
474.23,812.98,0.57
476.74,815.48,0.79
479.26,817.98,0.33
481.76,820.48,0.62
484.27,822.98,0.33
486.76,825.48,0.41
489.27,827.98,0.48
491.79,830.48,0.35
494.28,832.98,0.21
496.79,835.48,0.13
499.27,837.98,0.00
501.76,840.48,0.07
504.27,842.98,-0.04
506.78,845.48,-0.05
509.28,847.98,0.09
511.76,850.48,-0.09
514.23,852.98,-0.15
516.74,855.48,0.31
519.28,857.98,-0.29
521.77,860.48,0.04
524.25,862.98,-0.04
526.76,865.48,0.28
529.27,867.98,-0.33
531.78,870.48,-0.46
534.28,872.98,0.13
536.77,875.48,-0.48
539.27,877.98,-0.07
541.80,880.48,-0.35
544.28,882.98,0.24
546.78,885.48,-0.50
549.28,887.98,-0.36
551.77,890.48,-0.49
554.23,892.98,-0.37
556.73,895.48,-0.47
559.27,897.98,-0.23
561.75,900.48,-0.41
564.27,902.98,-0.34
566.77,905.48,-0.47
569.26,907.98,-0.55
571.77,910.48,-0.47
574.26,912.98,-0.53
576.74,915.48,-0.20
579.27,917.98,-0.55
581.74,920.48,-0.78
584.23,922.98,-0.43
586.77,925.48,-0.39
589.24,927.98,-1.32
591.73,930.48,-0.81
594.24,932.98,-0.55
596.73,935.48,-0.80
599.23,937.98,-0.98
601.71,940.48,-0.60
604.21,942.98,-0.74
606.73,945.48,-0.40
609.24,947.98,-0.77
611.73,950.48,-0.43
614.23,952.98,-0.90
616.74,955.48,-0.88
619.23,957.98,-0.51
621.71,960.48,-0.83
624.18,962.98,-0.46
626.68,965.48,0.20
629.15,967.98,0.20
631.66,970.48,0.20
634.15,972.98,0.20
636.64,975.48,0.20
637.65,976.48,0.20

File: FZJ_Wood_MCC_N2_60K_R12.csv
Time (s),Temperature (K),HRR (W/g)
0.00,347.97,-0.79
13.12,350.47,6.49
17.47,352.97,5.21
20.71,355.47,3.46
23.60,357.97,2.46
26.29,360.47,1.87
28.85,362.97,0.77
31.33,365.47,1.66
33.82,367.97,0.71
36.20,370.47,0.84
38.56,372.97,0.63
40.97,375.47,0.43
43.32,377.97,0.22
45.66,380.47,0.53
47.99,382.97,0.62
50.33,385.47,-0.25
52.69,387.97,-0.33
54.98,390.47,0.23
57.35,392.97,-0.16
59.70,395.47,0.14
62.04,397.97,-0.56
64.42,400.47,0.28
66.75,402.97,0.35
69.13,405.47,0.60
71.48,407.97,0.42
73.88,410.47,0.04
76.26,412.97,0.21
78.64,415.47,0.28
81.05,417.97,0.35
83.47,420.47,1.12
85.91,422.97,0.65
88.32,425.47,1.08
90.73,427.97,1.44
93.14,430.47,1.21
95.62,432.97,1.62
98.06,435.47,2.62
100.47,437.97,2.77
102.95,440.47,2.64
105.40,442.97,2.88
107.86,445.47,3.16
110.25,447.97,3.54
112.71,450.47,4.08
115.19,452.97,3.83
117.61,455.47,3.96
120.10,457.97,4.53
122.57,460.47,5.06
124.99,462.97,5.61
127.46,465.47,5.89
129.89,467.97,6.96
132.39,470.47,7.12
134.84,472.97,7.41
137.29,475.47,9.35
139.76,477.97,9.43
142.22,480.47,9.70
144.68,482.97,9.97
147.15,485.47,10.60
149.62,487.97,11.47
152.09,490.47,10.59
154.56,492.97,10.97
157.02,495.47,10.37
159.51,497.97,11.61
162.02,500.47,10.60
164.48,502.97,11.05
166.97,505.47,10.78
169.46,507.97,11.43
171.92,510.47,11.54
174.42,512.97,12.85
176.88,515.47,13.09
179.41,517.97,13.44
181.89,520.47,14.89
184.38,522.97,15.53
186.86,525.47,16.36
189.33,527.97,17.17
191.83,530.47,18.82
194.32,532.97,19.97
196.83,535.47,20.07
199.31,537.97,22.22
201.79,540.47,23.16
204.31,542.97,24.50
206.81,545.47,25.78
209.31,547.97,25.99
211.81,550.47,28.01
214.27,552.97,29.69
216.79,555.47,31.44
219.30,557.97,32.48
221.81,560.47,33.80
224.27,562.97,35.26
226.77,565.47,36.53
229.27,567.97,37.82
231.75,570.47,39.32
234.25,572.97,41.06
236.75,575.47,41.33
239.25,577.97,43.66
241.76,580.47,44.77
244.25,582.97,46.13
246.76,585.47,47.56
249.22,587.97,49.68
251.75,590.47,51.61
254.24,592.97,53.98
256.73,595.47,56.46
259.25,597.97,58.54
261.73,600.47,61.56
264.26,602.97,64.67
266.73,605.47,68.11
269.22,607.97,70.65
271.74,610.47,73.77
274.23,612.97,76.74
276.72,615.47,79.74
279.23,617.97,81.94
281.72,620.47,83.95
284.21,622.97,86.00
286.73,625.47,86.55
289.21,627.97,88.60
291.74,630.47,90.32
294.21,632.97,91.98
296.72,635.47,94.59
299.23,637.97,96.92
301.73,640.47,100.59
304.21,642.97,104.05
306.75,645.47,108.92
309.23,647.97,113.99
311.72,650.47,119.73
314.24,652.97,125.59
316.72,655.47,131.59
319.23,657.97,136.93
321.74,660.47,142.18
324.25,662.97,145.46
326.75,665.47,146.56
329.27,667.97,144.79
331.77,670.47,138.83
334.26,672.97,128.83
336.75,675.47,114.44
339.25,677.97,96.54
341.77,680.47,76.84
344.23,682.97,58.86
346.72,685.47,42.45
349.19,687.97,30.31
351.68,690.47,22.90
354.17,692.97,17.90
356.65,695.47,16.40
359.14,697.97,16.54
361.62,700.47,14.64
364.11,702.97,15.04
366.64,705.47,15.20
369.15,707.97,14.43
371.67,710.47,14.19
374.15,712.97,13.42
376.65,715.47,13.27
379.16,717.97,12.32
381.66,720.47,12.08
384.17,722.97,11.94
386.65,725.47,10.83
389.14,727.97,10.54
391.66,730.47,10.31
394.16,732.97,9.99
396.68,735.47,9.48
399.16,737.97,8.23
401.67,740.47,8.12
404.18,742.97,7.69
406.68,745.47,7.57
409.19,747.97,6.94
411.71,750.47,6.50
414.21,752.97,5.91
416.73,755.47,5.34
419.25,757.97,5.34
421.76,760.47,4.77
424.24,762.97,4.35
426.74,765.47,3.43
429.26,767.97,4.02
431.74,770.47,4.36
434.25,772.97,2.94
436.80,775.47,3.26
439.32,777.97,2.95
441.84,780.47,3.19
444.34,782.97,2.78
446.79,785.47,2.50
449.30,787.97,2.45
451.78,790.47,2.14
454.31,792.97,2.12
456.80,795.47,2.43
459.34,797.97,2.04
461.83,800.47,1.80
464.33,802.97,1.62
466.82,805.47,1.83
469.32,807.97,1.37
471.86,810.47,1.39
474.34,812.97,0.75
476.85,815.47,1.52
479.36,817.97,0.86
481.83,820.47,0.91
484.33,822.97,0.78
486.83,825.47,0.88
489.34,827.97,0.55
491.84,830.47,0.73
494.35,832.97,0.40
496.84,835.47,0.23
499.31,837.97,1.01
501.84,840.47,0.13
504.37,842.97,0.12
506.84,845.47,0.05
509.34,847.97,0.46
511.84,850.47,-0.04
514.31,852.97,-0.35
516.83,855.47,0.00
519.33,857.97,-0.15
521.85,860.47,-0.43
524.31,862.97,-0.23
526.82,865.47,0.10
529.33,867.97,0.52
531.86,870.47,0.06
534.37,872.97,0.50
536.85,875.47,-0.23
539.34,877.97,0.58
541.84,880.47,-0.33
544.33,882.97,0.04
546.85,885.47,0.01
549.32,887.97,0.39
551.85,890.47,-0.15
554.33,892.97,-0.15
556.81,895.47,0.06
559.31,897.97,0.40
561.81,900.47,0.04
564.32,902.97,-0.39
566.81,905.47,0.26
569.30,907.97,-0.01
571.80,910.47,-0.04
574.28,912.97,0.04
576.81,915.47,0.41
579.29,917.97,-0.04
581.79,920.47,-0.02
584.29,922.97,0.60
586.77,925.47,0.34
589.26,927.97,-0.49
591.77,930.47,0.10
594.24,932.97,-0.27
596.75,935.47,-0.13
599.22,937.97,0.08
601.75,940.47,-0.27
604.19,942.97,-0.10
606.69,945.47,-0.21
609.21,947.97,0.22
611.70,950.47,0.04
614.18,952.97,-0.10
616.68,955.47,0.30
619.17,957.97,0.09
621.65,960.47,0.43
624.14,962.97,-0.22
626.63,965.47,0.28
629.12,967.97,0.28
631.63,970.47,0.28
634.09,972.97,0.28
636.60,975.47,0.29
637.61,976.47,0.29

File: FZJ_Wood_MCC_N2_60K_R14.csv
Time (s),Temperature (K),HRR (W/g)
1.18,347.95,-0.74
12.12,349.95,6.15
16.14,351.95,4.52
18.99,353.95,3.24
21.50,355.95,3.00
23.75,357.95,1.30
25.91,359.95,0.99
27.99,361.95,0.95
30.02,363.95,0.75
32.01,365.95,0.43
33.97,367.95,0.40
35.90,369.95,0.64
37.82,371.95,0.20
39.72,373.95,-0.07
41.62,375.95,0.01
43.52,377.95,-0.44
45.39,379.95,-0.58
47.27,381.95,-0.27
49.12,383.95,-0.42
51.01,385.95,-0.36
52.86,387.95,-0.65
54.75,389.95,-0.55
56.61,391.95,-0.52
58.50,393.95,-0.37
60.37,395.95,-0.33
62.25,397.95,0.10
64.13,399.95,0.13
66.00,401.95,0.07
67.89,403.95,-0.16
69.82,405.95,-0.30
71.68,407.95,0.19
73.58,409.95,0.26
75.52,411.95,0.33
77.43,413.95,-0.37
79.33,415.95,0.48
81.26,417.95,0.14
83.18,419.95,-0.02
85.12,421.95,1.23
87.04,423.95,0.84
88.97,425.95,0.87
90.90,427.95,1.60
92.85,429.95,1.23
94.77,431.95,0.97
96.73,433.95,1.91
98.67,435.95,1.91
100.66,437.95,1.75
102.62,439.95,2.40
104.58,441.95,2.40
106.52,443.95,2.75
108.48,445.95,2.85
110.41,447.95,3.03
112.38,449.95,3.55
114.36,451.95,3.76
116.29,453.95,3.59
118.28,455.95,4.28
120.24,457.95,4.78
122.17,459.95,4.75
124.17,461.95,5.46
126.14,463.95,6.05
128.09,465.95,6.22
130.06,467.95,7.13
132.04,469.95,7.61
133.99,471.95,7.60
135.96,473.95,7.88
137.90,475.95,9.10
139.91,477.95,9.01
141.86,479.95,8.15
143.86,481.95,8.34
145.83,483.95,8.77
147.80,485.95,8.00
149.76,487.95,8.40
151.76,489.95,8.90
153.73,491.95,8.92
155.71,493.95,9.49
157.69,495.95,9.22
159.69,497.95,9.22
161.66,499.95,9.33
163.64,501.95,9.90
165.62,503.95,10.46
167.61,505.95,10.87
169.62,507.95,10.97
171.58,509.95,11.43
173.56,511.95,12.25
175.58,513.95,12.29
177.56,515.95,13.10
179.53,517.95,13.45
181.52,519.95,13.73
183.52,521.95,14.51
185.51,523.95,15.00
187.48,525.95,16.32
189.48,527.95,16.58
191.45,529.95,17.26
193.47,531.95,18.34
195.46,533.95,19.33
197.44,535.95,19.51
199.42,537.95,20.15
201.42,539.95,21.93
203.40,541.95,23.04
205.44,543.95,23.36
207.45,545.95,25.08
209.42,547.95,26.34
211.43,549.95,27.84
213.44,551.95,28.31
215.41,553.95,29.20
217.43,555.95,30.41
219.40,557.95,32.12
221.39,559.95,33.49
223.39,561.95,34.61
225.37,563.95,35.76
227.36,565.95,36.63
229.40,567.95,37.66
231.38,569.95,38.63
233.36,571.95,39.42
235.36,573.95,40.72
237.35,575.95,41.64
239.37,577.95,42.99
241.40,579.95,44.28
243.37,581.95,45.61
245.37,583.95,46.87
247.37,585.95,48.00
249.35,587.95,49.10
251.37,589.95,50.17
253.37,591.95,52.27
255.35,593.95,54.15
257.37,595.95,56.15
259.37,597.95,58.01
261.38,599.95,60.09
263.35,601.95,62.43
265.34,603.95,64.84
267.35,605.95,67.96
269.36,607.95,70.01
271.34,609.95,71.95
273.37,611.95,74.47
275.37,613.95,76.84
277.35,615.95,78.81
279.33,617.95,80.62
281.33,619.95,82.79
283.34,621.95,84.58
285.35,623.95,86.32
287.35,625.95,87.58
289.35,627.95,88.76
291.35,629.95,90.23
293.36,631.95,91.74
295.30,633.95,93.47
297.36,635.95,95.01
299.33,637.95,96.74
301.33,639.95,99.35
303.33,641.95,102.04
305.35,643.95,105.19
307.31,645.95,108.56
309.33,647.95,112.68
311.33,649.95,116.66
313.34,651.95,120.82
315.36,653.95,125.57
317.35,655.95,129.68
319.34,657.95,133.18
321.32,659.95,136.51
323.37,661.95,139.55
325.36,663.95,140.70
327.38,665.95,141.29
329.37,667.95,139.22
331.39,669.95,135.42
333.40,671.95,129.80
335.36,673.95,120.48
337.37,675.95,108.95
339.35,677.95,96.67
341.37,679.95,82.78
343.37,681.95,68.44
345.32,683.95,54.55
347.30,685.95,42.80
349.30,687.95,33.61
351.27,689.95,26.09
353.27,691.95,20.96
355.24,693.95,17.94
357.24,695.95,15.79
359.23,697.95,14.75
361.24,699.95,14.65
363.24,701.95,15.09
365.24,703.95,15.25
367.20,705.95,14.53
369.25,707.95,13.71
371.26,709.95,13.63
373.25,711.95,13.62
375.26,713.95,12.94
377.25,715.95,12.42
379.25,717.95,12.03
381.25,719.95,11.48
383.23,721.95,11.38
385.26,723.95,10.66
387.28,725.95,10.49
389.26,727.95,10.19
391.27,729.95,10.34
393.29,731.95,9.28
395.29,733.95,9.17
397.27,735.95,8.64
399.26,737.95,8.37
401.27,739.95,8.55
403.32,741.95,7.50
405.29,743.95,7.26
407.31,745.95,6.73
409.28,747.95,6.87
411.31,749.95,6.30
413.32,751.95,5.73
415.33,753.95,5.70
417.32,755.95,5.33
419.33,757.95,4.67
421.31,759.95,4.52
423.34,761.95,4.67
425.35,763.95,3.90
427.32,765.95,3.56
429.34,767.95,3.29
431.36,769.95,3.40
433.36,771.95,2.87
435.36,773.95,2.96
437.38,775.95,3.35
439.38,777.95,2.75
441.40,779.95,2.48
443.41,781.95,2.12
445.37,783.95,1.89
447.39,785.96,2.66
449.36,787.96,1.63
451.39,789.96,1.58
453.40,791.96,2.11
455.42,793.96,1.54
457.41,795.96,1.07
459.39,797.96,0.86
461.40,799.96,1.45
463.40,801.96,1.32
465.42,803.96,0.93
467.42,805.96,0.95
469.41,807.96,0.72
471.42,809.96,0.52
473.42,811.96,1.11
475.45,813.96,0.35
477.42,815.96,0.59
479.43,817.96,0.97
481.44,819.96,0.92
483.43,821.96,0.47
485.42,823.96,0.19
487.44,825.96,0.07
489.43,827.96,0.71
491.43,829.96,0.78
493.43,831.96,-0.03
495.42,833.96,0.14
497.43,835.96,-0.19
499.44,837.96,0.38
501.43,839.96,0.37
503.42,841.96,0.24
505.45,843.96,-0.06
507.45,845.96,0.05
509.42,847.96,0.88
511.41,849.96,0.43
513.42,851.96,-0.25
515.40,853.96,-0.40
517.42,855.96,0.24
519.41,857.96,-0.08
521.40,859.96,-0.13
523.41,861.96,-0.40
525.40,863.96,-0.05
527.42,865.96,-0.05
529.42,867.96,-0.10
531.47,869.96,0.52
533.43,871.96,0.04
535.44,873.96,-0.24
537.40,875.96,-0.10
539.43,877.96,0.00
541.39,879.96,0.11
543.43,881.96,0.02
545.42,883.96,-0.13
547.42,885.96,-0.10
549.41,887.96,-0.18
551.40,889.96,0.52
553.37,891.96,0.35
555.40,893.96,-0.25
557.38,895.96,-0.06
559.37,897.96,-0.46
561.37,899.96,-0.67
563.35,901.96,0.14
565.38,903.96,0.08
567.39,905.96,-0.70
569.39,907.96,-0.29
571.36,909.96,0.28
573.35,911.96,-0.02
575.36,913.96,-0.07
577.35,915.96,-0.07
579.36,917.96,-0.06
581.36,919.96,-0.06
583.35,921.96,-0.06
585.35,923.96,-0.05
587.35,925.96,-0.05
587.84,926.46,-0.05