Folder: matl-db/Wood/Calibration_Data/FZJ (part 5)

File: FZJ_MCC_N2_60K_R12.csv
Time,Temperature,HRR
0.000,74.824,-0.786
13.117,77.324,6.488
17.469,79.824,5.214
20.714,82.324,3.460
23.603,84.824,2.460
26.291,87.324,1.866
28.848,89.824,0.765
31.335,92.324,1.657
33.815,94.824,0.708
36.198,97.324,0.844
38.560,99.824,0.630
40.965,102.324,0.425
43.325,104.824,0.216
45.661,107.324,0.530
47.989,109.824,0.620
50.334,112.324,-0.252
52.686,114.824,-0.325
54.981,117.324,0.228
57.355,119.824,-0.155
59.699,122.324,0.142
62.037,124.824,-0.564
64.417,127.324,0.284
66.751,129.824,0.351
69.133,132.324,0.600
71.482,134.824,0.420
73.882,137.324,0.036
76.260,139.824,0.213
78.641,142.324,0.276
81.048,144.824,0.353
83.467,147.324,1.118
85.911,149.824,0.647
88.322,152.324,1.078
90.728,154.824,1.440
93.138,157.324,1.213
95.618,159.824,1.618
98.062,162.324,2.618
100.472,164.824,2.774
102.948,167.324,2.640
105.401,169.824,2.876
107.858,172.324,3.162
110.254,174.824,3.539
112.712,177.324,4.083
115.185,179.824,3.835
117.613,182.324,3.958
120.099,184.824,4.530
122.568,187.324,5.057
124.990,189.824,5.607
127.458,192.324,5.887
129.894,194.824,6.963
132.388,197.324,7.124
134.838,199.824,7.409
137.286,202.324,9.349
139.764,204.824,9.426
142.223,207.324,9.697
144.684,209.824,9.967
147.145,212.324,10.601
149.617,214.824,11.468
152.091,217.324,10.589
154.558,219.824,10.974
157.022,222.324,10.366
159.511,224.824,11.607
162.021,227.324,10.596
164.479,229.824,11.054
166.973,232.324,10.781
169.462,234.824,11.430
171.920,237.324,11.542
174.420,239.824,12.853
176.883,242.324,13.085
179.407,244.824,13.436
181.887,247.324,14.891
184.382,249.824,15.527
186.863,252.324,16.356
189.333,254.824,17.167
191.834,257.324,18.820
194.321,259.824,19.965
196.835,262.324,20.065
199.309,264.824,22.223
201.794,267.324,23.159
204.306,269.824,24.505
206.805,272.324,25.782
209.306,274.824,25.989
211.810,277.324,28.012
214.270,279.824,29.687
216.789,282.324,31.444
219.299,284.824,32.480
221.807,287.324,33.804
224.270,289.824,35.259
226.774,292.324,36.527
229.268,294.824,37.821
231.750,297.324,39.320
234.250,299.824,41.057
236.752,302.324,41.332
239.247,304.824,43.662
241.763,307.324,44.767
244.254,309.824,46.132
246.756,312.324,47.558
249.224,314.824,49.682
251.750,317.324,51.614
254.239,319.824,53.984
256.729,322.324,56.464
259.249,324.824,58.539
261.729,327.324,61.559
264.261,329.824,64.672
266.734,332.324,68.111
269.217,334.824,70.654
271.744,337.324,73.773
274.233,339.824,76.735
276.720,342.324,79.741
279.229,344.824,81.942
281.724,347.324,83.946
284.206,349.824,86.003
286.734,352.324,86.550
289.214,354.824,88.601
291.740,357.324,90.316
294.211,359.824,91.985
296.725,362.324,94.587
299.229,364.824,96.918
301.732,367.324,100.585
304.214,369.824,104.048
306.747,372.324,108.920
309.227,374.824,113.987
311.716,377.324,119.728
314.241,379.824,125.588
316.723,382.324,131.592
319.232,384.824,136.932
321.744,387.324,142.185
324.255,389.824,145.456
326.754,392.324,146.556
329.266,394.824,144.791
331.772,397.324,138.829
334.258,399.824,128.827
336.751,402.324,114.436
339.255,404.824,96.536
341.774,407.324,76.844
344.225,409.824,58.857
346.722,412.324,42.445
349.193,414.824,30.307
351.684,417.324,22.898
354.173,419.824,17.896
356.650,422.324,16.400
359.136,424.824,16.542
361.623,427.324,14.644
364.110,429.824,15.036
366.643,432.324,15.200
369.155,434.824,14.429
371.669,437.324,14.193
374.151,439.824,13.422
376.655,442.324,13.273
379.156,444.824,12.315
381.656,447.324,12.077
384.169,449.824,11.936
386.648,452.324,10.826
389.143,454.824,10.545
391.663,457.324,10.306
394.158,459.824,9.987
396.677,462.324,9.482
399.162,464.824,8.235
401.671,467.324,8.117
404.183,469.824,7.685
406.681,472.324,7.574
409.192,474.824,6.942
411.708,477.324,6.503
414.214,479.824,5.914
416.729,482.324,5.340
419.251,484.824,5.344
421.757,487.324,4.769
424.239,489.824,4.346
426.738,492.324,3.429
429.261,494.824,4.015
431.742,497.324,4.365
434.252,499.824,2.945
436.799,502.324,3.255
439.320,504.824,2.952
441.841,507.324,3.191
444.340,509.824,2.785
446.795,512.324,2.503
449.303,514.824,2.452
451.781,517.324,2.145
454.309,519.824,2.116
456.798,522.324,2.431
459.342,524.824,2.039
461.827,527.324,1.797
464.331,529.824,1.617
466.817,532.324,1.825
469.320,534.824,1.370
471.859,537.324,1.385
474.339,539.824,0.748
476.847,542.324,1.520
479.364,544.824,0.861
481.831,547.324,0.909
484.332,549.824,0.779
486.835,552.324,0.878
489.335,554.824,0.549
491.835,557.324,0.728
494.346,559.824,0.396
496.835,562.324,0.231
499.313,564.824,1.015
501.842,567.324,0.125
504.373,569.824,0.118
506.844,572.324,0.053
509.337,574.824,0.456
511.842,577.324,-0.044
514.314,579.824,-0.346
516.830,582.324,0.002
519.334,584.824,-0.149
521.852,587.324,-0.435
524.314,589.824,-0.233
526.824,592.324,0.104
529.329,594.824,0.522
531.864,597.324,0.057
534.367,599.824,0.501
536.851,602.324,-0.230
539.342,604.824,0.583
541.845,607.324,-0.330
544.333,609.824,0.039
546.845,612.324,0.010
549.318,614.824,0.385
551.847,617.324,-0.153
554.328,619.824,-0.152
556.812,622.324,0.058
559.306,624.824,0.403
561.813,627.324,0.043
564.324,629.824,-0.393
566.813,632.324,0.257
569.298,634.824,-0.012
571.804,637.324,-0.038
574.277,639.824,0.036
576.810,642.324,0.413
579.290,644.824,-0.044
581.793,647.324,-0.023
584.289,649.824,0.596
586.774,652.324,0.335
589.256,654.824,-0.487
591.774,657.324,0.101
594.241,659.824,-0.267
596.749,662.324,-0.132
599.222,664.824,0.077
601.745,667.324,-0.269
604.188,669.824,-0.101
606.690,672.324,-0.212
609.210,674.824,0.222
611.702,677.324,0.036
614.180,679.824,-0.102
616.683,682.324,0.299
619.165,684.824,0.089
621.646,687.324,0.431
624.140,689.824,-0.222
626.634,692.324,0.276
629.122,694.824,0.278
631.626,697.324,0.281
634.091,699.824,0.283
636.600,702.324,0.286
637.607,703.324,0.287

File: FZJ_MCC_N2_60K_R13.csv
Time (s),Temperature (K),HRR (W/g)
2.06,348.02,-2.83
13.94,350.52,6.75
18.11,353.02,4.55
21.29,355.52,3.61
24.13,358.02,1.93
26.81,360.52,1.30
29.38,363.02,0.97
31.88,365.52,0.54
34.31,368.02,0.59
36.71,370.52,0.67
39.07,373.02,-0.23
41.43,375.52,-0.09
43.78,378.02,0.09
46.13,380.52,0.14
48.46,383.02,-0.13
50.78,385.52,-0.20
53.11,388.02,0.12
55.48,390.52,0.25
57.82,393.02,-0.13
60.14,395.52,-0.31
62.51,398.02,-0.00
64.86,400.52,0.33
67.21,403.02,0.09
69.59,405.52,0.03
71.94,408.02,0.26
74.31,410.52,0.76
76.71,413.02,0.63
79.09,415.52,0.37
81.50,418.02,1.18
83.90,420.52,0.75
86.30,423.02,1.16
88.71,425.52,1.37
91.17,428.02,1.69
93.58,430.52,1.86
96.05,433.02,1.73
98.45,435.52,1.81
100.89,438.02,2.43
103.33,440.52,3.26
105.79,443.02,3.50
108.23,445.52,2.65
110.65,448.02,3.66
113.11,450.52,3.88
115.52,453.02,4.42
117.98,455.52,4.06
120.47,458.02,4.00
122.93,460.52,4.75
125.35,463.02,4.85
127.81,465.52,5.09
130.25,468.02,5.11
132.72,470.52,5.33
135.17,473.02,5.26
137.62,475.52,5.04
140.10,478.02,5.81
142.58,480.52,5.01
145.01,483.02,5.95
147.51,485.52,5.93
149.98,488.02,6.14
152.43,490.52,6.87
154.91,493.02,6.76
157.39,495.52,8.07
159.88,498.02,7.55
162.35,500.52,7.99
164.81,503.02,8.85
167.29,505.52,9.36
169.78,508.02,9.75
172.28,510.52,10.40
174.76,513.02,10.75
177.22,515.52,11.34
179.71,518.02,11.46
182.20,520.52,12.77
184.67,523.02,13.97
187.16,525.52,14.82
189.65,528.02,15.59
192.13,530.52,16.61
194.63,533.02,17.86
197.14,535.52,18.80
199.61,538.02,20.95
202.13,540.52,21.82
204.63,543.02,23.24
207.10,545.52,25.07
209.60,548.02,26.60
212.09,550.52,27.84
214.58,553.02,30.21
217.07,555.52,31.49
219.57,558.02,33.08
222.04,560.52,34.73
224.58,563.02,36.59
227.06,565.52,38.34
229.58,568.02,40.21
232.02,570.52,41.01
234.51,573.02,42.56
237.01,575.52,43.48
239.52,578.02,44.73
242.03,580.52,46.39
244.54,583.02,47.69
247.04,585.52,49.38
249.58,588.02,50.54
252.06,590.52,52.65
254.54,593.02,54.69
257.03,595.52,56.80
259.52,598.02,59.58
262.03,600.52,62.17
264.54,603.02,65.53
266.99,605.52,67.80
269.53,608.02,70.75
272.00,610.52,74.11
274.50,613.02,76.87
277.01,615.52,79.64
279.48,618.02,82.11
282.01,620.52,84.33
284.45,623.02,86.27
286.97,625.52,88.08
289.47,628.02,89.46
291.97,630.52,91.06
294.45,633.02,93.31
296.95,635.52,95.35
299.45,638.02,97.75
301.97,640.52,101.45
304.47,643.02,104.61
306.96,645.52,109.58
309.45,648.02,114.09
311.95,650.52,119.35
314.46,653.02,125.21
316.94,655.52,130.51
319.46,658.02,135.80
321.96,660.52,139.26
324.46,663.02,142.02
326.98,665.52,142.99
329.49,668.02,140.37
331.99,670.52,133.98
334.46,673.02,124.26
337.00,675.52,110.60
339.50,678.02,93.27
341.95,680.52,75.17
344.42,683.02,58.38
346.91,685.52,42.71
349.38,688.02,31.34
351.87,690.52,23.17
354.37,693.02,18.15
356.82,695.52,15.58
359.30,698.02,14.65
361.82,700.52,15.06
364.32,703.02,14.70
366.83,705.52,14.78
369.33,708.02,13.97
371.83,710.52,13.65
374.33,713.02,13.51
376.85,715.52,12.62
379.34,718.02,12.31
381.84,720.52,11.90
384.35,723.02,11.66
386.82,725.52,10.98
389.33,728.02,11.12
391.83,730.52,10.42
394.35,733.02,10.01
396.86,735.52,9.26
399.37,738.02,8.95
401.85,740.52,8.35
404.37,743.02,8.11
406.86,745.52,7.44
409.38,748.02,7.31
411.89,750.52,7.27
414.40,753.02,6.53
416.91,755.52,5.90
419.41,758.02,5.72
421.93,760.52,5.00
424.40,763.02,5.65
426.93,765.52,5.04
429.41,768.02,4.05
431.93,770.52,3.95
434.43,773.02,2.92
436.94,775.52,3.17
439.45,778.02,3.66
441.99,780.52,2.33
444.48,783.02,2.75
446.98,785.52,3.14
449.47,788.02,2.49
451.97,790.52,2.83
454.48,793.02,2.64
456.96,795.52,1.91
459.47,798.02,1.89
461.97,800.52,1.38
464.47,803.02,1.87
467.01,805.52,1.30
469.46,808.02,0.99
471.96,810.52,1.50
474.48,813.02,0.71
476.97,815.52,1.01
479.48,818.02,0.55
482.00,820.52,1.25
484.50,823.02,0.53
487.00,825.52,0.95
489.48,828.02,0.86
491.99,830.52,1.11
494.51,833.02,0.44
497.00,835.52,0.98
499.49,838.02,0.06
501.98,840.52,0.02
504.47,843.02,0.49
506.97,845.52,0.74
509.49,848.02,0.06
511.96,850.52,0.20
514.45,853.02,0.20
516.96,855.52,0.33
519.45,858.02,-0.05
521.96,860.52,0.43
524.46,863.02,-0.23
526.93,865.52,0.29
529.43,868.02,0.63
531.97,870.52,0.25
534.42,873.02,-0.24
536.96,875.52,0.45
539.46,878.02,-0.45
541.96,880.52,0.09
544.45,883.02,0.11
546.94,885.52,-0.08
549.41,888.02,0.10
551.95,890.52,0.08
554.42,893.02,0.08
556.90,895.52,0.27
559.41,898.02,0.52
561.90,900.52,-0.31
564.39,903.02,0.07
566.87,905.52,0.09
569.37,908.02,-0.09
571.86,910.52,0.07
574.38,913.02,0.13
576.87,915.52,-0.47
579.35,918.02,-0.57
581.86,920.52,-0.28
584.31,923.02,-0.59
586.85,925.52,-0.52
589.32,928.02,0.59
591.81,930.52,-0.35
594.32,933.02,0.22
596.79,935.52,0.15
599.30,938.02,0.03
601.79,940.52,-0.49
604.26,943.02,0.10
606.78,945.52,0.15
609.27,948.02,0.24
611.75,950.52,-0.34
614.24,953.02,-0.04
616.74,955.52,0.01
619.24,958.02,0.17
621.74,960.52,0.23
624.22,963.02,-0.27
626.71,965.52,-0.57
629.18,968.02,-0.57
631.68,970.52,-0.57
634.19,973.02,-0.57
636.69,975.52,-0.57
637.70,976.52,-0.56

File: FZJ_MCC_N2_60K_R14.csv
Time,Temperature,HRR
1.178,74.805,-0.744
12.120,76.805,6.148
16.141,78.805,4.518
18.995,80.805,3.243
21.497,82.805,2.996
23.751,84.805,1.296
25.914,86.805,0.994
27.993,88.805,0.950
30.022,90.805,0.749
32.006,92.805,0.435
33.965,94.805,0.401
35.903,96.805,0.642
37.821,98.805,0.199
39.725,100.805,-0.067
41.616,102.805,0.013
43.523,104.805,-0.437
45.388,106.805,-0.576
47.266,108.805,-0.267
49.116,110.805,-0.419
51.007,112.805,-0.356
52.864,114.805,-0.652
54.750,116.805,-0.552
56.609,118.805,-0.516
58.504,120.805,-0.372
60.366,122.805,-0.328
62.246,124.805,0.097
64.134,126.805,0.126
66.001,128.805,0.071
67.895,130.805,-0.163
69.823,132.805,-0.298
71.677,134.805,0.193
73.582,136.805,0.259
75.522,138.805,0.335
77.434,140.805,-0.366
79.328,142.805,0.483
81.255,144.805,0.135
83.180,146.805,-0.025
85.122,148.805,1.228
87.038,150.805,0.843
88.972,152.805,0.874
90.900,154.805,1.602
92.848,156.805,1.229
94.771,158.805,0.970
96.727,160.805,1.909
98.666,162.805,1.912
100.660,164.805,1.749
102.615,166.805,2.397
104.579,168.805,2.395
106.524,170.805,2.752
108.476,172.805,2.853
110.406,174.805,3.029
112.382,176.805,3.552
114.356,178.805,3.761
116.294,180.805,3.587
118.285,182.805,4.280
120.235,184.805,4.780
122.174,186.805,4.752
124.168,188.805,5.459
126.140,190.805,6.054
128.093,192.805,6.217
130.060,194.805,7.130
132.042,196.805,7.608
133.993,198.805,7.598
135.965,200.805,7.878
137.905,202.805,9.103
139.913,204.805,9.006
141.861,206.805,8.151
143.858,208.805,8.336
145.828,210.805,8.766
147.805,212.805,7.997
149.757,214.805,8.405
151.760,216.805,8.901
153.731,218.805,8.924
155.711,220.805,9.490
157.690,222.805,9.218
159.687,224.805,9.218
161.658,226.805,9.327
163.644,228.805,9.897
165.623,230.805,10.458
167.608,232.805,10.866
169.623,234.805,10.966
171.585,236.805,11.431
173.563,238.805,12.253
175.575,240.805,12.288
177.562,242.805,13.097
179.535,244.805,13.452
181.516,246.805,13.735
183.524,248.805,14.507
185.514,250.805,14.997
187.484,252.805,16.315
189.483,254.805,16.580
191.451,256.805,17.262
193.472,258.805,18.344
195.457,260.805,19.330
197.441,262.805,19.508
199.421,264.805,20.154
201.420,266.805,21.928
203.404,268.805,23.037
205.440,270.805,23.363
207.452,272.805,25.083
209.419,274.805,26.345
211.433,276.805,27.845
213.435,278.805,28.307
215.406,280.805,29.202
217.430,282.805,30.410
219.396,284.805,32.115
221.385,286.805,33.487
223.387,288.805,34.614
225.369,290.805,35.763
227.358,292.805,36.630
229.396,294.805,37.659
231.376,296.805,38.625
233.363,298.805,39.417
235.359,300.805,40.718
237.349,302.805,41.641
239.365,304.805,42.991
241.396,306.805,44.283
243.371,308.805,45.612
245.373,310.805,46.867
247.373,312.805,48.003
249.353,314.805,49.101
251.368,316.805,50.171
253.370,318.805,52.273
255.349,320.805,54.151
257.372,322.805,56.150
259.369,324.805,58.006
261.377,326.805,60.093
263.349,328.805,62.431
265.337,330.805,64.840
267.351,332.805,67.962
269.364,334.805,70.005
271.341,336.805,71.946
273.366,338.805,74.469
275.366,340.805,76.842
277.348,342.805,78.807
279.330,344.805,80.624
281.327,346.805,82.786
283.335,348.805,84.584
285.347,350.805,86.322
287.354,352.805,87.583
289.354,354.805,88.764
291.352,356.805,90.233
293.357,358.805,91.743
295.303,360.805,93.473
297.361,362.805,95.011
299.326,364.805,96.744
301.335,366.805,99.351
303.334,368.805,102.043
305.352,370.805,105.190
307.308,372.805,108.559
309.329,374.805,112.679
311.335,376.805,116.661
313.337,378.805,120.822
315.362,380.805,125.574
317.347,382.805,129.678
319.342,384.805,133.184
321.324,386.805,136.509
323.368,388.805,139.553
325.364,390.805,140.698
327.384,392.805,141.288
329.368,394.805,139.224
331.390,396.805,135.422
333.395,398.805,129.800
335.361,400.805,120.481
337.367,402.805,108.947
339.354,404.805,96.669
341.371,406.805,82.777
343.366,408.805,68.440
345.320,410.805,54.549
347.296,412.805,42.796
349.296,414.805,33.615
351.272,416.805,26.088
353.267,418.805,20.957
355.242,420.805,17.935
357.236,422.805,15.786
359.233,424.805,14.751
361.244,426.805,14.648
363.236,428.805,15.089
365.236,430.805,15.253
367.204,432.805,14.526
369.254,434.805,13.708
371.260,436.805,13.632
373.251,438.805,13.617
375.260,440.805,12.939
377.251,442.805,12.424
379.255,444.805,12.030
381.246,446.805,11.478
383.233,448.805,11.376
385.258,450.805,10.656
387.279,452.805,10.487
389.256,454.805,10.193
391.268,456.805,10.342
393.287,458.805,9.278
395.287,460.805,9.173
397.268,462.805,8.637
399.262,464.805,8.374
401.274,466.805,8.548
403.322,468.805,7.499
405.290,470.805,7.255
407.308,472.805,6.730
409.283,474.805,6.866
411.313,476.805,6.300
413.320,478.805,5.728
415.331,480.805,5.702
417.316,482.805,5.327
419.334,484.805,4.674
421.306,486.805,4.525
423.336,488.805,4.668
425.350,490.805,3.899
427.323,492.805,3.565
429.345,494.805,3.295
431.358,496.805,3.401
433.359,498.805,2.870
435.356,500.805,2.956
437.378,502.805,3.348
439.376,504.805,2.753
441.405,506.805,2.476
443.405,508.805,2.119
445.373,510.805,1.890
447.388,512.805,2.656
449.365,514.805,1.632
451.392,516.805,1.576
453.404,518.805,2.114
455.417,520.805,1.543
457.409,522.805,1.066
459.393,524.805,0.861
461.402,526.805,1.448
463.403,528.805,1.316
465.421,530.805,0.928
467.424,532.805,0.946
469.406,534.805,0.716
471.422,536.805,0.517
473.423,538.805,1.115
475.452,540.805,0.354
477.422,542.805,0.594
479.434,544.805,0.973
481.443,546.805,0.922
483.434,548.805,0.468
485.416,550.805,0.191
487.440,552.805,0.074
489.433,554.805,0.707
491.427,556.805,0.780
493.432,558.805,-0.027
495.423,560.805,0.141
497.428,562.805,-0.190
499.444,564.805,0.383
501.434,566.805,0.368
503.423,568.805,0.242
505.449,570.805,-0.058
507.449,572.805,0.050
509.419,574.805,0.879
511.405,576.805,0.434
513.416,578.805,-0.249
515.401,580.805,-0.396
517.424,582.805,0.244
519.406,584.805,-0.080
521.403,586.805,-0.128
523.406,588.805,-0.403
525.405,590.805,-0.050
527.418,592.805,-0.052
529.418,594.805,-0.101
531.475,596.805,0.524
533.430,598.805,0.041
535.438,600.805,-0.243
537.398,602.805,-0.101
539.434,604.805,0.002
541.389,606.805,0.115
543.430,608.805,0.016
545.423,610.805,-0.131
547.421,612.805,-0.100
549.408,614.805,-0.177
551.399,616.805,0.524
553.374,618.805,0.352
555.404,620.805,-0.245
557.376,622.805,-0.064
559.369,624.805,-0.461
561.372,626.805,-0.673
563.353,628.805,0.142
565.383,630.805,0.077
567.391,632.805,-0.696
569.392,634.805,-0.292
571.356,636.805,0.284
573.345,638.805,-0.023
575.358,640.805,-0.071
577.349,642.805,-0.067
579.364,644.805,-0.064
581.356,646.805,-0.060
583.345,648.805,-0.057
585.345,650.805,-0.053
587.348,652.805,-0.050
587.835,653.305,-0.049

File: FZJ_Wood_MCC_N2_30K_R1.csv
Time (s),Temperature (K),HRR (W/g)
0.50,347.97,0.73
15.94,349.97,3.53
21.10,351.97,2.21
25.35,353.97,1.31
29.39,355.97,0.56
33.21,357.97,-0.11
37.03,359.97,0.48
40.82,361.97,0.43
44.63,363.97,0.59
48.32,365.97,-0.95
52.06,367.97,0.10
55.88,369.97,0.06
59.62,371.97,-0.20
63.49,373.97,-0.29
67.31,375.97,0.13
71.10,377.97,-0.67
74.97,379.97,-0.01
78.82,381.97,0.23
82.63,383.97,-0.09
86.50,385.97,0.06
90.32,387.97,-0.11
94.17,389.97,-0.26
98.04,391.97,-0.17
101.90,393.97,0.34
105.79,395.97,-0.56
109.68,397.97,0.08
113.62,399.97,0.35
117.53,401.97,0.10
121.43,403.97,-0.25
125.32,405.97,-0.06
129.19,407.97,0.17
133.17,409.97,0.33
137.05,411.97,0.12
141.08,413.97,-0.27
144.93,415.97,0.51
148.92,417.97,0.40
152.84,419.97,0.24
156.83,421.97,0.65
160.73,423.97,0.06
164.69,425.97,0.22
168.67,427.97,0.29
172.64,429.97,0.28
176.63,431.97,0.41
180.49,433.97,0.88
184.58,435.97,0.81
188.52,437.97,1.30
192.46,439.97,1.20
196.53,441.97,1.36
200.46,443.97,1.94
204.43,445.97,1.73
208.38,447.97,1.58
212.34,449.97,2.33
216.33,451.97,2.12
220.23,453.97,2.06
224.31,455.97,2.73
228.27,457.97,2.24
232.20,459.97,2.29
236.23,461.97,2.67
240.17,463.97,2.34
244.12,465.97,2.95
248.11,467.97,2.83
252.08,469.97,3.01
256.10,471.97,3.53
259.99,473.97,3.34
264.07,475.97,3.22
268.00,477.97,3.70
271.97,479.97,3.54
275.97,481.97,4.19
279.99,483.97,4.56
283.95,485.97,3.77
287.92,487.97,3.66
291.93,489.97,4.57
295.90,491.97,4.57
299.90,493.97,4.72
303.86,495.97,4.84
307.92,497.97,4.88
311.89,499.97,5.16
315.85,501.97,5.41
319.88,503.97,6.06
323.83,505.97,5.69
327.81,507.97,6.31
331.84,509.97,7.11
335.85,511.97,6.48
339.78,513.97,7.07
343.82,515.97,7.76
347.84,517.97,8.02
351.76,519.97,7.91
355.78,521.97,8.80
359.78,523.97,9.81
363.83,525.97,9.47
367.70,527.97,10.69
371.77,529.97,10.59
375.73,531.97,11.00
379.80,533.97,12.12
383.75,535.97,12.38
387.75,537.97,12.83
391.75,539.97,13.20
395.76,541.97,14.24
399.76,543.97,14.10
403.77,545.97,15.24
407.76,547.97,14.89
411.76,549.97,16.21
415.76,551.97,14.99
419.73,553.97,17.91
423.72,555.97,17.67
427.79,557.97,17.24
431.74,559.97,19.09
435.76,561.97,19.71
439.80,563.97,18.23
443.76,565.97,20.50
447.74,567.97,20.50
451.74,569.97,20.04
455.68,571.97,22.54
459.76,573.97,22.60
463.78,575.97,21.99
467.79,577.97,23.96
471.77,579.97,24.75
475.78,581.97,24.25
479.82,583.97,26.82
483.75,585.97,27.63
487.82,587.97,27.78
491.79,589.97,30.58
495.79,591.97,30.96
499.78,593.97,32.41
503.85,595.97,33.77
507.84,597.97,35.03
511.81,599.97,36.23
515.81,601.97,37.67
519.79,603.97,38.82
523.87,605.97,39.22
527.85,607.97,41.47
531.92,609.97,41.42
535.88,611.97,42.86
539.88,613.97,43.59
543.86,615.97,44.15
547.90,617.97,45.03
551.94,619.97,45.51
555.92,621.97,46.07
559.95,623.97,47.63
563.94,625.97,48.63
567.93,627.97,50.08
571.92,629.97,51.82
575.94,631.97,53.49
579.96,633.97,55.65
583.99,635.97,57.64
588.01,637.97,60.28
592.03,639.97,62.87
596.03,641.97,64.84
599.94,643.97,67.25
604.03,645.97,70.07
608.06,647.97,72.73
612.06,649.97,73.50
616.09,651.97,74.27
620.09,653.97,74.12
624.04,655.97,72.20
628.06,657.97,68.73
632.05,659.97,64.59
636.01,661.97,57.84
640.01,663.97,50.94
644.05,665.97,42.74
648.03,667.97,34.96
652.00,669.97,27.11
656.04,671.97,21.02
659.96,673.97,15.61
663.95,675.97,12.53
668.02,677.97,9.64
671.99,679.97,9.19
676.04,681.97,7.72
679.99,683.97,7.48
683.99,685.97,6.89
687.99,687.97,6.84
692.01,689.97,6.54
696.05,691.97,6.38
700.00,693.97,6.10
703.97,695.97,6.44
708.01,697.97,5.83
712.10,699.97,5.37
716.04,701.97,5.64
720.08,703.97,5.96
724.07,705.97,4.91
728.10,707.97,5.26
732.14,709.97,4.80
736.08,711.97,4.61
740.09,713.97,5.12
744.14,715.97,4.49
748.15,717.97,4.20
752.14,719.97,3.68
756.12,721.97,3.50
760.17,723.97,3.22
764.17,725.97,3.57
768.18,727.97,3.29
772.19,729.97,3.47
776.17,731.97,2.77
780.19,733.97,2.48
784.21,735.97,2.97
788.25,737.97,2.20
792.30,739.97,2.19
796.30,741.97,1.83
800.28,743.97,1.47
804.26,745.97,1.73
808.33,747.97,1.35
812.39,749.97,1.32
816.36,751.97,1.46
820.45,753.97,1.31
824.42,755.97,1.03
828.47,757.97,0.94
832.47,759.97,1.18
836.47,761.97,0.80
840.53,763.97,0.88
844.52,765.97,0.80
848.48,767.97,0.25
852.57,769.97,0.17
856.60,771.97,0.34
860.62,773.97,0.63
864.62,775.97,0.36
868.58,777.97,-0.10
872.57,779.97,0.00
876.64,781.97,0.66
880.65,783.97,-0.08
884.61,785.97,0.74
888.64,787.97,0.14
892.65,789.97,0.47
896.70,791.97,-0.07
900.68,793.97,0.30
904.72,795.97,-0.44
908.69,797.97,-0.09
912.71,799.97,-0.15
916.75,801.97,0.45
920.67,803.97,-0.45
924.76,805.97,-0.61
928.75,807.97,0.16
932.75,809.97,-0.48
936.75,811.97,0.01
940.78,813.97,0.05
944.83,815.97,-0.99
948.81,817.97,0.05
952.90,819.97,-0.56
956.80,821.97,0.43
960.78,823.97,-0.16
964.82,825.97,-0.72
968.84,827.97,0.15
972.86,829.97,-0.39
976.91,831.97,0.00
980.85,833.97,0.08
984.91,835.97,0.03
988.83,837.97,0.27
992.85,839.97,0.00
996.85,841.97,0.16
1000.82,843.97,0.05
1004.77,845.97,-0.05
1008.76,847.97,-0.10
1012.84,849.97,-0.38
1016.76,851.97,0.49
1020.81,853.97,-0.05
1024.82,855.97,-0.37
1028.84,857.97,0.28
1032.87,859.97,0.59
1036.85,861.97,0.53
1040.83,863.97,0.22
1044.72,865.97,0.10
1048.77,867.97,0.53
1052.74,869.97,2.05
1056.67,871.97,2.05
1060.68,873.97,2.06
1062.68,874.97,2.06