Folder: matl-db/Wood/Calibration_Data/FZJ (part 3)

File: FZJ_MCC_N2_60K_R4.csv
Time (s),Temperature (K),HRR (W/g)
3.38,348.18,-16.74
13.18,350.18,14.73
16.91,352.18,12.53
19.70,354.18,9.68
22.12,356.18,8.85
24.34,358.18,5.01
26.52,360.18,5.42
28.57,362.18,3.42
30.63,364.18,2.65
32.59,366.18,3.83
34.54,368.18,3.43
36.46,370.18,5.26
38.35,372.18,0.80
40.26,374.18,1.71
42.15,376.18,2.60
44.00,378.18,2.36
45.88,380.18,0.16
47.75,382.18,-0.17
49.62,384.18,-0.46
51.50,386.18,0.46
53.34,388.18,-0.52
55.19,390.18,-0.76
57.07,392.18,0.38
58.96,394.18,-0.21
60.81,396.18,-1.43
62.70,398.18,0.26
64.57,400.18,1.72
66.45,402.18,1.99
68.34,404.18,-1.72
70.24,406.18,-1.38
72.14,408.18,0.81
74.03,410.18,-0.37
75.93,412.18,-0.48
77.86,414.18,2.64
79.77,416.18,1.49
81.68,418.18,1.76
83.60,420.18,-1.57
85.53,422.18,0.70
87.44,424.18,2.90
89.40,426.18,1.42
91.32,428.18,-2.28
93.25,430.18,-0.53
95.20,432.18,2.44
97.14,434.18,-1.17
99.07,436.18,0.37
101.05,438.18,0.28
103.00,440.18,0.43
104.97,442.18,2.04
106.91,444.18,0.80
108.87,446.18,-0.72
110.82,448.18,1.98
112.76,450.18,1.53
114.70,452.18,2.21
116.67,454.18,1.57
118.63,456.18,2.19
120.61,458.18,3.47
122.55,460.18,-0.06
124.55,462.18,2.15
126.53,464.18,2.25
128.45,466.18,0.59
130.40,468.18,-0.43
132.38,470.18,1.78
134.35,472.18,2.79
136.32,474.18,2.22
138.25,476.18,2.82
140.26,478.18,3.59
142.20,480.18,3.42
144.20,482.18,4.66
146.18,484.18,5.01
148.15,486.18,4.24
150.13,488.18,3.00
152.10,490.18,6.65
154.05,492.18,4.83
156.03,494.18,5.89
158.01,496.18,5.19
159.98,498.18,5.31
161.97,500.18,4.42
163.98,502.18,4.44
165.96,504.18,5.49
167.95,506.18,5.43
169.92,508.18,5.97
171.91,510.18,5.74
173.91,512.18,5.08
175.89,514.18,7.81
177.87,516.18,6.99
179.86,518.18,4.55
181.83,520.18,6.38
183.82,522.18,6.34
185.82,524.18,4.53
187.81,526.18,5.53
189.81,528.18,6.45
191.78,530.18,7.22
193.76,532.18,8.71
195.77,534.18,9.13
197.75,536.18,8.78
199.73,538.18,9.06
201.73,540.18,12.00
203.73,542.18,10.63
205.74,544.18,13.89
207.75,546.18,13.53
209.71,548.18,13.37
211.72,550.18,14.47
213.71,552.18,14.18
215.71,554.18,16.14
217.70,556.18,15.93
219.67,558.18,17.54
221.71,560.18,20.19
223.69,562.18,21.30
225.69,564.18,23.97
227.68,566.18,23.43
229.67,568.18,24.20
231.66,570.18,29.72
233.64,572.18,30.37
235.66,574.18,29.33
237.67,576.18,31.96
239.66,578.18,33.45
241.65,580.18,35.64
243.63,582.18,37.81
245.66,584.18,38.93
247.65,586.18,41.40
249.65,588.18,45.03
251.65,590.18,44.74
253.64,592.18,48.18
255.66,594.18,49.95
257.64,596.18,52.95
259.63,598.18,55.33
261.64,600.18,58.77
263.63,602.18,61.34
265.60,604.18,65.19
267.60,606.18,68.36
269.61,608.18,72.04
271.62,610.18,72.85
273.61,612.18,76.31
275.61,614.18,79.11
277.61,616.18,83.18
279.61,618.18,85.58
281.60,620.18,88.55
283.60,622.18,90.37
285.59,624.18,92.49
287.61,626.18,93.91
289.62,628.18,96.51
291.62,630.18,96.17
293.63,632.18,99.76
295.61,634.18,101.45
297.61,636.18,102.23
299.59,638.18,104.24
301.59,640.18,103.54
303.58,642.18,105.02
305.60,644.18,110.26
307.58,646.18,110.66
309.61,648.18,114.07
311.57,650.18,118.46
313.58,652.18,121.20
315.55,654.18,123.09
317.57,656.18,130.57
319.59,658.18,134.63
321.60,660.18,136.04
323.63,662.18,143.90
325.62,664.18,151.48
327.59,666.18,149.86
329.60,668.18,152.27
331.62,670.18,155.13
333.63,672.18,153.71
335.62,674.18,150.86
337.66,676.18,148.43
339.64,678.18,130.21
341.61,680.18,122.00
343.61,682.18,110.81
345.62,684.18,92.60
347.61,686.18,73.86
349.60,688.18,56.23
351.59,690.18,45.44
353.58,692.18,31.29
355.58,694.18,19.63
357.57,696.18,14.37
359.58,698.18,12.68
361.54,700.18,11.76
363.57,702.18,12.59
365.56,704.18,11.46
367.58,706.18,11.85
369.57,708.18,13.49
371.57,710.18,8.23
373.54,712.18,11.50
375.56,714.18,13.17
377.57,716.18,11.04
379.59,718.18,12.70
381.56,720.18,11.44
383.54,722.18,10.75
385.58,724.18,10.37
387.56,726.18,8.58
389.56,728.18,9.83
391.57,730.18,11.08
393.58,732.18,9.50
395.59,734.18,7.33
397.59,736.18,8.50
399.59,738.18,8.28
401.59,740.18,7.90
403.56,742.18,7.01
405.58,744.18,5.99
407.61,746.18,7.33
409.59,748.18,6.52
411.61,750.18,4.24
413.62,752.18,4.01
415.63,754.18,5.36
417.62,756.18,4.36
419.64,758.18,4.73
421.65,760.18,3.30
423.63,762.18,2.59
425.63,764.18,4.89
427.63,766.18,3.32
429.63,768.18,1.01
431.65,770.18,2.50
433.67,772.18,3.30
435.67,774.18,2.34
437.66,776.18,1.58
439.67,778.18,1.73
441.67,780.18,2.13
443.69,782.18,1.72
445.71,784.18,1.29
447.69,786.18,0.73
449.67,788.18,0.49
451.68,790.18,0.73
453.67,792.18,0.94
455.65,794.18,-0.11
457.68,796.18,0.24
459.70,798.18,1.61
461.71,800.18,0.29
463.71,802.18,-0.47
465.69,804.18,-0.07
467.68,806.18,-0.65
469.69,808.18,0.04
471.71,810.18,0.81
473.70,812.18,0.97
475.69,814.18,0.86
477.71,816.18,0.29
479.68,818.18,-0.87
481.71,820.18,-1.15
483.72,822.18,1.34
485.70,824.18,-1.02
487.70,826.18,-1.87
489.72,828.18,0.91
491.71,830.18,1.39
493.71,832.18,0.22
495.71,834.18,-1.05
497.70,836.18,0.46
499.72,838.18,0.56
501.72,840.18,-0.65
503.72,842.18,-0.14
505.73,844.18,0.63
507.75,846.18,-0.81
509.73,848.18,-1.90
511.73,850.18,0.14
513.72,852.18,0.32
515.70,854.18,-0.34
517.70,856.18,-0.65
519.72,858.18,-0.34
521.72,860.18,1.35
523.72,862.18,1.98
525.71,864.18,2.95
527.72,866.18,2.96
529.74,868.18,2.96
531.71,870.18,2.97
533.73,872.18,2.98
535.70,874.18,2.99
537.72,876.18,2.99
538.22,876.68,3.00

File: FZJ_MCC_N2_60K_R5.csv
Time (s),Temperature (K),HRR (W/g)
0.00,347.98,1.06
12.60,349.98,7.39
16.44,351.98,5.96
19.28,353.98,4.11
21.74,355.98,3.76
23.98,357.98,3.36
26.15,359.98,2.80
28.22,361.98,2.41
30.25,363.98,1.93
32.23,365.98,1.94
34.16,367.98,1.47
36.11,369.98,0.94
38.04,371.98,1.10
39.93,373.98,1.04
41.82,375.98,1.20
43.69,377.98,0.97
45.58,379.98,0.59
47.42,381.98,0.64
49.33,383.98,0.87
51.19,385.98,0.72
53.05,387.98,0.72
54.89,389.98,0.43
56.80,391.98,0.34
58.64,393.98,0.40
60.52,395.98,0.50
62.43,397.98,-0.18
64.29,399.98,0.33
66.20,401.98,0.31
68.07,403.98,-0.33
69.94,405.98,-0.10
71.84,407.98,-0.25
73.75,409.98,0.05
75.63,411.98,0.05
77.56,413.98,-0.01
79.45,415.98,0.35
81.41,417.98,-0.10
83.33,419.98,-0.07
85.26,421.98,0.42
87.19,423.98,-0.01
89.12,425.98,-0.08
91.05,427.98,0.03
93.01,429.98,-0.31
94.95,431.98,0.27
96.89,433.98,0.32
98.82,435.98,-0.41
100.77,437.98,0.13
102.73,439.98,0.09
104.70,441.98,0.14
106.69,443.98,0.03
108.62,445.98,0.09
110.59,447.98,0.09
112.53,449.98,0.29
114.50,451.98,0.01
116.45,453.98,0.86
118.40,455.98,0.56
120.40,457.98,-0.55
122.35,459.98,0.68
124.30,461.98,0.78
126.28,463.98,0.30
128.25,465.98,0.33
130.20,467.98,0.26
132.16,469.98,0.29
134.12,471.98,1.20
136.11,473.98,0.81
138.06,475.98,0.83
140.05,477.98,1.24
141.98,479.98,0.62
143.97,481.98,0.98
145.94,483.98,1.12
147.90,485.98,1.86
149.88,487.98,2.01
151.85,489.98,-3.65
153.86,491.98,-4.86
155.83,493.98,2.13
157.81,495.98,2.18
159.80,497.98,1.50
161.78,499.98,3.94
163.77,501.98,4.24
165.76,503.98,3.50
167.74,505.98,3.87
169.75,507.98,5.19
171.71,509.98,3.41
173.72,511.98,3.44
175.70,513.98,7.10
177.67,515.98,6.61
179.66,517.98,3.57
181.67,519.98,7.33
183.65,521.98,5.12
185.63,523.98,4.84
187.63,525.98,6.26
189.61,527.98,5.88
191.59,529.98,7.40
193.59,531.98,8.54
195.60,533.98,8.72
197.57,535.98,9.79
199.58,537.98,9.17
201.58,539.98,10.66
203.53,541.98,12.00
205.57,543.98,12.43
207.56,545.98,13.27
209.52,547.98,13.10
211.57,549.98,13.76
213.52,551.98,15.43
215.53,553.98,16.76
217.54,555.98,17.84
219.51,557.98,18.51
221.52,559.98,20.00
223.52,561.98,22.71
225.51,563.98,23.34
227.50,565.98,24.84
229.49,567.98,25.26
231.46,569.98,26.66
233.50,571.98,29.69
235.47,573.98,30.91
237.50,575.98,31.17
239.50,577.98,32.01
241.51,579.98,35.44
243.51,581.98,37.14
245.52,583.98,38.30
247.52,585.98,41.59
249.51,587.98,44.29
251.52,589.98,46.03
253.50,591.98,47.32
255.52,593.98,50.84
257.54,595.98,52.34
259.51,597.98,54.36
261.51,599.98,59.74
263.51,601.98,61.80
265.48,603.98,65.31
267.49,605.98,68.44
269.51,607.98,70.40
271.50,609.98,73.43
273.49,611.98,76.75
275.50,613.98,80.32
277.50,615.98,83.76
279.51,617.98,85.25
281.52,619.98,86.87
283.51,621.98,89.39
285.53,623.98,91.28
287.51,625.98,94.69
289.52,627.98,95.36
291.54,629.98,97.01
293.49,631.98,98.99
295.50,633.98,100.95
297.52,635.98,102.99
299.53,637.98,104.99
301.49,639.98,106.41
303.53,641.98,109.21
305.54,643.98,112.83
307.53,645.98,113.83
309.53,647.98,118.87
311.51,649.98,122.66
313.52,651.98,126.17
315.50,653.98,131.77
317.53,655.98,135.55
319.52,657.98,141.25
321.53,659.98,145.38
323.53,661.98,147.79
325.54,663.98,151.93
327.53,665.98,153.84
329.53,667.98,153.17
331.55,669.98,151.19
333.54,671.98,146.71
335.54,673.98,139.83
337.57,675.98,130.50
339.52,677.98,117.21
341.53,679.98,101.36
343.53,681.98,86.29
345.54,683.98,69.81
347.47,685.98,55.51
349.49,687.98,42.15
351.45,689.98,32.47
353.45,691.98,24.98
355.41,693.98,20.19
357.42,695.98,16.95
359.42,697.98,14.87
361.40,699.98,14.03
363.39,701.98,13.91
365.41,703.98,13.38
367.42,705.98,14.52
369.39,707.98,14.74
371.39,709.98,11.51
373.42,711.98,12.33
375.41,713.98,13.52
377.42,715.98,12.10
379.43,717.98,12.12
381.43,719.98,12.17
383.43,721.98,11.11
385.38,723.98,11.66
387.46,725.98,11.07
389.46,727.98,10.64
391.45,729.98,9.53
393.47,731.98,10.43
395.46,733.98,8.83
397.44,735.98,6.21
399.45,737.98,9.50
401.47,739.98,8.35
403.45,741.98,6.93
405.48,743.98,7.45
407.45,745.98,5.99
409.49,747.98,6.53
411.51,749.98,6.92
413.53,751.98,7.33
415.52,753.98,4.81
417.53,755.98,5.06
419.54,757.98,4.44
421.55,759.98,4.49
423.53,761.98,3.72
425.53,763.98,5.27
427.53,765.98,4.57
429.54,767.98,3.68
431.56,769.98,4.00
433.57,771.98,3.05
435.59,773.98,2.60
437.56,775.98,2.41
439.58,777.98,2.26
441.60,779.98,3.52
443.64,781.98,3.20
445.62,783.98,2.17
447.62,785.98,1.77
449.62,787.98,1.07
451.64,789.98,1.72
453.62,791.98,2.60
455.59,793.98,1.57
457.62,795.98,1.65
459.64,797.98,1.20
461.63,799.98,1.84
463.63,801.98,1.61
465.64,803.98,0.78
467.63,805.98,1.34
469.63,807.98,0.98
471.63,809.98,1.29
473.61,811.98,1.16
475.64,813.98,0.88
477.65,815.98,1.75
479.66,817.98,1.51
481.66,819.98,1.21
483.68,821.98,0.65
485.66,823.98,0.65
487.65,825.98,-0.29
489.67,827.98,0.72
491.67,829.98,0.65
493.67,831.98,-0.14
495.68,833.98,0.58
497.66,835.98,1.23
499.69,837.98,0.08
501.69,839.98,-0.73
503.68,841.98,-0.44
505.69,843.98,0.72
507.69,845.98,0.22
509.70,847.98,-0.25
511.72,849.98,-0.00
513.68,851.98,-0.16
515.65,853.98,0.59
517.67,855.98,-0.11
519.68,857.98,-0.26
521.70,859.98,0.32
523.69,861.98,0.04
525.71,863.98,-4.17
527.70,865.98,-4.18
529.71,867.98,-4.20
531.73,869.98,-4.21
533.71,871.98,-4.23
535.71,873.98,-4.24
537.70,875.98,-4.25
538.20,876.48,-4.26

File: FZJ_MCC_N2_60K_R6.csv
Time,Temperature,HRR
0.000,74.833,-0.513
13.234,77.333,3.866
17.516,79.833,2.881
20.783,82.333,2.015
23.640,84.833,1.620
26.369,87.333,1.369
28.937,89.833,1.077
31.443,92.333,0.564
33.916,94.833,0.452
36.295,97.333,0.664
38.717,99.833,0.411
41.106,102.333,0.393
43.424,104.833,-0.173
45.788,107.333,0.122
48.138,109.833,-0.034
50.466,112.333,-0.044
52.792,114.833,-0.280
55.119,117.333,-0.089
57.471,119.833,0.077
59.819,122.333,-0.051
62.188,124.833,-0.044
64.511,127.333,0.075
66.862,129.833,0.163
69.240,132.333,0.288
71.607,134.833,0.268
73.987,137.333,0.212
76.383,139.833,-0.194
78.767,142.333,0.393
81.189,144.833,0.589
83.579,147.333,0.450
85.988,149.833,0.663
88.395,152.333,0.534
90.851,154.833,0.796
93.238,157.333,0.792
95.687,159.833,1.122
98.146,162.333,1.319
100.568,164.833,1.507
103.016,167.333,1.608
105.477,169.833,1.615
107.896,172.333,2.136
110.361,174.833,2.495
112.785,177.333,2.964
115.250,179.833,3.033
117.719,182.333,3.339
120.132,184.833,3.782
122.619,187.333,4.230
125.055,189.833,4.308
127.541,192.333,5.173
129.966,194.833,5.589
132.434,197.333,6.264
134.922,199.833,6.888
137.351,202.333,7.367
139.823,204.833,8.262
142.291,207.333,8.591
144.761,209.833,9.574
147.241,212.333,9.954
149.688,214.833,10.758
152.153,217.333,11.247
154.620,219.833,12.077
157.116,222.333,12.725
159.611,224.833,13.187
162.084,227.333,13.304
164.569,229.833,13.798
167.045,232.333,13.950
169.542,234.833,13.748
172.021,237.333,14.164
174.485,239.833,14.053
176.985,242.333,14.315
179.476,244.833,14.501
181.917,247.333,14.675
184.410,249.833,15.340
186.899,252.333,15.815
189.378,254.833,16.310
191.884,257.333,16.919
194.363,259.833,17.877
196.855,262.333,18.321
199.344,264.833,19.821
201.842,267.333,20.323
204.376,269.833,21.263
206.839,272.333,22.252
209.356,274.833,23.631
211.831,277.333,24.475
214.329,279.833,25.825
216.807,282.333,27.141
219.306,284.833,28.638
221.837,287.333,30.534
224.306,289.833,31.669
226.788,292.333,33.557
229.275,294.833,35.216
231.772,297.333,36.628
234.274,299.833,38.736
236.783,302.333,40.068
239.291,304.833,42.180
241.758,307.333,44.500
244.258,309.833,45.717
246.783,312.333,47.919
249.263,314.833,49.857
251.766,317.333,51.763
254.282,319.833,54.004
256.765,322.333,56.362
259.257,324.833,58.845
261.727,327.333,61.283
264.227,329.833,64.117
266.720,332.333,66.849
269.231,334.833,70.253
271.748,337.333,73.109
274.244,339.833,76.047
276.740,342.333,78.714
279.231,344.833,81.185
281.730,347.333,83.636
284.241,349.833,85.051
286.746,352.333,87.278
289.247,354.833,89.293
291.746,357.333,90.279
294.238,359.833,92.475
296.741,362.333,94.641
299.229,364.833,97.227
301.702,367.333,100.280
304.206,369.833,103.874
306.704,372.333,108.229
309.228,374.833,113.249
311.731,377.333,118.462
314.250,379.833,124.171
316.718,382.333,129.822
319.256,384.833,135.069
321.747,387.333,139.397
324.269,389.833,142.473
326.749,392.333,143.501
329.283,394.833,141.560
331.784,397.333,136.206
334.287,399.833,127.035
336.752,402.333,114.842
339.267,404.833,98.778
341.749,407.333,81.412
344.225,409.833,64.130
346.681,412.333,48.614
349.173,414.833,36.004
351.619,417.333,26.714
354.113,419.833,21.163
356.582,422.333,18.211
359.081,424.833,16.736
361.561,427.333,16.765
364.042,429.833,15.725
366.547,432.333,15.191
369.085,434.833,14.623
371.586,437.333,14.114
374.065,439.833,13.236
376.595,442.333,12.852
379.081,444.833,12.484
381.581,447.333,11.764
384.044,449.833,11.028
386.572,452.333,10.988
389.089,454.833,10.214
391.583,457.333,9.561
394.040,459.833,9.054
396.572,462.333,8.878
399.080,464.833,8.048
401.589,467.333,7.526
404.115,469.833,7.146
406.592,472.333,6.904
409.127,474.833,6.555
411.618,477.333,5.843
414.136,479.833,5.192
416.668,482.333,4.862
419.181,484.833,4.583
421.654,487.333,3.942
424.173,489.833,3.684
426.659,492.333,3.521
429.183,494.833,2.914
431.700,497.333,3.054
434.210,499.833,2.444
436.681,502.333,2.379
439.209,504.833,2.477
441.740,507.333,1.856
444.233,509.833,2.012
446.730,512.333,1.704
449.231,514.833,1.292
451.735,517.333,1.387
454.232,519.833,1.266
456.752,522.333,0.860
459.242,524.833,1.434
461.747,527.333,0.822
464.243,529.833,1.218
466.746,532.333,0.083
469.243,534.833,0.540
471.760,537.333,0.898
474.229,539.833,0.565
476.740,542.333,0.791
479.256,544.833,0.326
481.763,547.333,0.616
484.272,549.833,0.330
486.764,552.333,0.414
489.270,554.833,0.480
491.789,557.333,0.346
494.277,559.833,0.212
496.790,562.333,0.132
499.273,564.833,0.001
501.756,567.333,0.067
504.273,569.833,-0.044
506.785,572.333,-0.054
509.284,574.833,0.092
511.764,577.333,-0.086
514.234,579.833,-0.152
516.737,582.333,0.309
519.276,584.833,-0.290
521.772,587.333,0.043
524.255,589.833,-0.042
526.755,592.333,0.285
529.269,594.833,-0.331
531.781,597.333,-0.456
534.285,599.833,0.129
536.775,602.333,-0.477
539.274,604.833,-0.071
541.795,607.333,-0.348
544.277,609.833,0.237
546.780,612.333,-0.501
549.281,614.833,-0.355
551.768,617.333,-0.490
554.231,619.833,-0.366
556.732,622.333,-0.472
559.267,624.833,-0.234
561.751,627.333,-0.407
564.265,629.833,-0.345
566.766,632.333,-0.469
569.255,634.833,-0.551
571.773,637.333,-0.474
574.262,639.833,-0.531
576.737,642.333,-0.195
579.271,644.833,-0.551
581.744,647.333,-0.777
584.229,649.833,-0.430
586.772,652.333,-0.389
589.245,654.833,-1.316
591.730,657.333,-0.805
594.241,659.833,-0.553
596.730,662.333,-0.804
599.227,664.833,-0.983
601.712,667.333,-0.601
604.210,669.833,-0.744
606.728,672.333,-0.399
609.243,674.833,-0.766
611.735,677.333,-0.428
614.235,679.833,-0.900
616.742,682.333,-0.879
619.227,684.833,-0.515
621.708,687.333,-0.828
624.180,689.833,-0.455
626.679,692.333,0.198
629.152,694.833,0.200
631.655,697.333,0.201
634.150,699.833,0.203
636.645,702.333,0.204
637.650,703.333,0.205

File: FZJ_MCC_N2_60K_R7.csv
Time,Temperature,HRR
0.000,75.051,-0.857
14.210,77.551,4.712
18.316,80.051,3.260
21.540,82.551,2.237
24.330,85.051,1.915
27.016,87.551,1.673
29.587,90.051,1.347
32.068,92.551,0.723
34.467,95.051,0.446
36.902,97.551,0.489
39.268,100.051,0.763
41.607,102.551,0.262
43.965,105.051,0.380
46.286,107.551,0.272
48.626,110.051,0.090
50.961,112.551,0.438
53.291,115.051,-0.189
55.623,117.551,-0.176
57.977,120.051,0.009
60.303,122.551,-0.517
62.652,125.051,0.004
65.007,127.551,-0.102
67.336,130.051,0.169
69.696,132.551,0.169
72.077,135.051,-0.130
74.470,137.551,0.181
76.845,140.051,0.561
79.200,142.551,0.329
81.623,145.051,1.075
84.059,147.551,0.796
86.445,150.051,0.784
88.863,152.551,2.086
91.282,155.051,0.952
93.699,157.551,1.551
96.144,160.051,2.483
98.575,162.551,1.283
101.015,165.051,3.049
103.450,167.551,0.950
105.889,170.051,2.865
108.331,172.551,3.762
110.766,175.051,2.633
113.233,177.551,3.562
115.649,180.051,2.686
118.098,182.551,4.786
120.581,185.051,4.749
123.020,187.551,4.234
125.481,190.051,5.945
127.899,192.551,4.847
130.393,195.051,7.246
132.846,197.551,6.473
135.285,200.051,6.987
137.757,202.551,9.086
140.229,205.051,8.467
142.709,207.551,10.743
145.158,210.051,9.918
147.659,212.551,10.399
150.080,215.051,11.934
152.557,217.551,10.699
155.030,220.051,12.474
157.486,222.551,10.657
160.015,225.051,12.167
162.477,227.551,12.274
164.961,230.051,11.546
167.452,232.551,12.363
169.951,235.051,12.065
172.388,237.551,12.622
174.901,240.051,12.682
177.360,242.551,13.168
179.880,245.051,13.350
182.320,247.551,13.862
184.798,250.051,13.829
187.301,252.551,15.044
189.769,255.051,15.595
192.245,257.551,16.126
194.716,260.051,17.415
197.215,262.551,18.268
199.721,265.051,19.944
202.231,267.551,20.504
204.731,270.051,21.798
207.212,272.551,23.110
209.690,275.051,24.242
212.212,277.551,25.777
214.676,280.051,27.475
217.211,282.551,28.600
219.677,285.051,30.709
222.191,287.551,32.537
224.679,290.051,33.089
227.184,292.551,35.540
229.673,295.051,36.904
232.147,297.551,38.592
234.626,300.051,40.515
237.150,302.551,42.362
239.643,305.051,44.082
242.122,307.551,46.166
244.616,310.051,47.630
247.137,312.551,49.873
249.638,315.051,51.790
252.102,317.551,53.816
254.622,320.051,56.230
257.129,322.551,59.019
259.608,325.051,61.329
262.132,327.551,63.777
264.590,330.051,66.734
267.109,332.551,69.525
269.629,335.051,72.358
272.101,337.551,75.539
274.604,340.051,78.344
277.078,342.551,80.408
279.587,345.051,82.729
282.100,347.551,85.093
284.586,350.051,87.421
287.084,352.551,89.238
289.615,355.051,90.937
292.095,357.551,93.159
294.570,360.051,95.596
297.101,362.551,97.203
299.561,365.051,100.918
302.061,367.551,104.058
304.564,370.051,108.037
307.091,372.551,112.453
309.571,375.051,117.703
312.095,377.551,123.055
314.609,380.051,128.590
317.128,382.551,133.289
319.609,385.051,138.340
322.113,387.551,141.415
324.603,390.051,142.615
327.134,392.551,141.698
329.658,395.051,138.121
332.138,397.551,131.188
334.622,400.051,120.499
337.066,402.551,106.919
339.624,405.051,90.281
342.050,407.551,73.108
344.579,410.051,57.283
346.991,412.551,42.951
349.553,415.051,32.000
352.011,417.551,24.685
354.461,420.051,20.237
356.937,422.551,18.204
359.414,425.051,17.088
361.990,427.551,16.336
364.395,430.051,16.126
367.023,432.551,15.537
369.514,435.051,15.375
372.059,437.551,14.374
374.579,440.051,13.629
376.989,442.551,13.775
379.534,445.051,13.056
382.052,447.551,13.017
384.513,450.051,12.331
386.975,452.551,11.459
389.501,455.051,10.848
392.036,457.551,10.549
394.564,460.051,9.744
397.048,462.551,8.764
399.582,465.051,9.761
402.072,467.551,9.074
404.552,470.051,8.000
407.051,472.551,7.174
409.586,475.051,6.977
412.073,477.551,6.328
414.557,480.051,5.903
417.173,482.551,5.692
419.585,485.051,5.415
422.174,487.551,4.855
424.731,490.051,4.391
427.224,492.551,4.047
429.737,495.051,4.270
432.249,497.551,3.653
434.723,500.051,3.562
437.226,502.551,3.498
439.794,505.051,3.113
442.256,507.551,3.192
444.780,510.051,2.593
447.241,512.551,2.163
449.762,515.051,2.654
452.224,517.551,2.037
454.770,520.051,2.236
457.267,522.551,2.356
459.747,525.051,1.909
462.262,527.551,1.675
464.752,530.051,1.622
467.225,532.551,1.717
469.744,535.051,1.267
472.261,537.551,1.435
474.690,540.051,0.927
477.237,542.551,1.180
479.718,545.051,1.234
482.193,547.551,1.113
484.698,550.051,1.148
487.189,552.551,1.009
489.695,555.051,0.744
492.202,557.551,0.903
494.667,560.051,0.988
497.195,562.551,0.702
499.676,565.051,0.817
502.155,567.551,0.499
504.677,570.051,0.588
507.142,572.551,0.717
509.646,575.051,0.522
512.145,577.551,0.677
514.629,580.051,0.335
517.121,582.551,0.815
519.643,585.051,0.671
522.129,587.551,0.343
524.632,590.051,0.526
527.123,592.551,0.446
529.652,595.051,0.612
532.119,597.551,0.370
534.645,600.051,0.636
537.126,602.551,0.568
539.644,605.051,0.547
542.112,607.551,0.457
544.564,610.051,0.297
547.084,612.551,0.873
549.596,615.051,0.601
552.090,617.551,0.328
554.575,620.051,0.487
557.049,622.551,0.539
559.498,625.051,0.102
562.066,627.551,0.469
564.553,630.051,0.601
567.015,632.551,0.363
569.555,635.051,0.079
572.020,637.551,0.323
574.506,640.051,-0.117
577.027,642.551,0.138
579.493,645.051,0.153
582.009,647.551,0.449
584.514,650.051,0.431
586.991,652.551,0.107
589.464,655.051,-0.051
591.965,657.551,0.172
594.465,660.051,-0.306
596.958,662.551,0.083
599.406,665.051,0.226
601.943,667.551,-0.070
604.444,670.051,0.047
606.938,672.551,0.074
609.413,675.051,-0.172
611.934,677.551,-0.110
614.417,680.051,-0.069
616.912,682.551,0.133
619.406,685.051,-0.172
621.882,687.551,-0.022
624.392,690.051,-0.252
626.856,692.551,-0.302
629.348,695.051,-0.303
631.856,697.551,-0.304
634.356,700.051,-0.305
636.836,702.551,-0.306
637.828,703.551,-0.307