Folder: matl-db/Wood/Calibration_Data/FZJ (part 2)

File: FZJ_MCC_N2_45K_R2.csv
Time,Temperature,HRR
0.000,75.160,-1.351
14.499,77.160,5.367
18.543,79.160,3.374
21.822,81.160,3.135
24.754,83.160,2.289
27.489,85.160,1.588
30.163,87.160,1.502
32.707,89.160,0.698
35.298,91.160,1.247
37.778,93.160,0.646
40.272,95.160,0.274
42.787,97.160,0.369
45.267,99.160,0.019
47.750,101.160,0.255
50.242,103.160,0.164
52.717,105.160,0.364
55.222,107.160,0.188
57.680,109.160,0.248
60.221,111.160,-0.658
62.678,113.160,-0.003
65.214,115.160,0.114
67.739,117.160,-0.436
70.243,119.160,0.186
72.765,121.160,-0.452
75.320,123.160,-0.104
77.852,125.160,-0.118
80.397,127.160,0.047
82.945,129.160,0.041
85.526,131.160,-0.113
88.103,133.160,0.268
90.689,135.160,-0.681
93.262,137.160,-0.501
95.850,139.160,-0.401
98.440,141.160,0.089
101.009,143.160,0.092
103.600,145.160,0.145
106.241,147.160,0.229
108.856,149.160,0.206
111.485,151.160,0.631
114.092,153.160,0.581
116.720,155.160,0.426
119.324,157.160,0.633
121.962,159.160,0.682
124.608,161.160,1.172
127.224,163.160,1.470
129.896,165.160,1.053
132.491,167.160,1.295
135.152,169.160,2.164
137.834,171.160,1.883
140.458,173.160,1.643
143.035,175.160,2.188
145.676,177.160,1.938
148.335,179.160,2.482
150.993,181.160,2.563
153.597,183.160,3.323
156.237,185.160,3.493
158.916,187.160,3.818
161.565,189.160,4.370
164.190,191.160,4.192
166.833,193.160,4.749
169.475,195.160,4.603
172.117,197.160,4.526
174.760,199.160,5.216
177.414,201.160,4.722
180.043,203.160,5.431
182.699,205.160,4.545
185.373,207.160,5.627
187.994,209.160,5.608
190.657,211.160,5.155
193.274,213.160,5.908
195.971,215.160,6.090
198.625,217.160,5.906
201.285,219.160,5.706
203.916,221.160,6.526
206.591,223.160,6.187
209.206,225.160,6.320
211.909,227.160,6.732
214.567,229.160,6.731
217.196,231.160,7.651
219.867,233.160,7.248
222.503,235.160,7.614
225.166,237.160,8.148
227.816,239.160,8.557
230.494,241.160,8.786
233.153,243.160,9.567
235.801,245.160,9.490
238.447,247.160,9.773
241.098,249.160,10.983
243.810,251.160,11.794
246.426,253.160,12.040
249.088,255.160,13.083
251.747,257.160,13.920
254.384,259.160,13.944
257.077,261.160,15.496
259.775,263.160,16.325
262.461,265.160,17.465
265.093,267.160,17.928
267.744,269.160,18.092
270.384,271.160,19.929
273.089,273.160,20.354
275.728,275.160,20.867
278.425,277.160,22.020
281.091,279.160,22.831
283.720,281.160,24.007
286.407,283.160,25.506
289.054,285.160,24.752
291.674,287.160,26.338
294.355,289.160,27.216
297.029,291.160,28.287
299.744,293.160,29.240
302.382,295.160,28.852
305.054,297.160,30.532
307.729,299.160,31.266
310.390,301.160,31.632
313.062,303.160,32.782
315.735,305.160,34.283
318.380,307.160,35.137
321.062,309.160,35.553
323.706,311.160,36.760
326.396,313.160,38.097
329.109,315.160,39.271
331.776,317.160,41.054
334.417,319.160,41.991
337.107,321.160,43.963
339.790,323.160,45.655
342.439,325.160,48.172
345.110,327.160,49.721
347.765,329.160,51.143
350.431,331.160,53.956
353.102,333.160,55.720
355.763,335.160,56.990
358.438,337.160,59.317
361.092,339.160,60.802
363.753,341.160,62.012
366.423,343.160,63.401
369.054,345.160,64.727
371.732,347.160,65.843
374.379,349.160,66.689
377.094,351.160,67.836
379.784,353.160,68.877
382.433,355.160,70.141
385.117,357.160,70.923
387.787,359.160,72.941
390.461,361.160,74.960
393.142,363.160,76.928
395.781,365.160,79.739
398.448,367.160,82.542
401.100,369.160,86.060
403.804,371.160,89.329
406.444,373.160,93.321
409.087,375.160,96.890
411.817,377.160,100.599
414.436,379.160,104.169
417.117,381.160,108.385
419.763,383.160,110.381
422.449,385.160,113.143
425.119,387.160,112.652
427.781,389.160,111.339
430.436,391.160,108.344
433.093,393.160,103.195
435.769,395.160,95.736
438.443,397.160,85.867
441.093,399.160,74.080
443.741,401.160,62.556
446.380,403.160,50.540
449.072,405.160,39.784
451.685,407.160,30.298
454.330,409.160,23.484
457.017,411.160,18.189
459.621,413.160,15.066
462.289,415.160,12.726
465.002,417.160,11.878
467.712,419.160,12.098
470.372,421.160,11.770
473.061,423.160,11.138
475.703,425.160,11.411
478.349,427.160,10.479
481.058,429.160,12.280
483.727,431.160,10.743
486.424,433.160,10.288
489.108,435.160,10.423
491.783,437.160,9.498
494.429,439.160,9.485
497.099,441.160,9.467
499.756,443.160,9.229
502.433,445.160,9.274
505.141,447.160,7.863
507.743,449.160,8.728
510.422,451.160,8.114
513.075,453.160,7.696
515.710,455.160,7.389
518.410,457.160,7.418
521.089,459.160,6.626
523.753,461.160,6.673
526.458,463.160,6.622
529.052,465.160,6.098
531.730,467.160,5.736
534.397,469.160,4.913
537.074,471.160,5.154
539.745,473.160,5.002
542.404,475.160,4.886
545.079,477.160,4.472
547.790,479.160,3.797
550.423,481.160,4.433
553.115,483.160,3.001
555.801,485.160,3.289
558.470,487.160,2.873
561.110,489.160,3.164
563.770,491.160,2.147
566.428,493.160,2.128
569.141,495.160,2.320
571.807,497.160,2.442
574.464,499.160,1.829
577.103,501.160,1.777
579.748,503.160,1.610
582.432,505.160,1.330
585.088,507.160,1.402
587.816,509.160,1.349
590.451,511.160,1.175
593.076,513.160,1.005
595.745,515.160,0.772
598.428,517.160,0.481
601.093,519.160,0.692
603.764,521.160,0.721
606.449,523.160,0.525
609.112,525.160,0.514
611.745,527.160,0.203
614.408,529.160,0.482
617.099,531.160,0.313
619.723,533.160,0.272
622.446,535.160,0.215
625.095,537.160,0.562
627.776,539.160,-0.445
630.422,541.160,0.527
633.083,543.160,0.267
635.738,545.160,0.032
638.397,547.160,-0.447
641.061,549.160,-0.141
643.734,551.160,0.160
646.408,553.160,-0.174
649.084,555.160,-0.342
651.749,557.160,-0.070
654.459,559.160,-0.012
657.098,561.160,-0.483
659.698,563.160,-0.022
662.375,565.160,0.103
665.105,567.160,0.220
667.745,569.160,-0.581
670.437,571.160,0.440
673.094,573.160,-0.374
675.765,575.160,0.253
678.399,577.160,0.025
681.077,579.160,0.284
683.757,581.160,-0.210
686.438,583.160,-0.219
689.109,585.160,0.416
691.828,587.160,-0.017
694.479,589.160,0.135
697.128,591.160,-0.235
699.795,593.160,1.084
702.520,595.160,1.087
705.207,597.160,1.089
707.832,599.160,1.092
710.532,601.160,1.095
712.468,602.660,1.097

File: FZJ_MCC_N2_60K_R1.csv
Time (s),Temperature (K),HRR (W/g)
0.00,348.05,-0.74
11.39,350.05,28.16
15.72,352.05,24.17
18.59,354.05,22.37
21.09,356.05,9.85
23.35,358.05,9.81
25.53,360.05,12.71
27.60,362.05,8.98
29.65,364.05,7.56
31.63,366.05,4.86
33.55,368.05,3.29
35.44,370.05,4.90
37.35,372.05,4.73
39.27,374.05,2.84
41.16,376.05,2.94
43.04,378.05,0.67
44.90,380.05,0.79
46.78,382.05,2.37
48.66,384.05,2.32
50.53,386.05,0.86
52.40,388.05,3.28
54.26,390.05,-0.20
56.15,392.05,-2.16
58.00,394.05,3.60
59.90,396.05,-0.65
61.79,398.05,-0.59
63.66,400.05,3.11
65.53,402.05,0.08
67.43,404.05,0.20
69.34,406.05,1.03
71.24,408.05,-0.34
73.14,410.05,-0.56
75.08,412.05,0.42
76.97,414.05,-1.12
78.90,416.05,-0.33
80.82,418.05,-0.22
82.75,420.05,0.91
84.69,422.05,2.63
86.61,424.05,-0.01
88.55,426.05,0.74
90.49,428.05,5.12
92.43,430.05,2.43
94.38,432.05,0.17
96.34,434.05,0.12
98.28,436.05,1.62
100.25,438.05,1.01
102.19,440.05,-1.58
104.15,442.05,2.62
106.14,444.05,3.71
108.08,446.05,1.08
110.06,448.05,1.82
111.99,450.05,2.51
113.98,452.05,0.45
115.93,454.05,-1.06
117.88,456.05,1.08
119.86,458.05,1.32
121.79,460.05,3.91
123.79,462.05,2.09
125.74,464.05,1.16
127.74,466.05,2.00
129.68,468.05,3.64
131.65,470.05,2.42
133.62,472.05,2.21
135.61,474.05,4.27
137.57,476.05,3.85
139.54,478.05,3.91
141.50,480.05,0.16
143.48,482.05,1.00
145.44,484.05,2.21
147.42,486.05,1.46
149.42,488.05,0.74
151.40,490.05,0.67
153.37,492.05,0.54
155.34,494.05,1.29
157.32,496.05,2.27
159.31,498.05,3.16
161.32,500.05,1.44
163.30,502.05,0.90
165.27,504.05,2.34
167.27,506.05,3.80
169.27,508.05,3.25
171.24,510.05,3.31
173.24,512.05,1.61
175.23,514.05,2.19
177.20,516.05,5.15
179.22,518.05,4.50
181.22,520.05,2.23
183.15,522.05,4.10
185.17,524.05,4.67
187.16,526.05,4.25
189.16,528.05,3.85
191.13,530.05,4.87
193.11,532.05,6.53
195.12,534.05,9.76
197.10,536.05,11.12
199.12,538.05,5.76
201.11,540.05,3.69
203.14,542.05,8.68
205.14,544.05,13.17
207.14,546.05,11.07
209.10,548.05,11.01
211.10,550.05,13.55
213.10,552.05,11.74
215.13,554.05,14.53
217.12,556.05,17.65
219.11,558.05,16.81
221.07,560.05,17.66
223.07,562.05,20.89
225.07,564.05,22.79
227.09,566.05,24.79
229.08,568.05,24.67
231.08,570.05,24.14
233.04,572.05,27.94
235.04,574.05,30.06
237.05,576.05,27.29
239.07,578.05,33.13
241.06,580.05,35.63
243.07,582.05,34.88
245.07,584.05,38.18
247.05,586.05,40.39
249.05,588.05,41.38
251.06,590.05,43.95
253.06,592.05,46.94
255.06,594.05,51.82
257.09,596.05,51.39
259.05,598.05,52.90
261.05,600.05,55.10
263.06,602.05,59.17
265.06,604.05,63.54
267.08,606.05,63.92
269.09,608.05,66.09
271.06,610.05,68.92
273.05,612.05,71.51
275.07,614.05,74.73
277.05,616.05,77.34
279.04,618.05,79.93
281.09,620.05,83.11
283.05,622.05,84.08
285.07,624.05,88.57
287.07,626.05,90.49
289.10,628.05,88.54
291.07,630.05,93.41
293.05,632.05,93.48
295.08,634.05,92.33
297.08,636.05,95.67
299.07,638.05,96.62
301.07,640.05,96.76
303.09,642.05,99.69
305.08,644.05,101.83
307.07,646.05,105.11
309.07,648.05,107.45
311.09,650.05,110.28
313.06,652.05,113.57
315.08,654.05,117.46
317.07,656.05,122.19
319.08,658.05,125.55
321.07,660.05,128.17
323.07,662.05,134.57
325.08,664.05,139.64
327.08,666.05,142.77
329.10,668.05,144.50
331.08,670.05,143.89
333.08,672.05,143.91
335.10,674.05,143.74
337.10,676.05,138.64
339.09,678.05,130.89
341.10,680.05,122.04
343.09,682.05,107.97
345.10,684.05,91.33
347.10,686.05,79.86
349.11,688.05,63.77
351.08,690.05,47.12
353.12,692.05,31.69
355.09,694.05,21.97
357.08,696.05,15.51
359.10,698.05,11.20
361.10,700.05,9.69
363.09,702.05,9.88
365.11,704.05,6.58
367.12,706.05,8.51
369.11,708.05,11.15
371.12,710.05,8.59
373.12,712.05,9.96
375.09,714.05,10.01
377.09,716.05,8.52
379.12,718.05,9.70
381.11,720.05,8.99
383.11,722.05,10.32
385.12,724.05,9.89
387.12,726.05,8.15
389.14,728.05,9.89
391.12,730.05,9.07
393.15,732.05,6.42
395.14,734.05,7.04
397.16,736.05,6.86
399.15,738.05,6.79
401.13,740.05,6.15
403.14,742.05,7.54
405.15,744.05,5.08
407.15,746.05,3.79
409.17,748.05,2.83
411.16,750.05,2.32
413.16,752.05,2.64
415.17,754.05,4.00
417.16,756.05,5.55
419.18,758.05,1.63
421.20,760.05,2.49
423.17,762.05,3.71
425.17,764.05,1.78
427.19,766.05,-0.57
429.19,768.05,2.66
431.19,770.05,2.33
433.22,772.05,1.07
435.23,774.05,-0.19
437.22,776.05,1.73
439.21,778.05,1.09
441.23,780.05,-0.81
443.24,782.05,0.02
445.25,784.05,1.21
447.25,786.05,-0.68
449.22,788.05,-0.32
451.24,790.05,1.26
453.22,792.05,0.15
455.23,794.05,0.40
457.28,796.05,0.07
459.25,798.05,-0.56
461.24,800.05,0.79
463.27,802.05,-0.23
465.26,804.05,0.14
467.26,806.05,3.53
469.26,808.05,-1.52
471.28,810.05,-2.55
473.27,812.05,-0.89
475.27,814.05,-1.10
477.26,816.05,-2.45
479.26,818.05,-0.23
481.27,820.05,1.54
483.28,822.05,-0.56
485.28,824.05,-0.20
487.28,826.05,0.67
489.29,828.05,-0.10
491.31,830.05,-1.41
493.33,832.05,0.57
495.31,834.05,1.34
497.31,836.05,-0.33
499.30,838.05,-0.41
501.34,840.05,0.87
503.34,842.05,-0.20
505.32,844.05,0.42
507.30,846.05,-0.53
509.31,848.05,0.09
511.31,850.05,0.08
513.27,852.05,-0.32
515.30,854.05,0.34
517.28,856.05,0.93
519.28,858.05,-1.22
521.30,860.05,0.37
523.31,862.05,1.70
525.28,864.05,9.21
527.29,866.05,9.24
529.31,868.05,9.27
531.32,870.05,9.30
533.32,872.05,9.33
535.30,874.05,9.36
537.31,876.05,9.39
537.80,876.55,9.40

File: FZJ_MCC_N2_60K_R2.csv
Time,Temperature,HRR
5.351,88.247,-26.543
14.009,90.247,13.977
17.427,92.247,8.069
20.123,94.247,6.875
22.543,96.247,5.276
24.755,98.247,5.051
26.876,100.247,3.698
28.921,102.247,3.834
30.936,104.247,2.093
32.863,106.247,1.246
34.773,108.247,1.291
36.686,110.247,2.406
38.547,112.247,1.677
40.461,114.247,1.377
42.303,116.247,0.852
44.185,118.247,-0.178
46.043,120.247,-1.439
47.871,122.247,2.406
49.724,124.247,0.809
51.588,126.247,-3.210
53.450,128.247,0.415
55.295,130.247,0.505
57.178,132.247,-0.740
59.007,134.247,-0.713
60.898,136.247,-0.573
62.789,138.247,4.618
64.674,140.247,-1.427
66.547,142.247,-2.977
68.434,144.247,1.345
70.348,146.247,3.449
72.238,148.247,-0.595
74.141,150.247,-0.914
76.039,152.247,0.867
77.940,154.247,0.442
79.888,156.247,-0.630
81.823,158.247,-0.703
83.753,160.247,-1.978
85.662,162.247,-0.663
87.600,164.247,1.552
89.550,166.247,-0.349
91.461,168.247,-0.384
93.404,170.247,0.413
95.354,172.247,1.837
97.294,174.247,1.475
99.226,176.247,1.705
101.153,178.247,0.649
103.090,180.247,0.758
105.016,182.247,1.400
107.007,184.247,2.070
108.936,186.247,1.276
110.919,188.247,-0.348
112.844,190.247,5.607
114.815,192.247,-0.779
116.762,194.247,-0.242
118.743,196.247,4.131
120.693,198.247,2.616
122.630,200.247,2.308
124.603,202.247,0.999
126.563,204.247,3.395
128.521,206.247,3.864
130.459,208.247,2.979
132.445,210.247,1.354
134.424,212.247,2.880
136.390,214.247,5.276
138.361,216.247,2.901
140.313,218.247,3.172
142.320,220.247,4.295
144.275,222.247,1.709
146.257,224.247,2.414
148.236,226.247,6.497
150.230,228.247,1.711
152.159,230.247,2.238
154.167,232.247,2.720
156.151,234.247,6.496
158.113,236.247,7.389
160.114,238.247,-1.920
162.111,240.247,2.993
164.107,242.247,8.028
166.074,244.247,1.943
168.032,246.247,2.536
170.032,248.247,6.614
172.006,250.247,3.817
173.999,252.247,5.121
175.996,254.247,2.618
177.955,256.247,5.975
179.984,258.247,5.357
181.934,260.247,8.541
183.973,262.247,7.091
185.903,264.247,7.320
187.923,266.247,9.987
189.904,268.247,14.631
191.942,270.247,11.109
193.919,272.247,12.285
195.930,274.247,12.130
197.916,276.247,12.005
199.907,278.247,16.902
201.888,280.247,17.086
203.893,282.247,14.209
205.872,284.247,20.354
207.894,286.247,19.944
209.872,288.247,23.474
211.855,290.247,21.883
213.855,292.247,21.858
215.869,294.247,27.224
217.860,296.247,27.864
219.836,298.247,28.868
221.827,300.247,29.553
223.822,302.247,32.808
225.820,304.247,34.824
227.873,306.247,35.843
229.854,308.247,38.387
231.841,310.247,38.697
233.851,312.247,41.911
235.816,314.247,45.209
237.831,316.247,47.062
239.854,318.247,51.006
241.837,320.247,51.743
243.833,322.247,52.908
245.824,324.247,55.692
247.835,326.247,60.689
249.850,328.247,63.070
251.834,330.247,64.948
253.816,332.247,68.718
255.823,334.247,69.670
257.843,336.247,72.141
259.847,338.247,77.502
261.835,340.247,77.480
263.819,342.247,82.653
265.817,344.247,83.545
267.829,346.247,87.947
269.841,348.247,91.056
271.826,350.247,89.900
273.853,352.247,92.939
275.834,354.247,96.133
277.840,356.247,99.362
279.839,358.247,98.682
281.822,360.247,96.949
283.866,362.247,102.508
285.826,364.247,103.623
287.809,366.247,104.877
289.830,368.247,107.456
291.826,370.247,111.652
293.834,372.247,113.211
295.838,374.247,114.479
297.830,376.247,117.497
299.829,378.247,120.779
301.864,380.247,127.446
303.820,382.247,132.963
305.849,384.247,134.712
307.846,386.247,137.028
309.857,388.247,144.071
311.873,390.247,148.367
313.859,392.247,149.142
315.868,394.247,151.638
317.882,396.247,155.617
319.858,398.247,151.593
321.879,400.247,146.679
323.881,402.247,142.267
325.877,404.247,130.687
327.877,406.247,118.813
329.874,408.247,103.706
331.845,410.247,85.046
333.871,412.247,69.349
335.831,414.247,57.003
337.847,416.247,41.071
339.806,418.247,27.022
341.868,420.247,22.893
343.812,422.247,16.821
345.824,424.247,13.261
347.807,426.247,13.198
349.861,428.247,11.141
351.823,430.247,8.480
353.834,432.247,10.326
355.861,434.247,12.696
357.852,436.247,11.524
359.851,438.247,10.439
361.839,440.247,10.646
363.841,442.247,11.212
365.843,444.247,10.897
367.855,446.247,10.941
369.845,448.247,10.537
371.872,450.247,8.585
373.847,452.247,8.884
375.878,454.247,11.564
377.861,456.247,9.452
379.872,458.247,10.986
381.870,460.247,9.703
383.902,462.247,6.711
385.873,464.247,7.364
387.880,466.247,7.274
389.914,468.247,5.746
391.881,470.247,7.378
393.909,472.247,8.740
395.887,474.247,5.919
397.906,476.247,5.758
399.912,478.247,4.843
401.922,480.247,6.656
403.945,482.247,5.596
405.959,484.247,4.435
407.950,486.247,5.324
409.922,488.247,2.726
411.962,490.247,3.505
413.971,492.247,4.285
415.956,494.247,5.378
417.988,496.247,0.492
419.997,498.247,5.568
422.010,500.247,4.406
424.028,502.247,-1.965
425.990,504.247,-1.988
428.027,506.247,4.790
430.064,508.247,0.902
432.024,510.247,-1.693
434.037,512.247,1.788
436.015,514.247,-0.231
438.047,516.247,1.634
440.043,518.247,2.418
442.055,520.247,0.443
444.030,522.247,0.260
446.052,524.247,-0.360
448.064,526.247,0.872
450.046,528.247,1.230
452.068,530.247,-0.030
454.038,532.247,-2.142
456.050,534.247,0.308
458.064,536.247,0.317
460.082,538.247,0.949
462.065,540.247,1.237
464.078,542.247,0.440
466.069,544.247,1.197
468.065,546.247,-1.230
470.100,548.247,0.695
472.096,550.247,1.506
474.088,552.247,-1.436
476.102,554.247,-0.869
478.112,556.247,0.042
480.111,558.247,1.234
482.097,560.247,0.491
484.104,562.247,-0.193
486.135,564.247,-0.058
488.125,566.247,-1.638
490.122,568.247,0.864
492.122,570.247,1.077
494.121,572.247,-0.790
496.118,574.247,-0.767
498.114,576.247,1.058
500.108,578.247,-1.554
502.105,580.247,-1.200
504.122,582.247,-1.431
506.102,584.247,-1.072
508.129,586.247,-0.270
510.118,588.247,-1.874
512.125,590.247,-11.302
514.128,592.247,-11.331
516.137,594.247,-11.360
518.150,596.247,-11.389
520.159,598.247,-11.419
522.164,600.247,-11.448
524.139,602.247,-11.477
525.135,603.247,-11.492

File: FZJ_MCC_N2_60K_R3.csv
Time,Temperature,HRR
0.000,74.861,-2.320
11.788,76.861,13.609
15.899,78.861,12.429
18.764,80.861,9.030
21.268,82.861,5.184
23.537,84.861,4.112
25.706,86.861,5.449
27.797,88.861,4.539
29.799,90.861,3.759
31.804,92.861,2.381
33.722,94.861,0.692
35.648,96.861,2.673
37.544,98.861,1.450
39.473,100.861,-0.552
41.337,102.861,0.552
43.236,104.861,2.060
45.108,106.861,0.064
47.000,108.861,-1.502
48.857,110.861,-1.153
50.719,112.861,-0.539
52.568,114.861,0.295
54.445,116.861,-1.431
56.299,118.861,-1.274
58.194,120.861,-0.313
60.064,122.861,0.888
61.963,124.861,0.315
63.854,126.861,-0.108
65.731,128.861,-1.616
67.619,130.861,-1.289
69.482,132.861,0.516
71.408,134.861,0.209
73.303,136.861,0.075
75.243,138.861,0.454
77.111,140.861,-0.302
79.048,142.861,0.669
80.994,144.861,-0.291
82.909,146.861,0.410
84.864,148.861,0.132
86.773,150.861,-0.596
88.713,152.861,-1.093
90.661,154.861,0.016
92.593,156.861,0.003
94.547,158.861,0.244
96.486,160.861,-1.319
98.424,162.861,-0.982
100.386,164.861,2.065
102.355,166.861,1.732
104.287,168.861,0.622
106.261,170.861,-0.524
108.239,172.861,1.337
110.201,174.861,0.987
112.145,176.861,0.746
114.123,178.861,-0.012
116.055,180.861,-1.494
118.018,182.861,1.385
119.979,184.861,6.259
121.951,186.861,0.338
123.914,188.861,-0.913
125.869,190.861,1.594
127.831,192.861,2.077
129.793,194.861,2.805
131.761,196.861,2.249
133.724,198.861,1.728
135.691,200.861,1.206
137.672,202.861,3.716
139.625,204.861,2.018
141.602,206.861,3.004
143.563,208.861,3.393
145.538,210.861,2.434
147.523,212.861,2.596
149.506,214.861,3.287
151.480,216.861,3.258
153.462,218.861,1.254
155.468,220.861,6.806
157.421,222.861,4.128
159.403,224.861,1.098
161.417,226.861,3.232
163.374,228.861,3.410
165.361,230.861,3.780
167.336,232.861,2.700
169.327,234.861,2.997
171.317,236.861,5.520
173.310,238.861,2.080
175.276,240.861,2.352
177.255,242.861,3.391
179.262,244.861,3.967
181.258,246.861,3.351
183.238,248.861,4.773
185.241,250.861,6.962
187.225,252.861,4.417
189.207,254.861,6.777
191.216,256.861,6.386
193.190,258.861,6.358
195.170,260.861,8.984
197.135,262.861,7.963
199.143,264.861,8.580
201.139,266.861,12.796
203.147,268.861,10.820
205.164,270.861,6.287
207.141,272.861,13.201
209.124,274.861,15.559
211.148,276.861,12.085
213.128,278.861,14.548
215.126,280.861,18.001
217.119,282.861,16.994
219.110,284.861,18.271
221.122,286.861,20.633
223.112,288.861,20.385
225.079,290.861,20.175
227.065,292.861,26.207
229.054,294.861,26.198
231.046,296.861,26.581
233.022,298.861,30.045
234.998,300.861,28.631
237.035,302.861,34.260
239.041,304.861,34.550
241.086,306.861,34.316
243.059,308.861,38.996
245.055,310.861,39.563
247.049,312.861,38.641
249.069,314.861,43.006
251.072,316.861,44.994
253.055,318.861,48.691
255.074,320.861,50.442
257.047,322.861,53.570
259.044,324.861,57.095
261.026,326.861,58.661
263.046,328.861,64.375
265.055,330.861,64.744
267.049,332.861,67.895
269.051,334.861,71.513
271.032,336.861,69.468
273.015,338.861,77.472
275.023,340.861,79.874
277.005,342.861,81.539
279.039,344.861,83.898
281.016,346.861,85.048
283.034,348.861,87.479
285.052,350.861,91.580
287.042,352.861,94.653
289.021,354.861,94.241
291.031,356.861,94.324
293.027,358.861,98.443
294.998,360.861,99.715
297.037,362.861,100.326
299.038,364.861,101.142
301.026,366.861,103.609
303.018,368.861,108.007
305.016,370.861,108.490
306.971,372.861,111.101
308.998,374.861,115.102
310.996,376.861,117.808
313.018,378.861,124.761
315.005,380.861,127.852
317.035,382.861,131.798
319.005,384.861,138.774
321.037,386.861,143.356
323.000,388.861,146.556
325.036,390.861,150.647
327.029,392.861,154.651
328.999,394.861,153.037
331.020,396.861,154.164
333.032,398.861,151.679
335.003,400.861,147.005
337.005,402.861,137.950
338.993,404.861,129.004
341.031,406.861,113.593
343.035,408.861,97.930
345.030,410.861,82.122
347.009,412.861,64.348
349.004,414.861,48.073
351.018,416.861,36.219
352.956,418.861,27.294
354.986,420.861,18.775
356.965,422.861,14.414
358.972,424.861,12.532
360.928,426.861,11.857
362.953,428.861,11.362
364.955,430.861,12.485
366.947,432.861,12.583
368.951,434.861,11.464
370.961,436.861,10.008
372.945,438.861,12.979
374.965,440.861,11.065
376.973,442.861,10.740
378.941,444.861,11.809
380.966,446.861,12.552
382.953,448.861,11.378
384.938,450.861,10.364
386.954,452.861,8.815
388.967,454.861,9.395
390.935,456.861,9.379
392.949,458.861,8.864
394.956,460.861,7.385
396.942,462.861,9.241
398.929,464.861,8.808
400.947,466.861,7.880
402.989,468.861,8.935
404.973,470.861,7.703
406.971,472.861,6.368
408.964,474.861,5.877
410.982,476.861,5.956
412.992,478.861,6.150
414.979,480.861,5.676
416.986,482.861,3.288
418.996,484.861,6.200
421.003,486.861,4.561
422.979,488.861,1.182
425.007,490.861,2.044
426.988,492.861,3.347
429.015,494.861,4.562
431.026,496.861,3.854
433.016,498.861,2.601
435.049,500.861,2.879
437.054,502.861,1.388
439.042,504.861,0.363
441.061,506.861,3.942
443.096,508.861,1.661
445.069,510.861,0.963
447.049,512.861,1.775
449.054,514.861,1.695
451.032,516.861,1.087
453.047,518.861,2.052
455.049,520.861,1.005
457.033,522.861,1.086
459.072,524.861,0.840
461.057,526.861,0.972
463.050,528.861,0.933
465.050,530.861,0.126
467.040,532.861,1.037
469.044,534.861,0.527
471.052,536.861,-0.227
473.046,538.861,-0.090
475.037,540.861,1.002
477.063,542.861,-1.352
479.042,544.861,0.016
481.048,546.861,1.186
483.040,548.861,0.812
485.015,550.861,0.339
487.047,552.861,-1.190
489.020,554.861,2.182
491.049,556.861,1.339
493.057,558.861,0.085
495.046,560.861,0.044
497.038,562.861,-1.358
499.045,564.861,-1.184
501.041,566.861,-0.515
503.008,568.861,0.831
505.045,570.861,0.172
507.080,572.861,-0.523
509.070,574.861,0.326
511.091,576.861,1.735
513.064,578.861,1.243
515.040,580.861,-1.681
517.047,582.861,-1.790
519.038,584.861,-0.524
521.035,586.861,0.870
523.021,588.861,-0.591
525.036,590.861,2.580
527.036,592.861,2.589
529.056,594.861,2.598
531.038,596.861,2.607
533.023,598.861,2.616
535.047,600.861,2.624
537.048,602.861,2.633
537.524,603.361,2.635