Folder: matl-db/Wood/Calibration_Data/FZJ

Note: Wood/Calibration_Data/FZJ/README.md
# Forschungszentrum Jülich (FZJ)

The data has been recorded in collaboration between the FZJ and the
Chair of Computational Civil Engineering (CCE) at the Bergische
Universität Wuppertal (BUW).

## Experimental Conditions: Microscale Combustion Calorimetry (MCC)

Mass down-scaling runs have been performed at 60 K/min, to ensure that the experiments
were conducted under the appropriate conditions. From these runs it could
be determined that a sample mass between 2 mg to 4 mg is appropriate
for the setup (sample preparation, crucible, device, purge gas, ...).
It was observed that sample masses above 4 mg would start to compress in the
crucible under their own weight, while below 2 mg the measured signal started
to weaken. To enable a strong signal for the lower heating rates,
a sample mass of 4 mg was chosen for the main measurements.
For transparency, the mass down-scaling runs are provided with the submitted data.
**They are explicitly marked in the experiment summary table in the 'Purpose' column.
Be mindful which data sets you use for your assessment!**

The baseline of the HRR data was adjusted employing a linear fit. Data points
at the beginning and the end of each experiment were selected manually, for
intervals where the HRR vs. time is nearly constant. A linear fit was
performed through points in these intervals in the temperature vs. HRR space
and subtracted from the HRR.

The data was interpolated to match a 0.5 K spacing, as requested by MaCFP.
Note that this can lead to minor inconsistencies for a few initial data points
where the temperature is not yet monotonically increasing, due to noise.

### Experiment Overview
- Sample
    - Preparation: Powdered, as provided by MaCFP
    - Initial mass: 4.01 mg ± 0.05 mg
    - Final mass: 0.57 mg ± 0.04 mg
    - Notes: None
- Crucible
    - Type: Ceramic
    - Inner diameter: 4.80 mm
    - Inner height: 2.54 mm
    - Outer diameter: 6.30 mm
    - Outer height: 3.22 mm
    - Volume: 45.96 μL
    - Mass: 183.88 mg ± 1.43 mg
- Temperature program (Pyrolyzer)
    - Heating rates, nominal (K/min): 60.0, 45.0, 30.0
    - Initial temperature: 348.13 K ± 0.18 K
    - Initial isotherm: None
    - Final temperature: 911.76 K ± 44.66 K
    - Final isotherm: None
- Pyrolyser carrier gas
    - Type: N2
    - Flow rate: 80.0 cc/min
- Combustor
    - Temperature: 1173.15 K
- Combustor carrier gas
    - Type: O2
    - Flow rate: 20.0 cc/min
- Instrument
    - Type: DEATAK MCC
    - O2 Analyser: Chemical
    - Notes: None
- Calibration
    - Type: At the beginning of each day.

| Run Label | Initial Sample Mass (mg) | Final Sample Mass (mg) | Heating Rate (K/min) | Purpose |
| :---- | :---- | :---- | :---- | :---- |
| FZJ_Wood_MCC_N2_60K_R1 | 0.98 | 0.15 | 60 | mass down-scaling |
| FZJ_Wood_MCC_N2_60K_R2 | 2.0 | 0.28 | 60 | mass down-scaling |
| FZJ_Wood_MCC_N2_60K_R3 | 1.95 | 0.26 | 60 | mass down-scaling |
| FZJ_Wood_MCC_N2_60K_R4 | 1.93 | 0.27 | 60 | mass down-scaling |
| FZJ_Wood_MCC_N2_60K_R5 | 3.97 | 0.

File: FZJ_MCC_N2_30K_R1.csv
Time,Temperature,HRR
0.500,74.818,0.732
15.939,76.818,3.529
21.100,78.818,2.211
25.348,80.818,1.313
29.387,82.818,0.555
33.207,84.818,-0.109
37.033,86.818,0.482
40.817,88.818,0.433
44.626,90.818,0.586
48.315,92.818,-0.954
52.060,94.818,0.104
55.884,96.818,0.064
59.619,98.818,-0.203
63.493,100.818,-0.286
67.308,102.818,0.130
71.095,104.818,-0.674
74.967,106.818,-0.009
78.816,108.818,0.230
82.629,110.818,-0.092
86.498,112.818,0.058
90.320,114.818,-0.111
94.166,116.818,-0.259
98.040,118.818,-0.171
101.904,120.818,0.337
105.794,122.818,-0.564
109.683,124.818,0.082
113.616,126.818,0.352
117.529,128.818,0.105
121.427,130.818,-0.250
125.319,132.818,-0.057
129.194,134.818,0.166
133.174,136.818,0.328
137.052,138.818,0.122
141.076,140.818,-0.267
144.932,142.818,0.511
148.920,144.818,0.403
152.841,146.818,0.243
156.832,148.818,0.647
160.731,150.818,0.064
164.688,152.818,0.224
168.667,154.818,0.286
172.645,156.818,0.281
176.632,158.818,0.410
180.494,160.818,0.875
184.579,162.818,0.813
188.523,164.818,1.304
192.464,166.818,1.198
196.534,168.818,1.361
200.457,170.818,1.935
204.430,172.818,1.729
208.381,174.818,1.578
212.342,176.818,2.327
216.328,178.818,2.120
220.228,180.818,2.065
224.313,182.818,2.731
228.268,184.818,2.242
232.202,186.818,2.292
236.228,188.818,2.668
240.169,190.818,2.336
244.120,192.818,2.949
248.111,194.818,2.831
252.077,196.818,3.015
256.099,198.818,3.534
259.992,200.818,3.338
264.072,202.818,3.219
267.998,204.818,3.701
271.965,206.818,3.537
275.972,208.818,4.191
279.993,210.818,4.556
283.949,212.818,3.768
287.922,214.818,3.662
291.934,216.818,4.568
295.897,218.818,4.568
299.896,220.818,4.722
303.858,222.818,4.837
307.920,224.818,4.876
311.890,226.818,5.164
315.847,228.818,5.408
319.885,230.818,6.060
323.826,232.818,5.688
327.815,234.818,6.308
331.837,236.818,7.105
335.851,238.818,6.484
339.780,240.818,7.070
343.816,242.818,7.758
347.835,244.818,8.020
351.760,246.818,7.910
355.778,248.818,8.798
359.776,250.818,9.806
363.832,252.818,9.466
367.703,254.818,10.695
371.772,256.818,10.594
375.729,258.818,11.002
379.802,260.818,12.119
383.749,262.818,12.376
387.749,264.818,12.828
391.746,266.818,13.199
395.757,268.818,14.239
399.757,270.818,14.104
403.768,272.818,15.237
407.758,274.818,14.886
411.757,276.818,16.215
415.762,278.818,14.985
419.727,280.818,17.907
423.723,282.818,17.667
427.789,284.818,17.238
431.742,286.818,19.090
435.762,288.818,19.714
439.797,290.818,18.232
443.757,292.818,20.499
447.739,294.818,20.503
451.739,296.818,20.043
455.679,298.818,22.544
459.763,300.818,22.603
463.780,302.818,21.986
467.786,304.818,23.964
471.774,306.818,24.755
475.781,308.818,24.253
479.818,310.818,26.820
483.752,312.818,27.635
487.817,314.818,27.779
491.795,316.818,30.580
495.792,318.818,30.965
499.783,320.818,32.413
503.847,322.818,33.772
507.840,324.818,35.032
511.806,326.818,36.229
515.809,328.818,37.672
519.791,330.818,38.823
523.874,332.818,39.218
527.849,334.818,41.471
531.923,336.818,41.419
535.878,338.818,42.860
539.882,340.818,43.592
543.863,342.818,44.146
547.901,344.818,45.030
551.940,346.818,45.508
555.923,348.818,46.073
559.946,350.818,47.632
563.936,352.818,48.634
567.930,354.818,50.081
571.916,356.818,51.822
575.944,358.818,53.492
579.958,360.818,55.655
583.990,362.818,57.642
588.013,364.818,60.282
592.028,366.818,62.867
596.032,368.818,64.839
599.935,370.818,67.248
604.033,372.818,70.070
608.057,374.818,72.732
612.058,376.818,73.504
616.094,378.818,74.267
620.087,380.818,74.123
624.041,382.818,72.200
628.062,384.818,68.729
632.046,386.818,64.586
636.015,388.818,57.843
640.005,390.818,50.941
644.055,392.818,42.737
648.033,394.818,34.960
651.996,396.818,27.108
656.040,398.818,21.019
659.959,400.818,15.607
663.952,402.818,12.534
668.021,404.818,9.638
671.986,406.818,9.187
676.040,408.818,7.721
679.990,410.818,7.477
683.986,412.818,6.886
687.993,414.818,6.840
692.012,416.818,6.544
696.052,418.818,6.383
700.005,420.818,6.101
703.967,422.818,6.442
708.005,424.818,5.831
712.098,426.818,5.369
716.040,428.818,5.635
720.082,430.818,5.957
724.069,432.818,4.905
728.098,434.818,5.260
732.142,436.818,4.795
736.079,438.818,4.608
740.093,440.818,5.116
744.143,442.818,4.488
748.154,444.818,4.203
752.144,446.818,3.678
756.125,448.818,3.495
760.170,450.818,3.221
764.166,452.818,3.570
768.183,454.818,3.285
772.191,456.818,3.470
776.169,458.818,2.769
780.192,460.818,2.482
784.211,462.818,2.971
788.245,464.818,2.198
792.296,466.818,2.191
796.296,468.818,1.827
800.277,470.818,1.473
804.259,472.818,1.728
808.335,474.818,1.347
812.389,476.818,1.317
816.357,478.818,1.458
820.445,480.818,1.306
824.415,482.818,1.030
828.473,484.818,0.939
832.466,486.818,1.177
836.473,488.818,0.802
840.528,490.818,0.881
844.522,492.818,0.796
848.484,494.818,0.248
852.573,496.818,0.169
856.603,498.818,0.340
860.620,500.818,0.628
864.617,502.818,0.361
868.579,504.818,-0.101
872.571,506.818,0.000
876.636,508.818,0.656
880.654,510.818,-0.083
884.609,512.818,0.737
888.643,514.818,0.141
892.646,516.818,0.465
896.698,518.818,-0.073
900.679,520.818,0.299
904.720,522.818,-0.441
908.694,524.818,-0.088
912.709,526.818,-0.153
916.753,528.818,0.450
920.674,530.818,-0.446
924.761,532.818,-0.607
928.748,534.818,0.163
932.753,536.818,-0.482
936.750,538.818,0.007
940.783,540.818,0.049
944.831,542.818,-0.990
948.808,544.818,0.048
952.899,546.818,-0.558
956.797,548.818,0.427
960.784,550.818,-0.157
964.821,552.818,-0.719
968.842,554.818,0.146
972.859,556.818,-0.388
976.908,558.818,0.003
980.845,560.818,0.081
984.906,562.818,0.032
988.830,564.818,0.273
992.852,566.818,0.001
996.847,568.818,0.156
1000.823,570.818,0.051
1004.766,572.818,-0.046
1008.761,574.818,-0.104
1012.842,576.818,-0.377
1016.757,578.818,0.492
1020.808,580.818,-0.049
1024.823,582.818,-0.372
1028.841,584.818,0.277
1032.870,586.818,0.588
1036.848,588.818,0.528
1040.830,590.818,0.216
1044.719,592.818,0.097
1048.766,594.818,0.527
1052.738,596.818,2.046
1056.673,598.818,2.053
1060.676,600.818,2.059
1062.680,601.818,2.063

File: FZJ_MCC_N2_30K_R2.csv
Time,Temperature,HRR
4.448,75.078,-9.180
17.477,77.078,3.076
22.393,79.078,1.191
26.676,81.078,1.173
30.617,83.078,0.718
34.460,85.078,-0.360
38.242,87.078,1.114
42.003,89.078,0.151
45.772,91.078,-0.348
49.538,93.078,-0.205
53.319,95.078,0.153
57.120,97.078,-0.030
60.801,99.078,0.246
64.628,101.078,-0.555
68.427,103.078,-0.243
72.235,105.078,0.435
76.091,107.078,-0.437
79.871,109.078,-0.057
83.700,111.078,-0.230
87.519,113.078,-0.450
91.330,115.078,-0.004
95.187,117.078,0.169
99.074,119.078,-0.150
103.018,121.078,0.547
106.827,123.078,0.308
110.730,125.078,0.185
114.652,127.078,-0.212
118.470,129.078,0.407
122.372,131.078,0.364
126.265,133.078,-0.177
130.204,135.078,0.130
134.153,137.078,0.608
138.069,139.078,0.487
141.970,141.078,-0.264
145.878,143.078,0.246
149.863,145.078,0.651
153.827,147.078,0.338
157.797,149.078,0.454
161.672,151.078,0.021
165.639,153.078,0.370
169.653,155.078,0.932
173.555,157.078,0.606
177.528,159.078,1.138
181.533,161.078,1.289
185.440,163.078,1.269
189.461,165.078,1.359
193.391,167.078,1.263
197.377,169.078,1.834
201.395,171.078,1.948
205.320,173.078,2.101
209.284,175.078,1.460
213.195,177.078,3.171
217.223,179.078,2.894
221.211,181.078,3.112
225.195,183.078,2.834
229.166,185.078,3.962
233.157,187.078,3.981
237.108,189.078,4.319
241.175,191.078,5.027
245.115,193.078,4.642
249.002,195.078,5.001
253.045,197.078,5.154
257.020,199.078,5.298
260.979,201.078,5.294
264.963,203.078,6.486
268.938,205.078,5.236
272.877,207.078,5.867
276.868,209.078,5.499
280.892,211.078,5.933
284.869,213.078,6.025
288.846,215.078,5.607
292.803,217.078,6.130
296.765,219.078,6.140
300.809,221.078,6.335
304.796,223.078,6.062
308.783,225.078,5.725
312.774,227.078,5.839
316.730,229.078,6.335
320.710,231.078,5.555
324.655,233.078,6.294
328.718,235.078,6.696
332.647,237.078,6.282
336.694,239.078,7.165
340.739,241.078,7.191
344.701,243.078,7.476
348.718,245.078,7.947
352.665,247.078,8.411
356.663,249.078,8.804
360.675,251.078,9.118
364.671,253.078,9.888
368.628,255.078,10.043
372.574,257.078,11.355
376.617,259.078,11.100
380.637,261.078,12.171
384.627,263.078,12.123
388.662,265.078,12.828
392.613,267.078,13.852
396.589,269.078,13.683
400.667,271.078,14.425
404.642,273.078,15.339
408.659,275.078,15.757
412.668,277.078,16.247
416.682,279.078,16.886
420.661,281.078,17.085
424.647,283.078,17.494
428.653,285.078,18.058
432.649,287.078,18.588
436.666,289.078,19.177
440.658,291.078,19.520
444.628,293.078,20.740
448.663,295.078,20.383
452.636,297.078,21.291
456.656,299.078,21.735
460.620,301.078,23.217
464.633,303.078,23.456
468.645,305.078,24.231
472.670,307.078,25.019
476.660,309.078,25.439
480.698,311.078,26.831
484.700,313.078,28.271
488.687,315.078,28.702
492.738,317.078,30.515
496.757,319.078,32.050
500.707,321.078,32.847
504.775,323.078,34.843
508.784,325.078,35.976
512.826,327.078,37.578
516.847,329.078,38.371
520.761,331.078,40.091
524.833,333.078,41.304
528.802,335.078,41.414
532.832,337.078,42.523
536.848,339.078,43.892
540.859,341.078,44.383
544.828,343.078,45.025
548.851,345.078,45.793
552.880,347.078,46.422
556.883,349.078,47.871
560.885,351.078,48.408
564.870,353.078,49.774
568.937,355.078,50.246
572.866,357.078,52.857
576.892,359.078,53.869
580.917,361.078,56.471
584.953,363.078,57.986
588.978,365.078,60.414
592.933,367.078,62.767
596.942,369.078,64.877
600.941,371.078,67.172
605.000,373.078,69.241
608.953,375.078,70.019
612.966,377.078,71.537
617.036,379.078,71.700
620.998,381.078,70.193
625.059,383.078,68.435
629.048,385.078,65.252
633.056,387.078,59.762
637.074,389.078,54.483
641.001,391.078,47.280
644.976,393.078,40.120
648.960,395.078,32.527
652.996,397.078,25.528
657.019,399.078,19.475
660.977,401.078,15.379
664.931,403.078,11.671
668.989,405.078,9.935
672.966,407.078,8.067
677.004,409.078,7.771
681.027,411.078,7.346
685.031,413.078,6.656
689.051,415.078,6.892
693.015,417.078,5.961
697.020,419.078,6.360
701.039,421.078,6.269
705.051,423.078,5.604
709.049,425.078,5.726
713.106,427.078,5.393
717.081,429.078,5.377
721.121,431.078,5.495
725.128,433.078,5.125
729.138,435.078,4.663
733.171,437.078,4.506
737.211,439.078,4.613
741.146,441.078,4.674
745.214,443.078,4.195
749.196,445.078,4.578
753.238,447.078,3.755
757.248,449.078,4.718
761.278,451.078,3.772
765.234,453.078,3.508
769.255,455.078,3.408
773.225,457.078,2.921
777.313,459.078,3.154
781.337,461.078,2.581
785.284,463.078,2.187
789.240,465.078,2.475
793.258,467.078,2.363
797.266,469.078,1.701
801.295,471.078,1.601
805.356,473.078,2.067
809.354,475.078,1.673
813.399,477.078,1.438
817.372,479.078,1.286
821.428,481.078,1.272
825.439,483.078,0.730
829.442,485.078,1.092
833.444,487.078,0.338
837.406,489.078,0.576
841.454,491.078,0.462
845.454,493.078,0.634
849.459,495.078,0.484
853.480,497.078,0.410
857.569,499.078,0.738
861.569,501.078,0.122
865.453,503.078,0.644
869.516,505.078,-0.116
873.607,507.078,-0.050
877.599,509.078,0.186
881.511,511.078,-0.664
885.490,513.078,-0.058
889.534,515.078,-0.249
893.571,517.078,-0.397
897.511,519.078,-0.299
901.573,521.078,-0.198
905.542,523.078,-0.029
909.565,525.078,-0.184
913.488,527.078,-0.184
917.529,529.078,-0.039
921.575,531.078,-0.030
925.513,533.078,0.207
929.633,535.078,-0.557
933.642,537.078,-0.345
937.602,539.078,-0.006
941.587,541.078,-0.286
945.535,543.078,-0.289
949.535,545.078,-0.002
953.545,547.078,-0.296
957.604,549.078,0.212
961.621,551.078,-0.303
965.628,553.078,-0.101
969.597,555.078,-0.241
973.645,557.078,-0.377
977.643,559.078,-0.115
981.668,561.078,-0.165
985.670,563.078,-0.282
989.542,565.078,0.256
993.604,567.078,0.116
997.581,569.078,0.110
1001.612,571.078,-0.230
1005.555,573.078,0.314
1009.586,575.078,-0.077
1013.649,577.078,-0.158
1017.571,579.078,0.299
1021.560,581.078,0.288
1025.524,583.078,0.052
1029.517,585.078,-0.309
1033.515,587.078,0.045
1037.535,589.078,0.119
1041.546,591.078,0.530
1045.497,593.078,0.134
1049.465,595.078,1.710
1053.430,597.078,1.915
1057.519,599.078,1.923
1061.467,601.078,1.930
1062.465,601.578,1.932

File: FZJ_MCC_N2_45K_R1.csv
Time (s),Temperature (K),HRR (W/g)
2.26,348.43,-3.98
14.33,350.43,4.84
18.44,352.43,3.67
21.69,354.43,2.43
24.64,356.43,2.51
27.40,358.43,1.06
30.11,360.43,1.33
32.70,362.43,0.50
35.22,364.43,0.22
37.77,366.43,1.21
40.29,368.43,0.69
42.81,370.43,-0.11
45.30,372.43,-0.15
47.75,374.43,0.38
50.28,376.43,0.14
52.76,378.43,0.08
55.23,380.43,0.09
57.71,382.43,0.51
60.24,384.43,-0.19
62.73,386.43,0.08
65.27,388.43,-0.18
67.74,390.43,-0.34
70.28,392.43,-0.10
72.80,394.43,0.12
75.34,396.43,-0.02
77.91,398.43,-0.19
80.43,400.43,-0.51
82.98,402.43,0.04
85.54,404.43,0.17
88.13,406.43,-0.39
90.69,408.43,-0.54
93.26,410.43,0.62
95.86,412.43,-0.00
98.50,414.43,-0.21
101.07,416.43,-0.20
103.64,418.43,0.04
106.28,420.43,0.34
108.90,422.43,-0.03
111.50,424.43,0.04
114.10,426.43,0.65
116.72,428.43,0.14
119.36,430.43,1.21
122.00,432.43,0.76
124.63,434.43,1.29
127.24,436.43,1.18
129.88,438.43,1.04
132.55,440.43,1.82
135.22,442.43,1.69
137.85,444.43,1.60
140.46,446.43,1.86
143.07,448.43,2.06
145.69,450.43,2.22
148.34,452.43,2.89
150.95,454.43,3.31
153.60,456.43,3.64
156.24,458.43,3.60
158.87,460.43,3.93
161.51,462.43,4.35
164.15,464.43,4.69
166.76,466.43,5.43
169.41,468.43,4.53
172.03,470.43,5.75
174.66,472.43,6.53
177.29,474.43,5.85
179.93,476.43,6.83
182.57,478.43,7.19
185.22,480.43,7.05
187.86,482.43,7.88
190.51,484.43,8.44
193.23,486.43,8.20
195.86,488.43,8.68
198.51,490.43,8.59
201.15,492.43,8.74
203.82,494.43,9.16
206.50,496.43,8.91
209.18,498.43,8.44
211.83,500.43,9.29
214.46,502.43,9.18
217.15,504.43,9.40
219.83,506.43,9.23
222.46,508.43,9.18
225.18,510.43,9.81
227.85,512.43,10.09
230.47,514.43,9.96
233.12,516.43,10.91
235.81,518.43,10.69
238.46,520.43,11.23
241.08,522.43,12.02
243.77,524.43,12.34
246.43,526.43,13.26
249.12,528.43,13.55
251.77,530.43,13.91
254.40,532.43,14.54
257.07,534.43,15.48
259.74,536.43,17.40
262.42,538.43,16.79
265.05,540.43,17.58
267.70,542.43,18.47
270.37,544.43,19.35
273.08,546.43,19.90
275.70,548.43,20.75
278.37,550.43,21.57
281.02,552.43,23.04
283.66,554.43,23.62
286.34,556.43,24.18
289.01,558.43,25.27
291.68,560.43,25.69
294.30,562.43,27.13
296.94,564.43,28.01
299.63,566.43,28.92
302.30,568.43,29.36
304.94,570.43,30.16
307.61,572.43,31.38
310.26,574.43,31.93
312.94,576.43,32.52
315.62,578.43,33.65
318.29,580.43,35.44
320.94,582.43,35.48
323.58,584.43,36.29
326.33,586.43,38.16
328.97,588.43,39.79
331.67,590.43,40.54
334.36,592.43,42.37
337.02,594.43,44.17
339.67,596.43,45.81
342.34,598.43,47.45
344.99,600.43,49.68
347.63,602.43,51.70
350.33,604.43,53.62
353.00,606.43,55.63
355.64,608.43,57.34
358.36,610.43,58.99
361.02,612.43,60.96
363.65,614.43,62.06
366.32,616.43,63.61
369.00,618.43,64.83
371.61,620.43,65.64
374.28,622.43,66.99
376.97,624.43,67.49
379.63,626.43,68.86
382.31,628.43,69.81
385.00,630.43,71.21
387.64,632.43,72.82
390.31,634.43,74.60
392.97,636.43,76.45
395.61,638.43,79.14
398.29,640.43,81.94
400.96,642.43,84.93
403.61,644.43,88.39
406.31,646.43,91.67
409.00,648.43,95.97
411.64,650.43,99.75
414.34,652.43,103.44
416.97,654.43,106.80
419.67,656.43,110.27
422.32,658.43,111.77
425.02,660.43,113.16
427.65,662.43,111.81
430.31,664.43,109.31
433.02,666.43,104.02
435.68,668.43,97.01
438.30,670.43,88.33
440.95,672.43,77.39
443.63,674.43,64.99
446.32,676.43,52.89
448.91,678.43,41.58
451.56,680.43,32.39
454.23,682.43,24.58
456.87,684.43,19.03
459.51,686.43,15.72
462.20,688.43,13.41
464.85,690.43,12.08
467.57,692.43,11.44
470.23,694.43,11.59
472.95,696.43,11.49
475.66,698.43,10.84
478.29,700.43,10.67
481.00,702.43,10.21
483.65,704.43,9.91
486.34,706.43,9.93
489.03,708.43,9.48
491.69,710.43,9.02
494.37,712.43,8.95
497.01,714.43,7.99
499.69,716.43,8.51
502.36,718.43,8.74
505.00,720.43,7.30
507.68,722.43,7.63
510.36,724.43,7.50
512.99,726.43,6.12
515.66,728.43,6.79
518.31,730.43,6.21
520.99,732.43,6.21
523.66,734.43,5.34
526.31,736.43,6.05
528.97,738.43,4.97
531.64,740.43,4.74
534.32,742.43,4.26
536.99,744.43,4.17
539.68,746.43,3.95
542.37,748.43,3.95
545.06,750.43,2.99
547.70,752.43,4.35
550.38,754.43,2.46
553.05,756.43,2.48
555.71,758.43,2.92
558.36,760.43,1.72
561.07,762.43,1.91
563.71,764.43,2.54
566.37,766.43,1.31
569.05,768.43,1.97
571.71,770.43,1.50
574.41,772.43,1.03
577.11,774.43,1.48
579.74,776.43,1.38
582.39,778.43,0.63
585.09,780.43,1.45
587.76,782.43,1.01
590.43,784.43,0.94
593.07,786.43,0.78
595.76,788.43,1.06
598.44,790.43,1.30
601.09,792.43,0.60
603.72,794.43,0.82
606.41,796.43,0.59
609.09,798.43,0.33
611.76,800.43,0.16
614.43,802.43,0.81
617.08,804.43,0.37
619.80,806.43,-0.46
622.47,808.43,0.66
625.10,810.43,0.06
627.78,812.43,0.07
630.45,814.43,0.37
633.12,816.43,0.72
635.83,818.43,0.20
638.48,820.43,-0.48
641.13,822.43,0.81
643.80,824.43,0.14
646.48,826.43,-0.30
649.16,828.43,-0.58
651.80,830.43,1.09
654.45,832.43,-0.78
657.17,834.43,0.37
659.85,836.43,-0.18
662.52,838.43,0.05
665.18,840.43,0.16
667.84,842.43,-0.38
670.47,844.43,0.11
673.17,846.43,-0.08
675.86,848.43,-0.54
678.51,850.43,0.12
681.16,852.43,0.57
683.83,854.43,-0.05
686.51,856.43,-0.16
689.14,858.43,0.04
691.84,860.43,-0.15
694.48,862.43,-0.03
697.16,864.43,-0.06
699.86,866.43,1.57
702.53,868.43,1.58
705.21,870.43,1.59
707.90,872.43,1.59
710.53,874.43,1.60
711.84,875.43,1.60