Folder: matl-db/Wood/Calibration_Data/FZJ (part 4)

File: FZJ_MCC_N2_60K_R8.csv
Time (s),Temperature (K),HRR (W/g)
2.46,347.98,-3.71
12.86,349.98,3.86
16.66,351.98,2.44
19.44,353.98,3.46
21.91,355.98,1.17
24.18,357.98,0.93
26.33,359.98,1.55
28.40,361.98,0.72
30.44,363.98,0.87
32.39,365.98,0.64
34.34,367.98,0.27
36.27,369.98,1.16
38.20,371.98,0.06
40.09,373.98,0.01
41.97,375.98,0.71
43.86,377.98,0.22
45.75,379.98,0.13
47.58,381.98,-0.03
49.48,383.98,0.41
51.34,385.98,0.02
53.18,387.98,-0.11
55.06,389.98,0.08
56.94,391.98,-0.81
58.79,393.98,0.19
60.67,395.98,-0.01
62.57,397.98,-0.41
64.49,399.98,0.67
66.31,401.98,0.56
68.23,403.98,-0.19
70.08,405.98,-1.08
72.01,407.98,0.13
73.92,409.98,0.40
75.81,411.98,-0.41
77.72,413.98,0.13
79.65,415.98,-0.31
81.56,417.98,0.12
83.45,419.98,0.80
85.40,421.98,-0.24
87.33,423.98,0.80
89.27,425.98,0.10
91.22,427.98,-0.33
93.15,429.98,-0.09
95.06,431.98,0.20
97.05,433.98,0.15
98.98,435.98,0.43
100.92,437.98,-0.12
102.88,439.98,0.72
104.84,441.98,0.70
106.83,443.98,0.04
108.77,445.98,0.61
110.70,447.98,1.04
112.68,449.98,-0.42
114.63,451.98,0.20
116.58,453.98,1.57
118.55,455.98,0.16
120.50,457.98,0.30
122.49,459.98,1.37
124.44,461.98,0.22
126.42,463.98,-0.09
128.36,465.98,1.05
130.34,467.98,1.15
132.29,469.98,1.69
134.28,471.98,1.77
136.25,473.98,0.91
138.20,475.98,1.66
140.15,477.98,0.83
142.12,479.98,1.35
144.09,481.98,2.12
146.08,483.98,2.29
148.06,485.98,1.17
150.04,487.98,2.71
151.98,489.98,2.86
153.96,491.98,2.35
155.95,493.98,2.54
157.95,495.98,3.30
159.92,497.98,4.00
161.89,499.98,3.60
163.90,501.98,3.83
165.86,503.98,3.84
167.84,505.98,4.42
169.88,507.98,4.92
171.85,509.98,4.85
173.78,511.98,5.12
175.81,513.98,5.13
177.86,515.98,5.53
179.77,517.98,6.15
181.78,519.98,6.76
183.74,521.98,6.76
185.74,523.98,6.92
187.73,525.98,7.83
189.73,527.98,8.41
191.72,529.98,8.91
193.70,531.98,9.47
195.66,533.98,9.99
197.68,535.98,11.88
199.73,537.98,11.78
201.75,539.98,11.68
203.67,541.98,13.69
205.66,543.98,14.63
207.70,545.98,15.03
209.71,547.98,16.11
211.70,549.98,17.03
213.71,551.98,18.83
215.72,553.98,20.03
217.69,555.98,20.65
219.71,557.98,22.44
221.65,559.98,25.16
223.65,561.98,25.06
225.67,563.98,26.68
227.58,565.98,30.11
229.67,567.98,31.48
231.71,569.98,31.94
233.66,571.98,36.10
235.65,573.98,37.95
237.62,575.98,37.55
239.70,577.98,42.08
241.73,579.98,44.88
243.66,581.98,45.55
245.72,583.98,49.90
247.76,585.98,52.54
249.72,587.98,53.53
251.74,589.98,58.50
253.75,591.98,60.76
255.78,593.98,62.58
257.78,595.98,67.82
259.79,597.98,71.30
261.80,599.98,73.20
263.81,601.98,79.17
265.81,603.98,82.13
267.79,605.98,84.23
269.79,607.98,90.70
271.79,609.98,94.58
273.81,611.98,95.05
275.78,613.98,101.31
277.78,615.98,103.68
279.77,617.98,105.34
281.77,619.98,111.54
283.75,621.98,112.88
285.73,623.98,114.25
287.72,625.98,120.03
289.74,627.98,120.39
291.75,629.98,121.32
293.73,631.98,126.57
295.70,633.98,128.16
297.72,635.98,129.33
299.70,637.98,133.94
301.71,639.98,136.54
303.70,641.98,139.69
305.69,643.98,144.36
307.67,645.98,147.38
309.67,647.98,151.95
311.68,649.98,157.39
313.68,651.98,162.68
315.68,653.98,168.30
317.68,655.98,172.51
319.67,657.98,175.80
321.68,659.98,180.12
323.69,661.98,182.97
325.67,663.98,184.55
327.71,665.98,183.12
329.69,667.98,181.36
331.68,669.98,176.29
333.69,671.98,167.12
335.66,673.98,156.83
337.67,675.98,144.11
339.64,677.98,127.86
341.63,679.98,110.85
343.61,681.98,93.97
345.57,683.98,77.79
347.55,685.98,62.06
349.49,687.98,48.44
351.50,689.98,38.78
353.48,691.98,31.59
355.43,693.98,26.52
357.41,695.98,23.70
359.39,697.98,20.93
361.37,699.98,20.55
363.38,701.98,19.91
365.39,703.98,18.84
367.40,705.98,18.15
369.38,707.98,17.90
371.39,709.98,17.48
373.43,711.98,16.90
375.39,713.98,16.18
377.39,715.98,15.27
379.40,717.98,14.90
381.37,719.98,14.40
383.39,721.98,13.53
385.40,723.98,13.63
387.37,725.98,12.90
389.39,727.98,11.77
391.39,729.98,12.10
393.42,731.98,11.36
395.40,733.98,11.10
397.40,735.98,9.41
399.41,737.98,8.83
401.41,739.98,9.23
403.44,741.98,8.46
405.45,743.98,7.28
407.41,745.98,7.20
409.44,747.98,7.38
411.46,749.98,6.96
413.46,751.98,5.11
415.46,753.98,5.40
417.48,755.98,4.80
419.48,757.98,4.97
421.46,759.98,5.47
423.45,761.98,3.26
425.48,763.98,3.04
427.47,765.98,4.07
429.49,767.98,4.64
431.51,769.98,4.10
433.51,771.98,2.49
435.52,773.98,2.37
437.48,775.98,3.12
439.53,777.98,1.77
441.52,779.98,0.94
443.57,781.98,3.16
445.54,783.98,3.35
447.56,785.99,0.41
449.53,787.99,2.25
451.54,789.99,2.46
453.53,791.99,0.89
455.55,793.99,0.63
457.57,795.99,1.49
459.55,797.99,1.52
461.52,799.99,0.84
463.53,801.99,1.30
465.54,803.99,2.71
467.54,805.99,-0.23
469.56,807.99,0.03
471.58,809.99,1.27
473.58,811.99,1.86
475.57,813.99,1.65
477.60,815.99,-1.46
479.56,817.99,-0.50
481.56,819.99,0.46
483.57,821.99,0.84
485.54,823.99,0.58
487.55,825.99,-0.10
489.58,827.99,0.57
491.59,829.99,-0.79
493.58,831.99,0.05
495.58,833.99,-0.32
497.59,835.99,0.21
499.58,837.99,0.78
501.57,839.99,0.72
503.58,841.99,-0.65
505.60,843.99,0.32
507.57,845.99,0.01
509.58,847.99,-0.43
511.59,849.99,0.01
513.56,851.99,-0.10
515.57,853.99,0.19
517.59,855.99,0.03
519.60,857.99,-0.21
521.60,859.99,0.18
523.58,861.99,-0.14
525.59,863.99,-1.10
527.59,865.99,-1.10
529.62,867.99,-1.10
531.60,869.99,-1.11
533.59,871.99,-1.11
535.60,873.99,-1.11
537.59,875.99,-1.11
538.10,876.49,-1.12

File: FZJ_MCC_N2_60K_R9.csv
Time,Temperature,HRR
2.834,74.906,-4.042
13.008,76.906,3.058
16.779,78.906,2.412
19.543,80.906,3.139
22.038,82.906,0.809
24.263,84.906,1.176
26.472,86.906,1.155
28.515,88.906,0.460
30.539,90.906,0.230
32.539,92.906,1.133
34.480,94.906,1.137
36.421,96.906,-0.061
38.324,98.906,-0.346
40.239,100.906,0.572
42.101,102.906,-0.038
44.005,104.906,0.063
45.871,106.906,0.163
47.749,108.906,-0.020
49.624,110.906,0.324
51.483,112.906,-0.362
53.341,114.906,0.287
55.229,116.906,0.450
57.098,118.906,-0.091
58.968,120.906,-0.194
60.830,122.906,0.466
62.741,124.906,0.087
64.612,126.906,-0.213
66.480,128.906,0.009
68.345,130.906,0.356
70.235,132.906,-0.662
72.165,134.906,-0.477
74.042,136.906,0.508
75.951,138.906,0.587
77.880,140.906,0.176
79.776,142.906,0.073
81.689,144.906,-0.677
83.609,146.906,0.399
85.537,148.906,0.354
87.460,150.906,-0.559
89.387,152.906,-0.328
91.339,154.906,0.429
93.280,156.906,-0.018
95.208,158.906,0.423
97.165,160.906,-0.093
99.100,162.906,-0.513
101.070,164.906,-0.032
103.002,166.906,-0.173
104.951,168.906,0.311
106.934,170.906,0.117
108.884,172.906,0.316
110.826,174.906,0.186
112.790,176.906,0.114
114.746,178.906,0.125
116.708,180.906,-0.009
118.646,182.906,-0.283
120.619,184.906,0.979
122.578,186.906,-0.152
124.557,188.906,-0.449
126.490,190.906,0.250
128.465,192.906,0.229
130.430,194.906,-0.041
132.380,196.906,0.530
134.362,198.906,1.463
136.316,200.906,0.272
138.284,202.906,0.324
140.234,204.906,1.024
142.211,206.906,0.780
144.216,208.906,0.603
146.170,210.906,1.218
148.159,212.906,0.654
150.115,214.906,1.655
152.078,216.906,0.804
154.073,218.906,0.691
156.037,220.906,0.864
158.016,222.906,1.127
160.022,224.906,1.055
161.976,226.906,0.834
163.982,228.906,1.868
165.957,230.906,1.852
167.940,232.906,1.178
169.923,234.906,1.843
171.887,236.906,2.230
173.920,238.906,2.454
175.900,240.906,2.850
177.838,242.906,2.655
179.859,244.906,2.867
181.837,246.906,3.565
183.838,248.906,3.665
185.830,250.906,3.468
187.791,252.906,4.704
189.781,254.906,4.856
191.762,256.906,5.029
193.757,258.906,6.240
195.774,260.906,7.116
197.765,262.906,7.314
199.743,264.906,7.764
201.734,266.906,8.821
203.712,268.906,9.813
205.731,270.906,10.738
207.732,272.906,10.892
209.716,274.906,12.140
211.731,276.906,13.646
213.729,278.906,13.821
215.722,280.906,14.755
217.707,282.906,16.425
219.700,284.906,17.944
221.706,286.906,18.741
223.686,288.906,20.030
225.706,290.906,22.103
227.678,292.906,22.940
229.701,294.906,24.110
231.647,296.906,26.126
233.638,298.906,26.919
235.654,300.906,28.991
237.634,302.906,31.647
239.640,304.906,32.531
241.621,306.906,34.630
243.598,308.906,36.646
245.624,310.906,38.750
247.622,312.906,40.696
249.629,314.906,42.622
251.669,316.906,45.375
253.654,318.906,47.536
255.628,320.906,49.921
257.618,322.906,53.614
259.625,324.906,56.851
261.632,326.906,58.132
263.610,328.906,61.439
265.608,330.906,65.199
267.615,332.906,67.557
269.617,334.906,70.442
271.631,336.906,73.332
273.631,338.906,75.930
275.630,340.906,79.518
277.650,342.906,81.373
279.641,344.906,83.416
281.604,346.906,86.396
283.605,348.906,88.487
285.608,350.906,90.514
287.632,352.906,92.661
289.650,354.906,94.667
291.627,356.906,96.581
293.648,358.906,98.322
295.619,360.906,100.777
297.640,362.906,102.510
299.641,364.906,104.992
301.625,366.906,107.582
303.633,368.906,110.159
305.582,370.906,112.548
307.620,372.906,116.283
309.624,374.906,119.970
311.615,376.906,123.409
313.618,378.906,127.674
315.606,380.906,131.224
317.646,382.906,134.186
319.617,384.906,137.921
321.651,386.906,140.959
323.627,388.906,142.350
325.639,390.906,143.403
327.648,392.906,142.466
329.625,394.906,139.464
331.619,396.906,135.201
333.649,398.906,128.636
335.625,400.906,120.101
337.623,402.906,109.513
339.635,404.906,97.281
341.617,406.906,84.281
343.563,408.906,71.928
345.555,410.906,59.100
347.510,412.906,47.476
349.510,414.906,37.888
351.505,416.906,28.827
353.467,418.906,24.007
355.441,420.906,20.032
357.458,422.906,17.583
359.453,424.906,15.608
361.450,426.906,14.859
363.418,428.906,14.658
365.410,430.906,14.035
367.413,432.906,13.886
369.429,434.906,13.070
371.415,436.906,12.225
373.420,438.906,12.152
375.424,440.906,11.921
377.403,442.906,12.016
379.436,444.906,10.040
381.421,446.906,9.580
383.428,448.906,10.505
385.407,450.906,9.783
387.422,452.906,8.870
389.398,454.906,8.901
391.424,456.906,8.711
393.416,458.906,7.424
395.432,460.906,8.167
397.441,462.906,7.938
399.446,464.906,6.663
401.461,466.906,6.420
403.441,468.906,5.790
405.433,470.906,6.326
407.433,472.906,5.617
409.464,474.906,4.804
411.457,476.906,5.163
413.454,478.906,3.827
415.491,480.906,4.047
417.477,482.906,4.562
419.479,484.906,3.405
421.483,486.906,3.920
423.504,488.906,2.970
425.491,490.906,2.954
427.478,492.906,3.504
429.523,494.906,2.946
431.528,496.906,2.193
433.515,498.906,1.952
435.505,500.906,2.237
437.522,502.906,2.033
439.521,504.906,2.300
441.551,506.906,2.353
443.570,508.906,1.714
445.572,510.906,1.874
447.549,512.906,1.930
449.522,514.906,1.060
451.549,516.906,1.371
453.574,518.906,1.236
455.556,520.906,1.160
457.562,522.906,1.293
459.544,524.906,0.875
461.551,526.906,1.241
463.543,528.906,1.898
465.559,530.906,0.277
467.566,532.906,0.010
469.549,534.906,1.460
471.559,536.906,0.896
473.575,538.906,0.255
475.580,540.906,0.850
477.561,542.906,0.499
479.573,544.906,0.072
481.592,546.906,0.207
483.573,548.906,0.609
485.555,550.906,0.069
487.551,552.906,0.376
489.574,554.906,0.456
491.550,556.906,0.451
493.602,558.906,0.156
495.567,560.906,0.229
497.590,562.906,0.309
499.597,564.906,0.550
501.583,566.906,-0.284
503.592,568.906,0.747
505.575,570.906,0.137
507.580,572.906,-0.053
509.571,574.906,-0.286
511.590,576.906,-0.584
513.552,578.906,-0.258
515.527,580.906,0.322
517.531,582.906,0.748
519.529,584.906,-0.111
521.556,586.906,-0.558
523.554,588.906,0.282
525.551,590.906,-1.234
527.545,592.906,-1.238
529.551,594.906,-1.242
531.554,596.906,-1.246
533.551,598.906,-1.250
535.531,600.906,-1.254
537.565,602.906,-1.258
538.044,603.406,-1.259

File: FZJ_MCC_N2_60K_R10.csv
Time (s),Temperature (K),HRR (W/g)
0.00,347.98,-0.19
11.82,349.98,3.86
15.95,351.98,3.39
18.82,353.98,2.82
21.33,355.98,1.50
23.60,357.98,0.70
25.75,359.98,0.66
27.84,361.98,1.95
29.88,363.98,1.39
31.88,365.98,-0.24
33.84,367.98,0.34
35.77,369.98,1.01
37.67,371.98,0.35
39.60,373.98,0.14
41.51,375.98,0.19
43.39,377.98,0.17
45.25,379.98,0.20
47.14,381.98,0.45
49.00,383.98,0.21
50.89,385.98,-0.27
52.76,387.98,-0.51
54.59,389.98,-0.07
56.48,391.98,0.04
58.37,393.98,0.03
60.25,395.98,-0.08
62.11,397.98,-0.08
64.00,399.98,0.23
65.88,401.98,0.07
67.78,403.98,0.24
69.68,405.98,0.31
71.58,407.98,0.11
73.47,409.98,-0.34
75.39,411.98,-0.38
77.29,413.98,-0.41
79.21,415.98,0.32
81.15,417.98,-0.06
83.07,419.98,-0.97
85.00,421.98,-0.37
86.91,423.98,-0.05
88.84,425.98,-0.12
90.83,427.98,0.03
92.75,429.98,0.12
94.68,431.98,-0.10
96.62,433.98,-0.03
98.57,435.98,0.60
100.52,437.98,0.79
102.51,439.98,-0.36
104.44,441.98,-0.42
106.43,443.98,0.01
108.37,445.98,0.34
110.34,447.98,-0.41
112.29,449.98,0.28
114.24,451.98,0.24
116.21,453.98,0.08
118.16,455.98,0.28
120.14,457.98,-0.33
122.10,459.98,0.74
124.03,461.98,0.73
126.04,463.98,0.57
127.97,465.98,0.63
129.98,467.98,0.19
131.94,469.98,0.38
133.87,471.98,0.80
135.87,473.98,0.90
137.83,475.98,1.08
139.81,477.98,0.59
141.75,479.98,0.60
143.75,481.98,1.48
145.70,483.98,1.31
147.70,485.98,1.40
149.68,487.98,1.13
151.63,489.98,1.72
153.63,491.98,1.61
155.62,493.98,1.12
157.60,495.98,2.36
159.56,497.98,3.39
161.54,499.98,1.40
163.55,501.98,1.72
165.54,503.98,2.71
167.53,505.98,2.18
169.54,507.98,2.77
171.50,509.98,2.52
173.50,511.98,1.71
175.45,513.98,2.57
177.44,515.98,2.65
179.45,517.98,3.40
181.41,519.98,3.40
183.42,521.98,3.75
185.39,523.98,4.56
187.38,525.98,4.24
189.38,527.98,4.46
191.35,529.98,6.52
193.34,531.98,5.96
195.35,533.98,6.30
197.34,535.98,7.37
199.36,537.98,7.52
201.32,539.98,8.08
203.32,541.98,9.16
205.35,543.98,9.66
207.34,545.98,10.66
209.34,547.98,11.66
211.33,549.98,12.00
213.34,551.98,13.37
215.32,553.98,14.47
217.32,555.98,14.43
219.32,557.98,15.99
221.29,559.98,17.53
223.31,561.98,18.68
225.31,563.98,19.75
227.31,565.98,21.25
229.30,567.98,23.44
231.28,569.98,24.10
233.27,571.98,25.44
235.26,573.98,28.41
237.28,575.98,30.05
239.28,577.98,30.37
241.28,579.98,32.42
243.28,581.98,34.99
245.27,583.98,36.81
247.29,585.98,38.38
249.29,587.98,40.86
251.29,589.98,43.04
253.31,591.98,46.07
255.29,593.98,48.25
257.29,595.98,50.58
259.27,597.98,54.91
261.25,599.98,56.63
263.27,601.98,59.78
265.26,603.98,63.00
267.26,605.98,65.53
269.27,607.98,69.24
271.29,609.98,72.74
273.29,611.98,75.38
275.29,613.98,77.99
277.30,615.98,80.91
279.30,617.98,84.09
281.29,619.98,86.70
283.27,621.98,88.32
285.26,623.98,90.66
287.29,625.98,93.29
289.29,627.98,94.22
291.30,629.98,95.92
293.32,631.98,98.45
295.29,633.98,99.70
297.30,635.98,101.75
299.29,637.98,104.84
301.30,639.98,105.95
303.28,641.98,108.12
305.31,643.98,111.49
307.29,645.98,114.71
309.27,647.98,117.93
311.32,649.98,122.22
313.31,651.98,126.56
315.30,653.98,131.19
317.30,655.98,134.84
319.31,657.98,138.50
321.31,659.98,143.20
323.31,661.98,146.30
325.32,663.98,147.80
327.35,665.98,148.70
329.36,667.98,147.97
331.34,669.98,144.79
333.37,671.98,138.90
335.36,673.98,130.48
337.36,675.98,120.58
339.32,677.98,107.73
341.32,679.98,93.98
343.31,681.98,79.41
345.28,683.98,64.73
347.26,685.98,52.25
349.27,687.98,40.75
351.23,689.98,32.10
353.19,691.98,25.51
355.17,693.98,21.63
357.13,695.98,19.00
359.13,697.98,17.02
361.12,699.98,16.41
363.13,701.98,15.38
365.11,703.98,15.09
367.10,705.98,14.64
369.13,707.98,13.79
371.11,709.98,13.41
373.10,711.98,13.10
375.12,713.98,12.77
377.13,715.98,12.62
379.14,717.98,12.48
381.12,719.98,11.78
383.11,721.98,11.35
385.13,723.98,10.41
387.14,725.98,10.19
389.14,727.98,10.28
391.17,729.98,9.50
393.17,731.98,8.92
395.15,733.98,8.49
397.15,735.98,8.25
399.17,737.98,7.88
401.15,739.98,7.24
403.18,741.98,7.20
405.18,743.98,5.87
407.19,745.98,6.04
409.18,747.98,6.07
411.19,749.98,4.42
413.20,751.98,5.04
415.24,753.98,5.07
417.25,755.98,4.27
419.27,757.98,4.04
421.25,759.98,3.95
423.24,761.98,3.01
425.24,763.98,3.33
427.25,765.98,2.89
429.24,767.98,2.67
431.27,769.98,2.34
433.29,771.98,2.53
435.31,773.98,2.03
437.30,775.98,1.95
439.29,777.98,2.35
441.29,779.98,1.89
443.33,781.98,1.91
445.33,783.98,1.81
447.30,785.98,1.20
449.33,787.98,1.33
451.29,789.98,1.49
453.31,791.98,1.56
455.32,793.98,1.04
457.31,795.98,1.16
459.35,797.98,1.40
461.36,799.98,0.82
463.33,801.98,0.81
465.33,803.98,0.89
467.35,805.98,1.08
469.33,807.98,0.98
471.36,809.98,0.03
473.35,811.98,1.33
475.39,813.98,0.36
477.38,815.98,0.05
479.38,817.98,1.17
481.37,819.98,1.35
483.38,821.98,0.78
485.36,823.98,0.42
487.37,825.98,-0.66
489.35,827.98,-0.09
491.38,829.98,0.47
493.39,831.98,-0.14
495.39,833.98,-0.11
497.39,835.98,0.76
499.40,837.98,0.42
501.43,839.98,-0.06
503.39,841.98,0.60
505.39,843.98,0.42
507.40,845.98,-0.02
509.39,847.98,-0.22
511.40,849.98,-0.63
513.35,851.98,-0.24
515.38,853.98,0.07
517.37,855.98,0.27
519.40,857.98,-0.59
521.40,859.98,-0.72
523.39,861.98,0.20
525.41,863.98,-1.16
527.41,865.98,-1.17
529.41,867.98,-1.17
531.42,869.98,-1.18
533.44,871.98,-1.18
535.41,873.98,-1.19
537.41,875.98,-1.19
538.43,876.98,-1.19

File: FZJ_MCC_N2_60K_R11.csv
Time (s),Temperature (K),HRR (W/g)
2.53,348.35,-2.93
12.79,350.35,3.82
16.60,352.35,3.64
19.43,354.35,2.98
21.91,356.35,2.23
24.16,358.35,2.24
26.30,360.35,1.85
28.38,362.35,0.97
30.42,364.35,1.48
32.41,366.35,0.59
34.34,368.35,0.39
36.28,370.35,-0.01
38.21,372.35,0.45
40.10,374.35,1.17
41.98,376.35,0.18
43.89,378.35,-0.21
45.74,380.35,0.57
47.63,382.35,0.78
49.52,384.35,-0.04
51.36,386.35,-0.06
53.25,388.35,0.48
55.09,390.35,0.25
56.94,392.35,-0.12
58.83,394.35,0.07
60.71,396.35,0.19
62.63,398.35,0.18
64.51,400.35,0.07
66.40,402.35,-0.13
68.28,404.35,-0.00
70.16,406.35,-0.08
72.03,408.35,-0.19
73.93,410.35,-0.23
75.86,412.35,0.15
77.76,414.35,-0.22
79.69,416.35,-0.26
81.59,418.35,0.34
83.53,420.35,0.25
85.48,422.35,0.03
87.35,424.35,0.16
89.30,426.35,-0.57
91.25,428.35,0.28
93.20,430.35,0.58
95.15,432.35,-0.41
97.09,434.35,-0.12
99.01,436.35,0.21
100.97,438.35,-0.19
102.93,440.35,-0.28
104.89,442.35,-0.18
106.86,444.35,0.46
108.81,446.35,0.27
110.76,448.35,0.20
112.73,450.35,0.21
114.66,452.35,-0.44
116.60,454.35,0.72
118.57,456.35,0.63
120.57,458.35,0.36
122.51,460.35,0.28
124.50,462.35,0.21
126.44,464.35,1.01
128.42,466.35,1.04
130.37,468.35,-0.14
132.34,470.35,-0.02
134.28,472.35,0.93
136.28,474.35,1.20
138.25,476.35,0.83
140.19,478.35,1.09
142.14,480.35,2.08
144.13,482.35,1.12
146.12,484.35,0.92
148.12,486.35,1.98
150.08,488.35,1.97
152.08,490.35,2.13
154.05,492.35,1.99
156.01,494.35,2.17
157.99,496.35,1.26
159.98,498.35,2.38
161.96,500.35,3.26
163.95,502.35,2.30
165.93,504.35,2.41
167.92,506.35,2.83
169.90,508.35,2.68
171.88,510.35,3.14
173.86,512.35,3.47
175.87,514.35,3.55
177.84,516.35,3.54
179.82,518.35,3.03
181.81,520.35,3.69
183.80,522.35,4.17
185.82,524.35,4.65
187.81,526.35,4.67
189.77,528.35,5.81
191.77,530.35,6.10
193.74,532.35,7.07
195.75,534.35,6.72
197.73,536.35,7.88
199.74,538.35,8.72
201.73,540.35,9.57
203.72,542.35,10.15
205.73,544.35,10.64
207.72,546.35,11.92
209.71,548.35,13.01
211.71,550.35,13.83
213.70,552.35,14.48
215.71,554.35,16.49
217.70,556.35,16.75
219.69,558.35,17.66
221.68,560.35,19.04
223.69,562.35,21.14
225.69,564.35,22.32
227.69,566.35,23.68
229.69,568.35,25.75
231.65,570.35,27.11
233.67,572.35,28.40
235.67,574.35,31.12
237.66,576.35,32.78
239.66,578.35,34.03
241.65,580.35,35.42
243.67,582.35,38.57
245.67,584.35,40.57
247.67,586.35,41.83
249.66,588.35,44.91
251.66,590.35,47.13
253.67,592.35,49.63
255.64,594.35,52.84
257.65,596.35,55.63
259.67,598.35,59.08
261.67,600.35,61.04
263.64,602.35,63.61
265.66,604.35,67.42
267.64,606.35,70.12
269.65,608.35,73.08
271.69,610.35,76.13
273.67,612.35,79.24
275.66,614.35,82.69
277.67,616.35,85.09
279.69,618.35,86.24
281.63,620.35,89.26
283.67,622.35,91.73
285.67,624.35,93.03
287.67,626.35,95.57
289.69,628.35,97.88
291.68,630.35,99.20
293.66,632.35,101.35
295.66,634.35,104.10
297.67,636.35,104.96
299.66,638.35,106.95
301.69,640.35,110.20
303.67,642.35,113.00
305.68,644.35,116.08
307.70,646.35,119.68
309.69,648.35,122.16
311.70,650.35,126.48
313.73,652.35,130.64
315.71,654.35,133.72
317.71,656.35,138.21
319.67,658.35,141.86
321.69,660.35,144.13
323.68,662.35,146.78
325.73,664.35,148.04
327.72,666.35,146.85
329.74,668.35,144.87
331.73,670.35,140.27
333.75,672.35,134.00
335.73,674.35,124.83
337.73,676.35,114.53
339.71,678.35,102.81
341.69,680.35,89.26
343.68,682.35,75.55
345.64,684.35,62.41
347.60,686.35,50.28
349.61,688.35,39.39
351.59,690.35,31.10
353.56,692.35,25.31
355.53,694.35,21.58
357.50,696.35,18.71
359.48,698.35,16.82
361.48,700.35,16.43
363.48,702.35,15.73
365.47,704.35,16.10
367.47,706.35,15.03
369.48,708.35,13.74
371.50,710.35,13.33
373.49,712.35,13.88
375.50,714.35,13.32
377.50,716.35,12.42
379.50,718.35,12.03
381.51,720.35,12.10
383.52,722.35,11.33
385.49,724.35,10.54
387.50,726.35,10.63
389.51,728.35,9.71
391.51,730.35,10.20
393.54,732.35,10.21
395.53,734.35,7.47
397.53,736.35,8.06
399.55,738.35,8.64
401.54,740.35,7.10
403.58,742.35,6.96
405.56,744.35,7.14
407.56,746.35,5.94
409.56,748.35,5.34
411.60,750.35,5.34
413.57,752.35,5.45
415.62,754.35,4.39
417.61,756.35,4.22
419.62,758.35,4.33
421.64,760.35,4.03
423.65,762.35,3.73
425.61,764.35,3.31
427.62,766.35,2.73
429.64,768.35,3.15
431.66,770.35,2.58
433.68,772.35,3.17
435.67,774.35,2.90
437.68,776.35,2.15
439.70,778.35,2.26
441.72,780.35,2.69
443.74,782.35,2.14
445.73,784.35,1.37
447.74,786.35,1.67
449.71,788.35,1.61
451.72,790.35,1.89
453.72,792.35,1.98
455.73,794.35,1.89
457.75,796.35,1.16
459.74,798.35,1.05
461.77,800.35,1.39
463.73,802.35,1.57
465.73,804.35,1.53
467.74,806.35,1.01
469.75,808.35,0.76
471.76,810.35,1.37
473.74,812.35,0.16
475.76,814.35,0.83
477.76,816.35,1.23
479.76,818.35,0.27
481.75,820.35,0.70
483.80,822.35,1.60
485.79,824.35,0.73
487.79,826.35,0.45
489.80,828.35,0.69
491.80,830.35,0.20
493.81,832.35,0.82
495.81,834.35,-0.47
497.80,836.35,-0.12
499.80,838.35,1.46
501.81,840.35,-0.18
503.80,842.35,-0.95
505.82,844.35,0.58
507.81,846.35,0.30
509.80,848.35,-0.39
511.81,850.35,0.09
513.78,852.35,0.08
515.78,854.35,-0.41
517.83,856.35,-0.39
519.80,858.35,0.41
521.84,860.35,-1.01
523.83,862.35,-0.57
525.82,864.35,-1.13
527.81,866.35,-1.13
529.84,868.35,-1.14
531.83,870.35,-1.15
533.84,872.35,-1.15
535.84,874.35,-1.16
537.81,876.35,-1.17
538.33,876.85,-1.17