Folder: matl-db/Wood/Calibration_Data/IMT (part 4)

File: IMT-Mines-Ales_Wood_MCC_O2-5_60K_R2.csv
Time (s),Temperature (K),HRR (W/g)
0,410.22,0
2,411.88,-0.122
4,413.55,0.181
6,415.21,1.534
8,416.88,2.403
10,418.66,3.661
12,420.39,4.019
14,422.15,4.262
16,423.91,4.016
18,425.75,3.709
20,427.5,3.963
22,429.24,3.692
24,431.1,3.097
26,432.96,3.727
28,434.72,3.537
30,436.62,3.616
32,438.47,3.864
34,440.36,3.976
36,442.27,4.71
38,444.22,4.843
40,446.13,5.38
42,448.05,6.351
44,450.02,6.276
46,451.98,7.267
48,453.93,7.646
50,455.86,8.419
52,457.87,9.079
54,459.87,9.872
56,461.82,10.784
58,463.89,11.618
60,465.9,11.909
62,467.93,12.919
64,469.94,13.683
66,471.94,14.005
68,473.97,14.342
70,476.04,15.594
72,478.09,15.612
74,480.14,16.265
76,482.15,16.797
78,484.24,17.079
80,486.28,17.532
82,488.4,18.158
84,490.47,18.784
86,492.53,19.273
88,494.57,20.655
90,496.68,20.951
92,498.72,21.482
94,500.77,21.694
96,502.83,22.788
98,504.9,23.465
100,506.97,24.314
102,509.05,24.953
104,511.12,26.431
106,513.19,27.601
108,515.3,28.324
110,517.33,29.639
112,519.35,30.855
114,521.34,32.004
116,523.43,33.152
118,525.51,34.261
120,527.51,35.611
122,529.62,36.832
124,531.67,38.042
126,533.7,39.352
128,535.73,40.735
130,537.76,42.587
132,539.81,44.034
134,541.81,45.796
136,543.81,46.971
138,545.83,47.869
140,547.87,49.524
142,549.89,50.582
144,551.9,51.656
146,553.88,52.549
148,555.92,53.685
150,557.9,54.306
152,559.91,55.365
154,561.9,56.012
156,563.9,57.259
158,565.89,57.906
160,567.88,59.187
162,569.87,60.493
164,571.9,61.322
166,573.9,62.397
168,575.9,63.982
170,577.88,66.041
172,579.9,68.165
174,581.87,69.646
176,583.86,71.691
178,585.85,73.992
180,587.83,76.598
182,589.83,79.619
184,591.84,81.964
186,593.81,84.674
188,595.86,87.651
190,597.85,90.321
192,599.86,92.806
194,601.85,95.577
196,603.8,98.321
198,605.81,101.268
200,607.84,103.446
202,609.81,105.968
204,611.8,108.743
206,613.87,111.405
208,615.87,114.453
210,617.89,117.406
212,619.94,120.465
214,621.94,123.781
216,623.96,127.734
218,625.98,130.899
220,628,133.337
222,630.07,135.275
224,632.09,135.954
226,634.12,135.667
228,636.15,133.843
230,638.21,130.603
232,640.23,126.137
234,642.31,120.852
236,644.31,114.552
238,646.35,107.064
240,648.42,99.888
242,650.5,92.042
244,652.55,84.68
246,654.58,76.825
248,656.64,70.158
250,658.7,63.954
252,660.71,58.405
254,662.79,53.913
256,664.83,50.502
258,666.9,47.457
260,668.98,45.32
262,671,43.372
264,673,42.063
266,675.09,40.592
268,677.12,39.913
270,679.17,39.019
272,681.2,38.647
274,683.23,38.113
276,685.26,37.529
278,687.26,36.827
280,689.31,36.966
282,691.32,36.738
284,693.35,36.793
286,695.4,36.57
288,697.48,36.161
290,699.42,36.742
292,701.47,36.445
294,703.44,36.688
296,705.44,36.513
298,707.4,36.715
300,709.47,37.19
302,711.43,37.017
304,713.45,37.177
306,715.45,37.241
308,717.43,36.952
310,719.44,37.297
312,721.45,37.48
314,723.45,37.758
316,725.42,38.034
318,727.45,38.253
320,729.39,38.657
322,731.4,38.588
324,733.38,38.817
326,735.45,38.753
328,737.5,39.128
330,739.52,39.691
332,741.5,39.971
334,743.56,40.492
336,745.52,40.861
338,747.55,40.937
340,749.57,40.948
342,751.64,40.918
344,753.63,41.075
346,755.71,41.643
348,757.71,42.063
350,759.77,42.72
352,761.81,43.423
354,763.82,43.344
356,765.84,44.748
358,767.84,44.996
360,769.86,45.844
362,771.85,46.394
364,773.91,46.792
366,775.94,47.312
368,778,47.753
370,780.03,48.389
372,782.1,49.098
374,784.14,50.105
376,786.13,50.961
378,788.16,51.394
380,790.19,52.079
382,792.23,52.763
384,794.32,52.713
386,796.38,52.768
388,798.43,52.213
390,800.47,52.055
392,802.51,51.154
394,804.56,50.371
396,806.59,49.091
398,808.63,47.889
400,810.65,47.089
402,812.67,45.937
404,814.7,44.746
406,816.71,43.479
408,818.78,42.558
410,820.8,41.227
412,822.8,39.833
414,824.79,38.174
416,826.82,35.885
418,828.77,32.763
420,830.8,29.153
422,832.73,25.534
424,834.69,21.958
426,836.64,18.518
428,838.59,16.005
430,840.51,12.804
432,842.5,10.719
434,844.4,8.392
436,846.3,7.112
438,848.24,6.25
440,850.17,4.753
442,852.13,4.209
444,854.06,3.755
446,856.05,3.265
448,858.04,2.111
450,860.01,2.206
452,862.01,1.552
454,863.99,1.512
456,866.01,0.799
458,868.02,0.526
460,870.03,0.103
462,872.1,-0.443
464,874.17,-0.551
466,876.21,-0.78
468,878.23,-1.265
470,880.34,-1.266
472,882.37,-1.54
474,884.47,-1.84
476,886.51,-1.67
478,888.62,-1.821
480,890.74,-2.17
482,892.78,-2.126
484,894.88,-2.291
486,897.08,-2.554
488,899.16,-2.652
490,901.27,-3.212
492,903.38,-2.678
494,905.44,-2.766
496,907.56,-2.976
498,909.66,-3.222
500,911.81,-3.487
502,913.91,-3.595
504,916.04,-3.875
506,918.16,-3.271
508,920.25,-3.474
510,922.37,-3.003
512,924.53,-3.255
514,926.54,-3.188
516,928.68,-2.958
518,930.73,-2.938
520,932.86,-2.087
522,934.96,-1.98
524,937.1,-1.727
526,939.24,-0.683
528,941.28,0.044
530,943.46,0.389
532,945.44,0.33
534,947.57,0.618
536,949.65,1.016
538,951.74,1.714
540,953.83,1.301
542,955.9,0.856
544,958.05,0.646
546,960.1,0.325
548,962.22,0.846
550,964.33,0.791
552,966.4,0.533
554,968.48,0.254
556,970.53,0.045
558,972.63,-0.021
560,974.74,0.618
562,976.82,1.275
564,978.91,1.834
566,981.01,1.237
568,983.05,1.173
570,985.18,0.495
572,987.23,0.534
573.5,988.78,0

File: IMT-Mines-Ales_Wood_MCC_O2-10_60K_R2.csv
Time (s),Temperature (K),HRR (W/g)
0,397.45,0
2.5,399.32,-0.39
5,401.2,-0.513
7.5,403.06,-0.349
10,405.02,-0.222
12.5,407,-0.131
15,409.01,0.047
17.5,411.11,0.014
20,413.12,0.609
22.5,415.21,0.709
25,417.34,7.03
27.5,419.53,3.874
30,421.64,-3.449
32.5,423.91,-0.617
35,426.14,2.71
37.5,428.36,4.278
40,430.67,15.256
42.5,432.99,15.88
45,435.25,0.856
47.5,437.66,-5.26
50,439.99,-0.583
52.5,442.36,5.442
55,444.83,9.792
57.5,447.3,11.701
60,449.76,12.432
62.5,452.23,12.597
65,454.71,12.589
67.5,457.21,13.12
70,459.71,13.871
72.5,462.23,14.646
75,464.81,15.286
77.5,467.38,16.243
80,469.96,16.73
82.5,472.58,17.654
85,475.17,18.306
87.5,477.71,19.134
90,480.29,19.745
92.5,482.91,19.425
95,485.58,20.246
97.5,488.16,20.76
100,490.77,21.491
102.5,493.41,21.337
105,496,21.408
107.5,498.62,21.946
110,501.18,22.819
112.5,503.8,23.206
115,506.4,23.807
117.5,509.07,24.826
120,511.67,25.542
122.5,514.26,27.217
125,516.86,28.215
127.5,519.42,29.441
130,522,30.781
132.5,524.56,32.379
135,527.15,33.486
137.5,529.73,35.454
140,532.3,36.794
142.5,534.85,38.014
145,537.42,39.652
147.5,539.93,41.137
150,542.42,43.354
152.5,544.94,44.82
155,547.45,46.009
157.5,549.99,47.441
160,552.52,49.084
162.5,555.06,50.754
165,557.57,51.535
167.5,560.03,53.016
170,562.51,54.101
172.5,565,55.498
175,567.45,56.563
177.5,569.94,57.641
180,572.49,59.645
182.5,574.97,60.938
185,577.44,62.934
187.5,579.96,65.575
190,582.42,68.037
192.5,584.93,70.402
195,587.42,73.232
197.5,589.91,76.767
200,592.43,80.056
202.5,594.94,84.452
205,597.46,87.124
207.5,599.95,90.687
210,602.47,94.34
212.5,604.96,98.589
215,607.45,102.602
217.5,609.97,107.109
220,612.48,112.475
222.5,615.06,118.731
225,617.56,123.761
227.5,620.1,128.697
230,622.68,134.136
232.5,625.21,137.999
235,627.75,139.833
237.5,630.29,139.043
240,632.9,135.048
242.5,635.51,128.929
245,638.04,119.709
247.5,640.66,109.822
250,643.23,100.136
252.5,645.8,89.658
255,648.39,80.212
257.5,650.98,72.28
260,653.5,65.286
262.5,656.05,59.612
265,658.63,54.83
267.5,661.15,50.878
270,663.69,47.866
272.5,666.2,45.706
275,668.77,44.571
277.5,671.26,43.847
280,673.81,43.569
282.5,676.29,43.409
285,678.83,42.916
287.5,681.34,41.924
290,683.82,41.446
292.5,686.32,41.381
295,688.77,40.467
297.5,691.24,39.911
300,693.77,39.962
302.5,696.27,39.871
305,698.71,39.421
307.5,701.25,39.324
310,703.72,39.401
312.5,706.16,39.836
315,708.64,39.928
317.5,711.12,40.773
320,713.62,41.136
322.5,716.16,42.099
325,718.61,42.488
327.5,721.22,42.998
330,723.7,44.009
332.5,726.21,44.497
335,728.77,45.253
337.5,731.31,46.334
340,733.86,46.804
342.5,736.43,48.104
345,739,49.084
347.5,741.56,50.147
350,744.04,51.047
352.5,746.61,52.431
355,749.16,53.737
357.5,751.71,54.761
360,754.3,55.769
362.5,756.88,57.016
365,759.48,59.501
367.5,762.08,61.43
370,764.66,65.559
372.5,767.3,78.693
375,770.05,87.458
377.5,772.75,80.57
380,775.35,73.438
382.5,777.97,62.779
385,780.47,52.191
387.5,782.91,44.727
390,785.31,47.464
392.5,787.79,52.077
395,790.28,44.019
397.5,792.64,31.842
400,794.98,23.595
402.5,797.3,18.203
405,799.63,14.689
407.5,801.92,12.689
410,804.25,10.566
412.5,806.52,8.965
415,808.89,7.405
417.5,811.23,6.309
420,813.56,4.841
422.5,815.97,3.896
425,818.38,2.39
427.5,820.8,1.98
430,823.19,1.677
432.5,825.59,1.39
435,828.13,1.323
437.5,830.6,0.93
440,833.07,0.719
442.5,835.6,0.842
445,838.21,0.362
447.5,840.76,0.357
450,843.29,0.269
452.5,845.84,0.135
455,848.41,0.348
457.5,851.02,-0.519
460,853.66,-0.723
462.5,856.33,-0.332
465,858.96,-0.183
467.5,861.55,-0.468
470,864.19,-0.524
472.5,866.78,-0.692
475,869.47,-1.068
477.5,872.09,-0.785
480,874.74,-0.407
482.5,877.41,-0.208
485,880.04,-0.651
487.5,882.67,-0.627
490,885.33,-0.962
492.5,887.97,-1.811
495,890.58,-0.887
497.5,893.19,-0.854
500,895.84,-0.626
502.5,898.53,-0.6
505,901.13,-0.576
507.5,903.72,-0.667
510,906.34,-0.961
512.5,908.96,-0.912
515,911.57,-0.574
517.5,914.18,-0.604
520,916.86,-1.009
522.5,919.46,-0.321
525,922.06,-0.503
527.5,924.66,-0.742
530,927.22,-1.498
532.5,929.84,-1.375
535,932.45,-1.415
537.5,935.04,-1.864
540,937.65,-1.548
542.5,940.27,-1.147
545,942.85,-0.58
547.5,945.41,-0.089
550,947.97,-0.81
552.5,950.6,-0.697
555,953.21,-0.7
557.5,955.84,-0.975
560,958.43,-1.594
562.5,960.98,-1.638
565,963.61,-2.029
567.5,966.22,-1.566
570,968.81,-1.115
572.5,971.39,-1.459
575,974.02,-1.214
577.5,976.69,-0.63
580,979.21,-1.144
582.5,981.83,-1.004
585,984.44,-0.572
587.5,987.05,-0.426
590,989.64,-0.912
592.5,992.27,-0.487
595,994.84,-0.217
597.5,997.46,0.129
600,1000.08,0.02
602,1002.19,0

File: IMT-Mines-Ales_Wood_TGA_N2_5K_R1.csv
Time (s),Temperature (K),Weight (mg)
0,383.15,4.877
32,384.62,4.877
64,387.08,4.878
96,389.70,4.877
128,392.35,4.877
160,395.02,4.877
192,397.69,4.876
224,400.38,4.876
256,403.05,4.875
288,405.72,4.875
320,408.40,4.874
352,411.07,4.874
384,413.75,4.873
416,416.42,4.872
448,419.09,4.871
480,421.77,4.870
512,424.45,4.869
544,427.12,4.867
576,429.79,4.866
608,432.47,4.864
640,435.14,4.862
672,437.81,4.860
704,440.49,4.857
736,443.16,4.854
768,445.83,4.851
800,448.50,4.848
832,451.18,4.844
864,453.85,4.840
896,456.52,4.835
928,459.19,4.830
960,461.86,4.824
992,464.53,4.818
1024,467.20,4.812
1056,469.87,4.805
1088,472.55,4.798
1120,475.22,4.790
1152,477.89,4.782
1184,480.56,4.774
1216,483.24,4.765
1248,485.91,4.756
1280,488.58,4.747
1312,491.25,4.737
1344,493.92,4.726
1376,496.59,4.716
1408,499.27,4.705
1440,501.93,4.692
1472,504.61,4.679
1504,507.28,4.666
1536,509.95,4.651
1568,512.63,4.635
1600,515.30,4.617
1632,517.97,4.599
1664,520.65,4.579
1696,523.32,4.557
1728,525.98,4.534
1760,528.66,4.508
1792,531.33,4.483
1824,533.99,4.457
1856,536.68,4.429
1888,539.35,4.401
1920,542.01,4.371
1952,544.69,4.341
1984,547.36,4.309
2016,550.03,4.277
2048,552.70,4.244
2080,555.38,4.210
2112,558.05,4.176
2144,560.72,4.140
2176,563.40,4.102
2208,566.07,4.065
2240,568.73,4.026
2272,571.40,3.986
2304,574.07,3.943
2336,576.75,3.899
2368,579.42,3.854
2400,582.09,3.806
2432,584.76,3.756
2464,587.44,3.703
2496,590.11,3.648
2528,592.78,3.591
2560,595.46,3.530
2592,598.13,3.466
2624,600.79,3.401
2656,603.47,3.332
2688,606.14,3.260
2720,608.81,3.185
2752,611.48,3.108
2784,614.16,3.028
2816,616.83,2.946
2848,619.50,2.862
2880,622.17,2.776
2912,624.84,2.687
2944,627.52,2.597
2976,630.19,2.502
3008,632.85,2.406
3040,635.53,2.308
3072,638.20,2.207
3104,640.87,2.104
3136,643.54,2.000
3168,646.21,1.896
3200,648.89,1.792
3232,651.56,1.692
3264,654.22,1.597
3296,656.90,1.511
3328,659.58,1.434
3360,662.25,1.368
3392,664.92,1.313
3424,667.59,1.268
3456,670.26,1.234
3488,672.94,1.208
3520,675.61,1.189
3552,678.28,1.174
3584,680.95,1.162
3616,683.62,1.152
3648,686.29,1.143
3680,688.96,1.134
3712,691.64,1.126
3744,694.31,1.118
3776,696.98,1.110
3808,699.65,1.103
3840,702.32,1.095
3872,704.98,1.088
3904,707.65,1.081
3936,710.32,1.074
3968,712.99,1.067
4000,715.64,1.060
4032,718.32,1.054
4064,720.99,1.047
4096,723.65,1.041
4128,726.32,1.034
4160,728.98,1.028
4192,731.66,1.022
4224,734.32,1.016
4256,736.98,1.010
4288,739.65,1.004
4320,742.32,0.999
4352,744.98,0.994
4384,747.66,0.989
4416,750.32,0.984
4448,752.99,0.979
4480,755.66,0.975
4512,758.32,0.970
4544,760.98,0.966
4576,763.65,0.962
4608,766.32,0.958
4640,768.99,0.954
4672,771.65,0.950
4704,774.31,0.947
4736,777.00,0.943
4768,779.65,0.939
4800,782.32,0.936
4832,784.99,0.933
4864,787.65,0.929
4896,790.32,0.926
4928,792.99,0.923
4960,795.66,0.920
4992,798.32,0.917
5024,800.98,0.914
5056,803.65,0.911
5088,806.32,0.908
5120,808.99,0.905
5152,811.65,0.902
5184,814.32,0.900
5216,816.99,0.897
5248,819.65,0.894
5280,822.32,0.891
5312,824.99,0.889
5344,827.66,0.886
5376,830.32,0.883
5408,832.99,0.881
5440,835.65,0.878
5472,838.32,0.876
5504,840.99,0.873
5536,843.65,0.871
5568,846.32,0.868
5600,848.99,0.866
5632,851.66,0.863
5664,854.32,0.861
5696,856.99,0.858
5728,859.66,0.856
5760,862.32,0.854
5792,864.99,0.852
5824,867.66,0.849
5856,870.32,0.847
5888,872.99,0.845
5920,875.65,0.842
5952,878.32,0.840
5984,880.99,0.838
6016,883.66,0.836
6048,886.32,0.834
6080,888.99,0.831
6112,891.66,0.829
6144,894.32,0.827
6176,896.98,0.825
6208,899.66,0.823
6240,902.32,0.821
6272,904.99,0.819
6304,907.66,0.817
6336,910.33,0.815
6368,912.99,0.813
6400,915.66,0.812
6432,918.32,0.810
6464,920.99,0.808
6496,923.66,0.806
6528,926.32,0.804
6560,928.99,0.803
6592,931.66,0.801
6624,934.32,0.799
6656,937.00,0.798
6688,939.66,0.796
6720,942.33,0.794
6752,944.99,0.793
6784,947.65,0.791
6816,950.33,0.790
6848,952.99,0.788
6880,955.66,0.787
6912,958.33,0.785
6944,960.99,0.784
6976,963.66,0.782
7008,966.32,0.781
7040,968.99,0.780
7072,971.65,0.778
7104,974.32,0.777
7136,976.99,0.776
7168,979.66,0.775
7200,982.33,0.773
7232,984.99,0.772
7264,987.66,0.771
7296,990.33,0.769
7328,992.99,0.768
7360,995.66,0.767
7392,998.32,0.765
7424,1000.99,0.764
7456,1003.66,0.763
7488,1006.33,0.762
7520,1008.99,0.761
7552,1011.66,0.760
7584,1014.32,0.759
7616,1016.99,0.758
7648,1019.66,0.757
7680,1022.32,0.756
7712,1024.99,0.755
7744,1027.66,0.754
7776,1030.33,0.753
7808,1032.99,0.751
7840,1035.66,0.750
7872,1038.32,0.749
7904,1040.99,0.748
7936,1043.66,0.747
7968,1046.32,0.746
8000,1049.00,0.745
8032,1051.66,0.744
8064,1054.33,0.743
8096,1056.99,0.741
8128,1059.66,0.740
8160,1062.32,0.739
8192,1065.00,0.738
8224,1067.66,0.737
8256,1070.33,0.736
8288,1072.99,0.735
8320,1075.66,0.734
8352,1078.32,0.733
8384,1080.99,0.732
8416,1083.65,0.731
8448,1086.32,0.730
8480,1088.99,0.729
8512,1091.66,0.728
8544,1094.33,0.727
8576,1096.99,0.725
8608,1099.66,0.724
8640,1102.33,0.723
8672,1104.99,0.722
8704,1107.65,0.721
8736,1110.33,0.720
8768,1112.99,0.719
8800,1115.66,0.717
8832,1118.32,0.716
8864,1120.99,0.715
8896,1123.66,0.714
8928,1126.33,0.712
8960,1128.99,0.711
8992,1131.65,0.709
9024,1134.32,0.708
9056,1136.99,0.707
9088,1139.66,0.705
9120,1142.33,0.704
9152,1144.99,0.703
9184,1147.66,0.701
9216,1150.32,0.699
9248,1152.99,0.698
9280,1155.65,0.696
9312,1158.32,0.695
9344,1160.99,0.693
9376,1163.66,0.691
9408,1166.32,0.690
9440,1168.99,0.688
9472,1171.66,0.686
9479,1172.24,0.686

File: IMT-Mines-Ales_Wood_TGA_O2-20_2K_R1.csv
Time (s),Temperature (K),Weight (mg)
0,383.15,4.993
79,385.21,4.993
158,387.82,4.993
237,390.46,4.992
316,393.10,4.991
395,395.73,4.991
474,398.37,4.990
553,401.00,4.989
632,403.65,4.988
711,406.28,4.987
790,408.92,4.986
869,411.55,4.984
948,414.20,4.983
1027,416.83,4.981
1106,419.47,4.979
1185,422.10,4.976
1264,424.74,4.974
1343,427.38,4.971
1422,430.01,4.968
1501,432.64,4.965
1580,435.29,4.961
1659,437.92,4.958
1738,440.55,4.953
1817,443.19,4.949
1896,445.82,4.944
1975,448.45,4.939
2054,451.09,4.935
2133,453.73,4.929
2212,456.37,4.924
2291,459.00,4.917
2370,461.64,4.911
2449,464.27,4.904
2528,466.91,4.897
2607,469.54,4.889
2686,472.18,4.880
2765,474.82,4.871
2844,477.45,4.861
2923,480.09,4.851
3002,482.72,4.840
3081,485.36,4.828
3160,487.99,4.815
3239,490.63,4.801
3318,493.26,4.786
3397,495.90,4.770
3476,498.53,4.753
3555,501.17,4.734
3634,503.80,4.714
3713,506.44,4.692
3792,509.07,4.669
3871,511.71,4.645
3950,514.35,4.619
4029,516.99,4.592
4108,519.62,4.563
4187,522.25,4.533
4266,524.88,4.501
4345,527.52,4.467
4424,530.16,4.432
4503,532.79,4.395
4582,535.43,4.356
4661,538.06,4.315
4740,540.70,4.271
4819,543.33,4.225
4898,545.97,4.176
4977,548.60,4.123
5056,551.24,4.067
5135,553.88,4.007
5214,556.51,3.943
5293,559.14,3.874
5372,561.78,3.798
5451,564.42,3.719
5530,567.05,3.631
5609,569.69,3.537
5688,572.32,3.434
5767,574.96,3.321
5846,577.60,3.197
5925,580.23,3.057
6004,582.87,2.895
6083,585.50,2.709
6162,588.14,2.505
6241,590.77,2.302
6320,593.40,2.127
6399,596.04,1.991
6478,598.67,1.889
6557,601.31,1.810
6636,603.94,1.746
6715,606.58,1.690
6794,609.22,1.641
6873,611.85,1.597
6952,614.49,1.557
7031,617.12,1.519
7110,619.76,1.485
7189,622.40,1.452
7268,625.03,1.420
7347,627.66,1.390
7426,630.29,1.361
7505,632.93,1.334
7584,635.57,1.306
7663,638.20,1.280
7742,640.83,1.254
7821,643.47,1.228
7900,646.11,1.203
7979,648.75,1.178
8058,651.39,1.152
8137,654.01,1.128
8216,656.65,1.102
8295,659.28,1.077
8374,661.92,1.051
8453,664.57,1.024
8532,667.19,0.998
8611,669.83,0.971
8690,672.47,0.943
8769,675.10,0.914
8848,677.74,0.885
8927,680.37,0.854
9006,683.00,0.823
9085,685.64,0.791
9164,688.28,0.758
9243,690.91,0.723
9322,693.55,0.689
9401,696.19,0.653
9480,698.82,0.616
9559,701.45,0.579
9638,704.09,0.542
9717,706.71,0.503
9796,709.36,0.465
9875,711.99,0.426
9954,714.63,0.386
10033,717.25,0.346
10112,719.89,0.305
10191,722.52,0.262
10270,725.15,0.220
10349,727.78,0.177
10428,730.42,0.135
10507,733.05,0.095
10586,735.69,0.060
10665,738.32,0.035
10744,740.95,0.020
10823,743.59,0.013
10902,746.21,0.010
10981,748.86,0.009
11060,751.48,0.008
11139,754.12,0.008
11218,756.75,0.007
11297,759.38,0.007
11376,762.02,0.006
11455,764.65,0.005
11534,767.29,0.005
11613,769.92,0.004
11692,772.55,0.004
11771,775.18,0.003
11850,777.82,0.003
11929,780.45,0.003
12008,783.09,0.002
12087,785.72,0.002
12166,788.35,0.002
12245,790.98,0.002
12324,793.62,0.002
12403,796.25,0.001
12482,798.88,0.001
12561,801.52,0.001
12640,804.15,0.001
12719,806.79,0.001
12798,809.42,0.001
12877,812.05,0.001
12956,814.68,0.000
13035,817.32,0.000
13114,819.95,0.000
13193,822.58,0.000
13272,825.22,0.000
13351,827.85,0.000
13430,830.48,-0.001
13509,833.12,0.000
13588,835.76,-0.001
13667,838.38,-0.001
13746,841.02,-0.001
13825,843.65,-0.001
13904,846.28,-0.001
13983,848.92,-0.001
14062,851.55,-0.001
14141,854.19,-0.002
14220,856.82,-0.002
14299,859.45,-0.002
14378,862.09,-0.002
14457,864.73,-0.002
14536,867.35,-0.002
14615,869.99,-0.002
14694,872.62,-0.002
14773,875.25,-0.003
14852,877.89,-0.003
14931,880.52,-0.003
15010,883.15,-0.003
15089,885.79,-0.003
15168,888.42,-0.003
15247,891.06,-0.003
15326,893.69,-0.003
15405,896.32,-0.003
15484,898.95,-0.004
15563,901.59,-0.003
15642,904.22,-0.004
15721,906.86,-0.004
15800,909.49,-0.004
15879,912.12,-0.004
15958,914.76,-0.004
16037,917.39,-0.004
16116,920.02,-0.004
16195,922.66,-0.004
16274,925.29,-0.004
16353,927.92,-0.004
16432,930.56,-0.004
16511,933.19,-0.004
16590,935.83,-0.004
16669,938.46,-0.005
16748,941.09,-0.005
16827,943.73,-0.005
16906,946.35,-0.005
16985,948.99,-0.005
17064,951.63,-0.005
17143,954.26,-0.005
17222,956.89,-0.005
17301,959.52,-0.005
17380,962.15,-0.005
17459,964.79,-0.005
17538,967.42,-0.005
17617,970.06,-0.005
17696,972.69,-0.006
17775,975.32,-0.006
17854,977.95,-0.006
17933,980.59,-0.006
18012,983.23,-0.006
18091,985.85,-0.006
18170,988.49,-0.006
18249,991.12,-0.006
18328,993.76,-0.006
18407,996.38,-0.006
18486,999.02,-0.006
18565,1001.65,-0.006
18644,1004.29,-0.006
18723,1006.92,-0.006
18802,1009.56,-0.006
18881,1012.19,-0.006
18960,1014.82,-0.006
19039,1017.45,-0.006
19118,1020.09,-0.007
19197,1022.72,-0.007
19276,1025.35,-0.007
19355,1027.99,-0.007
19434,1030.63,-0.007
19513,1033.26,-0.007
19592,1035.89,-0.007
19671,1038.52,-0.007
19750,1041.16,-0.007
19829,1043.79,-0.007
19908,1046.42,-0.007
19987,1049.05,-0.007
20066,1051.68,-0.007
20145,1054.32,-0.007
20224,1056.95,-0.007
20303,1059.59,-0.007
20382,1062.22,-0.007
20461,1064.85,-0.007
20540,1067.49,-0.007
20619,1070.12,-0.008
20698,1072.75,-0.007
20777,1075.39,-0.007
20856,1078.02,-0.007
20935,1080.65,-0.007
21014,1083.29,-0.008
21093,1085.92,-0.008
21172,1088.56,-0.008
21251,1091.19,-0.008
21330,1093.82,-0.008
21409,1096.45,-0.008
21488,1099.09,-0.008
21567,1101.72,-0.008
21646,1104.36,-0.008
21725,1106.99,-0.008
21804,1109.62,-0.008
21883,1112.26,-0.008
21962,1114.89,-0.009
22041,1117.52,-0.009
22120,1120.15,-0.009
22199,1122.79,-0.009
22278,1125.43,-0.009
22357,1128.05,-0.009
22436,1130.69,-0.009
22515,1133.32,-0.009
22594,1135.96,-0.010
22673,1138.59,-0.010
22752,1141.22,-0.010
22831,1143.85,-0.010
22910,1146.49,-0.010
22989,1149.12,-0.011
23068,1151.76,-0.011
23147,1154.39,-0.011
23226,1157.03,-0.011
23305,1159.65,-0.012
23384,1162.29,-0.012
23463,1164.92,-0.012
23542,1167.55,-0.012
23621,1170.19,-0.012
23699,1172.79,-0.013