Folder: matl-db/Wood/Calibration_Data/IMT (part 5)

File: IMT-Mines-Ales_Wood_TGA_O2-20_5K_R1.csv
Time (s),Temperature (K),Weight (mg)
0,383.15,4.615
32,384.64,4.616
64,387.12,4.616
96,389.73,4.616
128,392.39,4.616
160,395.06,4.615
192,397.72,4.615
224,400.40,4.615
256,403.08,4.614
288,405.75,4.614
320,408.43,4.613
352,411.10,4.612
384,413.78,4.612
416,416.45,4.611
448,419.12,4.610
480,421.81,4.609
512,424.48,4.607
544,427.16,4.606
576,429.82,4.604
608,432.50,4.602
640,435.18,4.600
672,437.85,4.598
704,440.52,4.595
736,443.19,4.592
768,445.86,4.589
800,448.53,4.586
832,451.20,4.583
864,453.87,4.579
896,456.56,4.575
928,459.22,4.571
960,461.89,4.566
992,464.56,4.561
1024,467.23,4.556
1056,469.91,4.551
1088,472.58,4.545
1120,475.25,4.539
1152,477.92,4.532
1184,480.60,4.525
1216,483.27,4.517
1248,485.94,4.509
1280,488.61,4.500
1312,491.29,4.491
1344,493.96,4.481
1376,496.63,4.471
1408,499.30,4.459
1440,501.97,4.447
1472,504.65,4.434
1504,507.32,4.419
1536,509.99,4.404
1568,512.66,4.387
1600,515.33,4.369
1632,518.00,4.349
1664,520.67,4.328
1696,523.35,4.305
1728,526.02,4.281
1760,528.69,4.256
1792,531.36,4.229
1824,534.04,4.201
1856,536.71,4.171
1888,539.38,4.141
1920,542.05,4.108
1952,544.72,4.075
1984,547.39,4.040
2016,550.07,4.003
2048,552.74,3.964
2080,555.41,3.923
2112,558.08,3.880
2144,560.75,3.835
2176,563.43,3.787
2208,566.10,3.736
2240,568.77,3.682
2272,571.44,3.624
2304,574.11,3.561
2336,576.78,3.494
2368,579.45,3.422
2400,582.13,3.344
2432,584.80,3.260
2464,587.46,3.168
2496,590.14,3.069
2528,592.81,2.961
2560,595.49,2.839
2592,598.15,2.701
2624,600.82,2.541
2656,603.49,2.359
2688,606.17,2.167
2720,608.84,1.988
2752,611.51,1.841
2784,614.18,1.733
2816,616.86,1.657
2848,619.53,1.598
2880,622.20,1.549
2912,624.87,1.507
2944,627.55,1.469
2976,630.22,1.435
3008,632.89,1.404
3040,635.55,1.374
3072,638.23,1.346
3104,640.90,1.320
3136,643.58,1.294
3168,646.25,1.270
3200,648.92,1.246
3232,651.59,1.222
3264,654.26,1.199
3296,656.93,1.177
3328,659.60,1.155
3360,662.28,1.133
3392,664.95,1.111
3424,667.62,1.089
3456,670.30,1.067
3488,672.96,1.046
3520,675.64,1.024
3552,678.30,1.002
3584,680.98,0.980
3616,683.65,0.957
3648,686.32,0.935
3680,689.00,0.911
3712,691.67,0.887
3744,694.33,0.862
3776,697.01,0.837
3808,699.68,0.811
3840,702.35,0.784
3872,705.02,0.756
3904,707.69,0.727
3936,710.35,0.697
3968,713.01,0.666
4000,715.69,0.635
4032,718.36,0.603
4064,721.02,0.571
4096,723.69,0.538
4128,726.35,0.504
4160,729.01,0.470
4192,731.69,0.436
4224,734.34,0.400
4256,737.02,0.364
4288,739.69,0.327
4320,742.35,0.290
4352,745.02,0.251
4384,747.69,0.211
4416,750.35,0.169
4448,753.01,0.128
4480,755.68,0.092
4512,758.34,0.063
4544,761.02,0.044
4576,763.68,0.035
4608,766.36,0.031
4640,769.02,0.029
4672,771.69,0.028
4704,774.35,0.028
4736,777.01,0.027
4768,779.68,0.027
4800,782.35,0.027
4832,785.02,0.027
4864,787.69,0.026
4896,790.35,0.026
4928,793.02,0.026
4960,795.68,0.026
4992,798.35,0.025
5024,801.01,0.025
5056,803.69,0.025
5088,806.35,0.025
5120,809.01,0.025
5152,811.68,0.025
5184,814.36,0.025
5216,817.01,0.025
5248,819.69,0.025
5280,822.35,0.025
5312,825.02,0.025
5344,827.69,0.025
5376,830.35,0.025
5408,833.02,0.025
5440,835.69,0.025
5472,838.35,0.025
5504,841.02,0.025
5536,843.69,0.025
5568,846.35,0.025
5600,849.02,0.025
5632,851.69,0.025
5664,854.35,0.025
5696,857.02,0.024
5728,859.69,0.024
5760,862.36,0.024
5792,865.02,0.024
5824,867.69,0.024
5856,870.36,0.024
5888,873.02,0.024
5920,875.68,0.024
5952,878.35,0.024
5984,881.02,0.024
6016,883.69,0.024
6048,886.36,0.024
6080,889.02,0.024
6112,891.69,0.024
6144,894.35,0.024
6176,897.02,0.024
6208,899.69,0.024
6240,902.36,0.024
6272,905.02,0.023
6304,907.69,0.023
6336,910.36,0.024
6368,913.03,0.024
6400,915.69,0.024
6432,918.36,0.024
6464,921.02,0.024
6496,923.69,0.024
6528,926.35,0.024
6560,929.02,0.024
6592,931.70,0.024
6624,934.36,0.024
6656,937.03,0.024
6688,939.69,0.024
6720,942.35,0.024
6752,945.02,0.024
6784,947.69,0.024
6816,950.36,0.024
6848,953.03,0.024
6880,955.69,0.024
6912,958.36,0.024
6944,961.02,0.024
6976,963.69,0.024
7008,966.35,0.024
7040,969.02,0.024
7072,971.69,0.024
7104,974.36,0.024
7136,977.02,0.024
7168,979.69,0.024
7200,982.36,0.024
7232,985.02,0.024
7264,987.69,0.024
7296,990.35,0.024
7328,993.02,0.024
7360,995.69,0.024
7392,998.36,0.024
7424,1001.02,0.024
7456,1003.69,0.025
7488,1006.36,0.024
7520,1009.03,0.025
7552,1011.69,0.025
7584,1014.36,0.025
7616,1017.02,0.025
7648,1019.69,0.025
7680,1022.35,0.025
7712,1025.02,0.025
7744,1027.69,0.025
7776,1030.36,0.025
7808,1033.03,0.025
7840,1035.70,0.025
7872,1038.36,0.025
7904,1041.02,0.025
7936,1043.69,0.025
7968,1046.36,0.025
8000,1049.02,0.025
8032,1051.69,0.025
8064,1054.36,0.025
8096,1057.03,0.025
8128,1059.69,0.025
8160,1062.35,0.025
8192,1065.03,0.025
8224,1067.69,0.025
8256,1070.36,0.025
8288,1073.02,0.024
8320,1075.69,0.025
8352,1078.36,0.025
8384,1081.03,0.025
8416,1083.69,0.025
8448,1086.36,0.025
8480,1089.03,0.025
8512,1091.69,0.025
8544,1094.35,0.025
8576,1097.02,0.025
8608,1099.70,0.025
8640,1102.36,0.024
8672,1105.02,0.025
8704,1107.68,0.025
8736,1110.36,0.025
8768,1113.02,0.025
8800,1115.69,0.025
8832,1118.36,0.025
8864,1121.02,0.025
8896,1123.69,0.025
8928,1126.35,0.025
8960,1129.02,0.025
8992,1131.69,0.025
9024,1134.36,0.025
9056,1137.03,0.024
9088,1139.69,0.024
9120,1142.36,0.024
9152,1145.02,0.024
9184,1147.69,0.024
9216,1150.35,0.024
9248,1153.02,0.024
9280,1155.69,0.024
9312,1158.36,0.023
9344,1161.03,0.023
9376,1163.69,0.023
9408,1166.36,0.023
9440,1169.02,0.023
9472,1171.68,0.023
9479,1172.27,0.023

File: IMT-Mines-Ales_Wood_TGA_O2-20_10K_R1.csv
Time (s),Temperature (K),Weight (mg)
0,383.15,5.006
16,383.86,5.007
32,386.10,5.008
48,388.53,5.008
64,391.07,5.008
80,393.67,5.007
96,396.31,5.007
112,398.98,5.007
128,401.65,5.007
144,404.33,5.006
160,407.01,5.006
176,409.69,5.006
192,412.38,5.005
208,415.05,5.005
224,417.74,5.004
240,420.43,5.003
256,423.11,5.002
272,425.80,5.001
288,428.47,5.000
304,431.16,4.999
320,433.83,4.997
336,436.51,4.996
352,439.19,4.994
368,441.87,4.992
384,444.54,4.991
400,447.22,4.988
416,449.90,4.986
432,452.58,4.983
448,455.25,4.980
464,457.93,4.977
480,460.60,4.973
496,463.28,4.969
512,465.97,4.965
528,468.64,4.961
544,471.32,4.956
560,473.99,4.951
576,476.67,4.946
592,479.35,4.940
608,482.02,4.934
624,484.70,4.927
640,487.38,4.920
656,490.05,4.912
672,492.73,4.903
688,495.41,4.894
704,498.09,4.885
720,500.77,4.876
736,503.44,4.865
752,506.11,4.854
768,508.79,4.842
784,511.47,4.830
800,514.15,4.815
816,516.83,4.802
832,519.50,4.786
848,522.18,4.769
864,524.86,4.750
880,527.53,4.729
896,530.21,4.707
912,532.89,4.683
928,535.57,4.657
944,538.24,4.630
960,540.92,4.602
976,543.60,4.572
992,546.27,4.541
1008,548.95,4.507
1024,551.63,4.472
1040,554.31,4.435
1056,556.98,4.397
1072,559.66,4.357
1088,562.34,4.315
1104,565.01,4.272
1120,567.69,4.226
1136,570.36,4.179
1152,573.05,4.129
1168,575.72,4.077
1184,578.40,4.021
1200,581.07,3.963
1216,583.75,3.900
1232,586.43,3.833
1248,589.11,3.762
1264,591.78,3.685
1280,594.46,3.602
1296,597.13,3.512
1312,599.81,3.416
1328,602.49,3.310
1344,605.16,3.195
1360,607.84,3.066
1376,610.53,2.919
1392,613.20,2.750
1408,615.87,2.556
1424,618.55,2.342
1440,621.22,2.132
1456,623.91,1.955
1472,626.59,1.827
1488,629.26,1.738
1504,631.94,1.674
1520,634.61,1.624
1536,637.29,1.583
1552,639.97,1.546
1568,642.64,1.513
1584,645.32,1.483
1600,647.99,1.454
1616,650.67,1.427
1632,653.35,1.401
1648,656.03,1.376
1664,658.71,1.352
1680,661.38,1.328
1696,664.06,1.305
1712,666.73,1.283
1728,669.41,1.260
1744,672.08,1.239
1760,674.77,1.217
1776,677.44,1.194
1792,680.12,1.172
1808,682.79,1.150
1824,685.48,1.127
1840,688.15,1.105
1856,690.82,1.082
1872,693.51,1.059
1888,696.19,1.036
1904,698.85,1.012
1920,701.53,0.988
1936,704.20,0.963
1952,706.86,0.938
1968,709.53,0.913
1984,712.19,0.887
2000,714.86,0.859
2016,717.53,0.831
2032,720.20,0.801
2048,722.85,0.769
2064,725.53,0.737
2080,728.19,0.704
2096,730.86,0.670
2112,733.53,0.635
2128,736.19,0.600
2144,738.86,0.564
2160,741.53,0.528
2176,744.20,0.492
2192,746.86,0.454
2208,749.53,0.416
2224,752.19,0.376
2240,754.87,0.334
2256,757.53,0.290
2272,760.19,0.243
2288,762.87,0.192
2304,765.38,0.025
2320,768.18,0.022
2336,770.86,0.020
2352,773.53,0.019
2368,776.20,0.019
2384,778.87,0.018
2400,781.53,0.018
2416,784.20,0.017
2432,786.86,0.017
2448,789.53,0.017
2464,792.20,0.017
2480,794.86,0.017
2496,797.54,0.017
2512,800.20,0.017
2528,802.87,0.017
2544,805.54,0.017
2560,808.20,0.017
2576,810.87,0.017
2592,813.54,0.017
2608,816.20,0.017
2624,818.87,0.017
2640,821.54,0.017
2656,824.21,0.016
2672,826.86,0.016
2688,829.54,0.016
2704,832.21,0.016
2720,834.87,0.016
2736,837.54,0.016
2752,840.20,0.016
2768,842.87,0.016
2784,845.54,0.016
2800,848.21,0.016
2816,850.87,0.016
2832,853.53,0.016
2848,856.20,0.016
2864,858.87,0.016
2880,861.54,0.016
2896,864.20,0.016
2912,866.87,0.016
2928,869.53,0.016
2944,872.21,0.016
2960,874.87,0.016
2976,877.54,0.016
2992,880.20,0.016
3008,882.88,0.016
3024,885.54,0.016
3040,888.20,0.016
3056,890.87,0.016
3072,893.54,0.016
3088,896.20,0.015
3104,898.88,0.015
3120,901.54,0.015
3136,904.22,0.015
3152,906.87,0.015
3168,909.54,0.015
3184,912.21,0.015
3200,914.87,0.015
3216,917.54,0.015
3232,920.21,0.015
3248,922.88,0.015
3264,925.54,0.015
3280,928.21,0.015
3296,930.87,0.015
3312,933.55,0.015
3328,936.21,0.015
3344,938.88,0.015
3360,941.55,0.015
3376,944.21,0.015
3392,946.88,0.015
3408,949.55,0.015
3424,952.21,0.015
3440,954.88,0.015
3456,957.54,0.015
3472,960.21,0.015
3488,962.87,0.015
3504,965.54,0.015
3520,968.21,0.015
3536,970.88,0.015
3552,973.54,0.015
3568,976.21,0.015
3584,978.87,0.015
3600,981.54,0.015
3616,984.21,0.015
3632,986.87,0.015
3648,989.54,0.015
3664,992.21,0.015
3680,994.88,0.015
3696,997.54,0.015
3712,1000.21,0.015
3728,1002.88,0.015
3744,1005.54,0.016
3760,1008.21,0.015
3776,1010.88,0.015
3792,1013.54,0.015
3808,1016.21,0.015
3824,1018.88,0.015
3840,1021.54,0.015
3856,1024.21,0.015
3872,1026.88,0.015
3888,1029.55,0.015
3904,1032.21,0.015
3920,1034.88,0.015
3936,1037.54,0.015
3952,1040.22,0.015
3968,1042.88,0.015
3984,1045.54,0.015
4000,1048.21,0.015
4016,1050.88,0.015
4032,1053.54,0.015
4048,1056.21,0.015
4064,1058.87,0.015
4080,1061.54,0.015
4096,1064.21,0.015
4112,1066.87,0.015
4128,1069.54,0.015
4144,1072.21,0.015
4160,1074.87,0.015
4176,1077.55,0.015
4192,1080.21,0.015
4208,1082.88,0.015
4224,1085.54,0.015
4240,1088.21,0.015
4256,1090.88,0.015
4272,1093.54,0.015
4288,1096.21,0.014
4304,1098.87,0.014
4320,1101.54,0.014
4336,1104.20,0.014
4352,1106.88,0.014
4368,1109.55,0.014
4384,1112.20,0.014
4400,1114.87,0.014
4416,1117.54,0.014
4432,1120.21,0.014
4448,1122.87,0.014
4464,1125.54,0.014
4480,1128.21,0.014
4496,1130.87,0.014
4512,1133.54,0.014
4528,1136.20,0.013
4544,1138.88,0.013
4560,1141.55,0.013
4576,1144.21,0.013
4592,1146.88,0.013
4608,1149.54,0.013
4624,1152.20,0.013
4640,1154.88,0.013
4656,1157.55,0.013
4672,1160.21,0.013
4688,1162.87,0.013
4704,1165.54,0.012
4720,1168.20,0.012
4736,1170.87,0.012
4739,1171.37,0.012

File: IMT_Wood_Cone_25kW_hor_R1.csv
Time (s),Mass (g),HRR (kW/m2)
0,103.20,3.09
10,102.59,1.75
20,102.40,0.32
30,102.30,-1.29
40,102.30,-0.45
50,102.20,1.05
60,102.10,-0.14
70,102.00,0.61
80,101.81,0.48
90,101.73,1.90
100,101.48,1.54
110,101.40,1.31
120,101.20,3.29
130,101.00,149.85
140,99.81,150.80
150,99.10,112.46
160,98.50,93.69
170,97.81,81.57
180,97.40,71.29
190,96.90,64.00
200,96.50,58.29
210,96.10,54.22
220,95.80,52.70
230,95.39,54.24
240,95.00,54.52
250,94.60,52.12
260,94.29,53.35
270,93.91,54.03
280,93.51,50.40
290,93.20,52.71
300,92.89,53.35
310,92.50,51.81
320,92.10,50.56
330,91.80,50.23
340,91.49,48.76
350,91.10,50.93
360,90.79,48.61
370,90.50,46.07
380,90.11,47.33
390,89.79,44.99
400,89.50,45.63
410,89.19,45.66
420,88.81,46.54
430,88.50,46.39
440,88.11,47.36
450,87.81,45.69
460,87.49,44.16
470,87.11,44.64
480,86.80,48.60
490,86.41,48.35
500,86.09,48.71
510,85.71,48.82
520,85.39,49.36
530,85.01,46.26
540,84.71,47.68
550,84.39,47.42
560,84.01,48.52
570,83.68,47.80
580,83.29,48.84
590,82.91,46.18
600,82.59,46.38
610,82.21,47.42
620,81.90,46.95
630,81.51,46.80
640,81.11,48.23
650,80.81,48.25
660,80.49,48.79
670,80.01,48.56
680,79.70,46.63
690,79.29,46.88
700,79.00,49.48
710,78.69,49.82
720,78.28,50.41
730,77.89,49.78
740,77.49,48.67
750,77.19,49.86
760,76.79,51.48
770,76.40,51.46
780,76.01,52.16
790,75.69,50.75
800,75.31,51.65
810,74.91,49.75
820,74.59,51.37
830,74.21,51.58
840,73.89,52.25
850,73.49,50.10
860,73.09,49.26
870,72.71,50.90
880,72.33,51.89
890,71.99,51.70
900,71.69,52.72
910,71.29,54.51
920,70.89,53.10
930,70.50,54.52
940,70.20,52.72
950,69.78,52.40
960,69.41,52.84
970,69.09,51.07
980,68.68,53.60
990,68.39,55.30
1000,68.00,56.69
1010,67.60,53.41
1020,67.29,54.27
1030,66.88,56.21
1040,66.48,55.92
1050,66.14,53.89
1060,65.78,56.58
1070,65.47,57.33
1080,65.08,56.28
1090,64.68,58.86
1100,64.39,56.82
1110,64.00,57.01
1120,63.60,58.03
1130,63.29,58.14
1140,62.88,58.26
1150,62.50,57.69
1160,62.19,60.15
1170,61.80,60.07
1180,61.49,60.92
1190,61.08,61.08
1200,60.68,61.45
1210,60.28,59.26
1220,59.98,61.08
1230,59.59,62.38
1240,59.20,63.03
1250,58.78,62.65
1260,58.39,64.04
1270,58.08,63.75
1280,57.68,63.66
1290,57.20,65.92
1300,56.88,68.01
1310,56.49,67.88
1320,55.99,68.31
1330,55.68,71.53
1340,55.18,69.51
1350,54.78,69.02
1360,54.38,68.74
1370,53.90,71.84
1380,53.50,75.73
1390,53.08,74.61
1400,52.59,77.04
1410,52.19,80.96
1420,51.70,79.85
1430,51.20,78.14
1440,50.78,81.72
1450,50.38,84.44
1460,49.88,84.39
1470,49.38,82.64
1480,48.88,85.30
1490,48.38,86.55
1500,47.88,86.39
1510,47.38,90.66
1520,46.88,90.34
1530,46.28,90.56
1540,45.78,86.58
1550,45.20,89.48
1560,44.69,90.13
1570,44.19,91.16
1580,43.68,91.90
1590,43.08,94.82
1600,42.50,97.11
1610,41.98,98.01
1620,41.40,98.05
1630,40.81,97.43
1640,40.29,99.20
1650,39.67,96.59
1660,39.18,100.86
1670,38.49,99.16
1680,37.90,99.86
1690,37.39,102.61
1700,36.77,104.52
1710,36.19,103.47
1720,35.67,100.84
1730,35.07,100.74
1740,34.49,99.97
1750,33.89,100.02
1760,33.29,100.60
1770,32.69,101.66
1780,32.19,96.96
1790,31.59,96.61
1800,31.09,97.01
1810,30.57,96.05
1820,29.99,93.47
1830,29.57,92.81
1840,28.98,92.44
1850,28.47,91.86
1860,27.97,87.99
1870,27.47,89.47
1880,26.98,88.63
1890,26.49,84.22
1900,25.99,83.74
1910,25.59,82.32
1920,25.17,80.11
1930,24.67,79.38
1940,24.27,78.87
1950,23.88,76.99
1960,23.47,72.20
1970,23.07,72.39
1980,22.69,71.21
1990,22.37,69.40
2000,21.99,65.74
2010,21.63,64.10
2020,21.29,61.65
2030,21.07,60.67
2040,20.77,57.44
2050,20.47,56.93
2060,20.17,53.97
2070,19.87,53.59
2080,19.67,50.82
2090,19.37,46.64
2100,19.17,47.98
2110,18.89,46.57
2120,18.77,45.13
2130,18.48,42.49
2140,18.37,38.13
2150,18.16,38.37
2160,17.97,36.27
2170,17.77,34.56
2180,17.57,37.82
2190,17.47,35.55
2200,17.27,33.99
2210,17.08,33.79
2220,16.97,32.80
2230,16.84,32.68
2240,16.67,32.64
2250,16.48,31.28
2260,16.38,29.02
2270,16.36,29.39
2280,16.17,28.53
2290,16.07,28.17
2300,15.97,28.06
2310,15.77,28.14
2320,15.77,27.48
2330,15.58,24.40
2340,15.54,23.69
2350,15.37,24.54
2360,15.27,24.33
2370,15.25,24.79
2380,15.07,25.36
2390,15.07,24.75
2400,14.89,24.21
2410,14.77,23.92

File: IMT_Wood_Cone_25kW_hor_R2.csv
Time (s),Mass (g),HRR (kW/m2)
0,92.80,3.94
10,91.00,3.59
20,90.90,2.63
30,90.87,0.19
40,90.90,2.02
50,90.65,4.51
60,90.63,1.43
70,90.72,-0.13
80,90.32,3.77
90,90.24,2.57
100,90.13,3.93
110,89.84,3.65
120,89.65,4.40
130,89.43,2.03
140,89.51,1.68
150,89.13,3.12
160,89.23,2.20
170,88.93,1.78
180,88.86,2.92
190,88.67,2.21
200,88.53,2.00
210,88.43,0.77
220,88.13,0.66
230,88.03,2.17
240,87.92,2.46
250,87.63,1.52
260,87.65,3.90
270,87.25,5.01
280,87.23,3.25
290,86.95,4.50
300,86.72,1.84
310,86.35,118.39
320,85.46,122.63
330,84.83,108.52
340,84.15,93.13
350,83.35,86.72
360,82.92,80.08
370,82.43,71.93
380,82.03,65.49
390,81.54,61.32
400,81.13,60.73
410,80.74,59.19
420,80.35,58.78
430,79.94,59.48
440,79.54,57.87
450,79.14,55.29
460,78.82,57.39
470,78.34,55.31
480,78.02,57.85
490,77.62,56.98
500,77.33,53.85
510,76.92,56.16
520,76.44,54.83
530,76.12,55.12
540,75.72,55.01
550,75.33,54.64
560,74.93,52.57
570,74.52,54.40
580,74.14,54.03
590,73.74,55.17
600,73.42,55.09
610,73.02,54.96
620,72.62,55.53
630,72.22,55.10
640,71.84,55.43
650,71.52,53.90
660,71.12,56.40
670,70.72,55.32
680,70.33,55.56
690,69.94,55.97
700,69.53,57.44
710,69.13,56.80
720,68.73,57.10
730,68.42,57.28
740,68.02,55.53
750,67.62,52.95
760,67.22,54.80
770,66.92,56.52
780,66.43,57.66
790,66.12,56.85
800,65.81,56.23
810,65.42,55.60
820,64.94,57.28
830,64.62,55.01
840,64.23,56.81
850,63.73,56.24
860,63.43,54.17
870,63.12,54.83
880,62.73,58.35
890,62.32,58.98
900,61.93,57.06
910,61.62,59.76
920,61.32,58.67
930,60.83,60.52
940,60.52,60.18
950,60.17,61.73
960,59.82,60.66
970,59.33,60.95
980,59.01,60.66
990,58.71,62.17
1000,58.32,60.22
1010,57.91,64.43
1020,57.51,64.64
1030,57.14,64.37
1040,56.73,62.53
1050,56.34,64.11
1060,56.02,65.69
1070,55.61,66.96
1080,55.33,65.88
1090,54.83,66.97
1100,54.51,66.59
1110,54.12,68.35
1120,53.63,67.62
1130,53.23,67.71
1140,52.83,69.72
1150,52.43,70.95
1160,52.03,71.09
1170,51.63,70.56
1180,51.23,68.96
1190,50.81,71.24
1200,50.41,73.79
1210,50.02,73.47
1220,49.53,74.07
1230,49.11,76.91
1240,48.73,75.57
1250,48.31,76.59
1260,47.82,76.14
1270,47.32,77.18
1280,46.93,78.54
1290,46.43,80.83
1300,46.01,81.34
1310,45.51,82.12
1320,45.03,81.93
1330,44.53,82.56
1340,44.11,84.38
1350,43.62,85.11
1360,43.11,85.93
1370,42.61,87.09
1380,42.13,91.66
1390,41.63,88.54
1400,41.11,88.30
1410,40.52,90.47
1420,40.01,92.57
1430,39.42,88.21
1440,38.92,91.85
1450,38.43,90.07
1460,37.83,90.52
1470,37.31,93.65
1480,36.81,96.36
1490,36.21,92.20
1500,35.71,92.13
1510,35.13,94.33
1520,34.61,95.89
1530,34.11,96.05
1540,33.52,96.24
1550,32.92,94.68
1560,32.35,94.18
1570,31.91,93.22
1580,31.31,93.66
1590,30.72,97.09
1600,30.20,94.08
1610,29.54,94.36
1620,29.12,91.81
1630,28.62,89.72
1640,28.13,91.67
1650,27.69,85.91
1660,27.04,85.89
1670,26.62,84.22
1680,26.19,81.86
1690,25.72,82.47
1700,25.31,80.90
1710,24.80,78.28
1720,24.41,76.32
1730,24.00,77.94
1740,23.51,77.19
1750,23.10,73.09
1760,22.80,70.86
1770,22.41,68.85
1780,22.01,66.33
1790,21.62,64.93
1800,21.31,62.87
1810,21.00,59.23
1820,20.70,59.84
1830,20.30,53.62
1840,20.02,53.78
1850,19.80,52.08
1860,19.51,49.28
1870,19.22,50.11
1880,18.92,48.19
1890,18.71,48.05
1900,18.51,45.63
1910,18.30,44.25
1920,18.00,43.22
1930,17.91,42.26
1940,17.70,39.08
1950,17.42,38.02
1960,17.22,37.33
1970,17.10,36.43
1980,16.90,36.91
1990,16.70,34.09
2000,16.60,34.47
2010,16.40,35.22
2020,16.20,31.34
2030,16.02,31.73
2040,15.92,32.90
2050,15.71,34.44
2060,15.60,34.64
2070,15.40,30.44
2080,15.22,31.88
2090,15.10,31.92
2100,15.00,30.93
2110,14.81,32.40
2120,14.70,30.92
2130,14.60,29.08
2140,14.50,28.61
2150,14.30,27.36
2160,14.12,27.78
2170,14.01,28.55
2180,13.92,27.61
2190,13.80,27.54
2200,13.70,26.85
2210,13.59,25.94
2220,13.51,26.52
2230,13.40,26.67
2240,13.22,26.64
2250,13.10,25.60
2260,13.00,26.37
2270,12.92,26.28
2280,12.80,24.28

File: IMT_Wood_Cone_25kW_hor_R3.csv
Time (s),Mass (g),HRR (kW/m2)
0,200.94,0.52
10,200.90,0.79
20,200.90,-0.81
30,200.63,-0.13
40,200.70,4.86
50,200.60,3.15
60,200.42,1.27
70,200.32,2.41
80,200.21,3.12
90,199.91,7.78
100,200.00,6.45
110,199.77,0.97
120,199.62,112.24
130,198.61,159.66
140,197.70,138.26
150,196.81,116.26
160,196.13,100.82
170,195.60,86.78
180,195.01,76.54
190,194.50,69.23
200,194.10,64.69
210,193.70,59.86
220,193.30,55.67
230,192.90,52.64
240,192.60,51.30
250,192.20,49.51
260,191.80,47.75
270,191.41,46.89
280,191.10,45.86
290,190.72,45.34
300,190.42,46.26
310,190.10,45.82
320,189.71,46.22
330,189.41,44.37
340,189.09,44.58
350,188.80,44.39
360,188.42,46.02
370,188.11,47.26
380,187.71,44.81
390,187.41,45.62
400,187.09,43.78
410,186.80,44.33
420,186.41,42.03
430,186.09,42.01
440,185.80,40.85
450,185.49,42.23
460,185.09,40.00
470,184.71,40.97
480,184.41,38.70
490,184.10,39.08
500,183.77,39.59
510,183.41,41.05
520,183.10,39.88
530,182.71,39.11
540,182.41,39.14
550,182.10,39.81
560,181.79,38.47
570,181.39,39.01
580,181.00,39.09
590,180.69,39.79
600,180.31,36.90
610,180.01,35.54
620,179.71,37.65
630,179.31,38.07
640,178.99,36.63
650,178.69,36.31
660,178.31,37.74
670,178.01,35.77
680,177.63,37.44
690,177.31,37.50
700,176.99,40.35
710,176.61,38.58
720,176.29,39.34
730,175.99,37.33
740,175.59,39.58
750,175.29,38.01
760,174.91,39.41
770,174.60,39.61
780,174.29,38.10
790,174.00,39.74
800,173.61,39.15
810,173.29,37.10
820,172.99,40.22
830,172.59,40.71
840,172.29,41.11
850,171.99,38.73
860,171.69,40.14
870,171.29,39.39
880,170.99,41.03
890,170.69,40.95
900,170.40,40.98
910,170.09,41.23
920,169.79,42.22
930,169.40,40.07
940,169.10,42.36
950,168.79,41.49
960,168.49,39.64
970,168.19,40.83
980,167.80,43.25
990,167.50,39.72
1000,167.19,40.29
1010,166.83,41.76
1020,166.57,43.25
1030,166.29,42.89
1040,165.99,43.95
1050,165.68,43.58
1060,165.30,43.27
1070,164.99,44.15
1080,164.69,43.71
1090,164.39,42.70
1100,164.08,46.30
1110,163.79,47.22
1120,163.40,46.77
1130,163.08,45.39
1140,162.79,46.42
1150,162.48,46.56
1160,162.10,48.59
1170,161.79,47.78
1180,161.49,47.06
1190,161.09,49.96
1200,160.79,51.01
1210,160.49,50.81
1220,160.19,52.74
1230,159.89,51.82
1240,159.49,54.36
1250,159.10,54.40
1260,158.78,61.87
1270,158.30,61.01
1280,158.00,60.48
1290,157.60,62.60
1300,157.21,62.36
1310,156.92,63.13
1320,156.48,63.54
1330,156.09,64.97
1340,155.69,66.86
1350,155.28,66.46
1360,154.88,69.59
1370,154.48,68.14
1380,154.00,70.53
1390,153.60,69.10
1400,153.18,70.23
1410,152.70,72.83
1420,152.29,72.65
1430,151.80,72.71
1440,151.38,74.35
1450,150.78,72.75
1460,150.48,74.29
1470,149.99,73.54
1480,149.58,76.38
1490,149.08,78.57
1500,148.58,82.12
1510,148.00,81.31
1520,147.59,84.11
1530,147.09,81.51
1540,146.60,84.80
1550,146.10,86.82
1560,145.58,85.08
1570,145.08,85.61
1580,144.48,87.62
1590,143.98,84.19
1600,143.49,86.22
1610,142.98,87.44
1620,142.38,90.49
1630,141.88,92.39
1640,141.29,91.84
1650,140.70,92.96
1660,140.09,89.34
1670,139.68,91.86
1680,138.99,91.60
1690,138.48,91.96
1700,137.90,90.18
1710,137.38,88.17
1720,136.78,91.11
1730,136.28,90.97
1740,135.77,89.84
1750,135.09,89.94
1760,134.59,89.87
1770,134.09,89.90
1780,133.59,86.34
1790,133.08,84.98
1800,132.49,83.26
1810,131.99,85.24
1820,131.58,82.87
1830,131.07,78.88
1840,130.58,80.02
1850,130.08,76.73
1860,129.68,76.49
1870,129.27,73.72
1880,128.77,72.84
1890,128.29,72.47
1900,127.89,68.55
1910,127.57,66.06
1920,127.17,64.61
1930,126.77,61.19
1940,126.39,59.77
1950,126.08,61.10
1960,125.78,60.19
1970,125.42,56.26
1980,125.09,56.48
1990,124.69,54.71
2000,124.49,53.23
2010,124.18,50.57
2020,123.97,49.11
2030,123.77,47.21
2040,123.48,45.56
2050,123.27,42.75
2060,123.07,41.27
2070,122.87,40.57
2080,122.59,40.32
2090,122.47,37.43
2100,122.27,36.50
2110,121.99,35.32
2120,121.88,32.81
2130,121.78,33.19
2140,121.57,29.90
2150,121.47,28.83
2160,121.27,27.56
2170,121.17,24.91
2180,120.97,26.94
2190,120.87,27.03
2200,120.67,26.61
2210,120.57,25.59
2220,120.47,24.05
2230,120.37,23.48
2240,120.27,22.92
2250,120.08,22.22
2260,119.97,22.45
2270,119.97,22.59
2280,119.76,20.61
2290,119.67,21.49
2300,119.58,21.26
2310,119.45,22.24
2320,119.37,21.27
2330,119.27,22.57
2340,119.17,23.93
2350,119.07,21.64
2360,118.97,21.29
2370,118.86,22.60
2380,118.68,20.89
2390,118.67,21.39
2400,118.57,21.33
2410,118.47,20.63
2420,118.26,21.69
2430,118.19,19.26
2440,118.17,20.33