Folder: matl-db/Wood/Calibration_Data/IMT (part 3)

File: IMT-Mines-Ales_Wood_Cone_50kW_hor_R4.csv
Time (s),Mass (g),HRR (kW/m²)
0,95.60,3.24
5,95.22,1.29
10,95.00,-3.24
15,94.92,117.46
20,94.42,201.58
25,93.63,215.65
30,93.21,182.30
35,92.50,163.07
40,92.20,150.46
45,91.72,140.46
50,91.32,137.71
55,90.92,128.43
60,90.50,124.27
65,90.03,122.74
70,89.71,118.62
75,89.31,116.62
80,89.00,116.01
85,88.60,111.19
90,88.22,114.18
95,87.80,109.17
100,87.51,106.29
105,87.21,104.81
110,86.90,106.56
115,86.51,103.94
120,86.20,103.01
125,85.90,98.35
130,85.52,99.81
135,85.30,97.05
140,84.89,97.58
145,84.61,95.99
150,84.32,93.06
155,84.02,98.50
160,83.69,97.97
165,83.40,96.15
170,83.12,96.02
175,82.81,93.70
180,82.50,91.29
185,82.21,90.39
190,81.90,92.09
195,81.62,90.74
200,81.40,91.54
205,81.02,88.11
210,80.80,86.75
215,80.50,84.34
220,80.21,86.36
225,80.00,85.32
230,79.62,86.69
235,79.40,87.69
240,79.12,86.83
245,78.82,86.55
250,78.43,86.97
255,78.30,85.94
260,77.92,87.22
265,77.67,87.73
270,77.41,87.24
275,77.10,85.05
280,76.81,86.09
285,76.60,84.96
290,76.29,85.42
295,76.01,86.46
300,75.69,87.73
305,75.41,83.92
310,75.10,84.71
315,74.81,83.29
320,74.61,85.30
325,74.31,86.58
330,74.09,82.48
335,73.71,82.26
340,73.50,86.21
345,73.21,84.31
350,73.00,82.84
355,72.69,82.28
360,72.40,81.03
365,72.11,81.91
370,71.90,82.77
375,71.59,82.68
380,71.31,82.19
385,71.02,83.12
390,70.70,80.86
395,70.41,81.44
400,70.20,81.51
405,69.92,79.60
410,69.61,80.92
415,69.39,79.65
420,69.10,77.65
425,68.81,78.01
430,68.60,78.99
435,68.29,83.69
440,68.01,80.44
445,67.71,83.40
450,67.49,77.54
455,67.21,80.05
460,66.91,79.50
465,66.71,79.01
470,66.39,78.73
475,66.11,80.01
480,65.89,81.67
485,65.61,82.58
490,65.41,80.99
495,65.11,77.24
500,64.89,78.65
505,64.59,80.01
510,64.39,81.31
515,64.09,82.91
520,63.81,83.47
525,63.51,84.95
530,63.31,83.86
535,62.99,80.78
540,62.79,81.49
545,62.49,81.16
550,62.21,82.98
555,61.88,82.05
560,61.61,81.71
565,61.40,81.98
570,61.19,82.30
575,60.89,81.10
580,60.61,81.14
585,60.31,83.58
590,60.09,84.10
595,59.80,82.79
600,59.58,82.33
605,59.30,80.42
610,59.09,79.31
615,58.79,80.88
620,58.49,82.38
625,58.20,81.92
630,57.99,83.83
635,57.79,82.89
640,57.50,84.45
645,57.29,83.40
650,57.00,82.70
655,56.79,84.21
660,56.40,83.72
665,56.11,86.22
670,55.90,86.40
675,55.68,84.95
680,55.39,84.78
685,55.11,85.78
690,54.89,87.20
695,54.60,86.06
700,54.29,87.72
705,54.00,86.77
710,53.78,87.32
715,53.50,87.46
720,53.19,88.49
725,52.90,87.02
730,52.70,84.44
735,52.40,88.63
740,52.19,88.14
745,51.89,87.74
750,51.59,91.77
755,51.39,91.46
760,51.00,91.39
765,50.79,92.22
770,50.50,95.73
775,50.29,91.92
780,49.90,92.12
785,49.69,92.80
790,49.39,93.15
795,49.10,98.46
800,48.80,101.23
805,48.59,98.63
810,48.21,98.05
815,47.98,96.40
820,47.68,98.34
825,47.40,95.59
830,47.09,99.12
835,46.79,100.82
840,46.50,99.45
845,46.18,102.53
850,45.80,99.22
855,45.60,99.64
860,45.30,102.69
865,44.99,103.47
870,44.61,104.56
875,44.38,105.74
880,44.00,108.65
885,43.70,109.33
890,43.30,107.51
895,43.00,108.44
900,42.65,108.95
905,42.30,107.44
910,42.00,109.81
915,41.69,112.41
920,41.30,110.36
925,40.90,112.45
930,40.68,114.97
935,40.21,113.05
940,39.88,116.12
945,39.48,115.53
950,39.20,116.49
955,38.80,118.75
960,38.40,121.80
965,38.05,122.00
970,37.71,121.27
975,37.30,124.47
980,36.89,126.04
985,36.59,130.07
990,36.10,132.32
995,35.78,128.55
1000,35.31,127.09
1005,35.00,128.93
1010,34.34,130.37
1015,34.20,127.91
1020,33.80,133.02
1025,33.40,127.63
1030,33.00,131.80
1035,32.52,133.93
1040,32.08,135.08
1045,31.70,131.64
1050,31.28,131.31
1055,30.89,132.68
1060,30.48,131.88
1065,30.00,134.02
1070,29.70,135.04
1075,29.21,133.05
1080,28.79,136.75
1085,28.39,133.96
1090,27.89,133.28
1095,27.58,134.42
1100,27.20,134.59
1105,26.80,131.22
1110,26.28,132.17
1115,25.99,130.21
1120,25.59,126.57
1125,25.20,126.66
1130,24.80,127.18
1135,24.31,124.67
1140,24.04,120.87
1145,23.61,123.75
1150,23.26,123.93
1155,22.81,118.87
1160,22.58,121.54
1165,22.19,123.25
1170,21.89,124.60
1175,21.51,127.52
1180,21.28,134.82
1185,20.82,131.22
1190,20.49,130.58
1195,20.18,125.91
1200,19.79,122.28
1205,19.47,117.62
1210,19.18,112.40
1215,18.89,111.11
1220,18.60,106.62
1225,18.37,100.49
1230,18.00,95.96
1235,17.79,91.95
1240,17.61,88.51
1245,17.39,84.64
1250,17.18,76.78
1255,16.99,71.92
1260,16.86,67.90
1265,16.67,66.64
1270,16.47,61.30
1275,16.38,58.61
1280,16.18,55.23
1285,16.07,53.90
1290,15.97,51.85
1295,15.80,51.93
1300,15.77,48.28
1305,15.68,45.40
1310,15.49,43.20
1315,15.55,42.09
1320,15.37,42.37
1325,15.37,41.31
1330,15.28,40.27
1335,15.18,39.47
1340,15.08,38.36
1345,14.99,36.97
1350,14.97,36.07
1355,14.89,37.05
1360,14.86,38.02
1365,14.79,38.07
1370,14.76,36.98
1375,14.59,35.68
1380,14.58,38.01
1385,14.47,36.67
1390,14.39,34.97
1395,14.39,33.49
1400,14.38,34.04
1405,14.29,34.10
1410,14.27,35.30
1415,14.17,36.62
1420,14.09,34.33
1425,14.08,33.00
1430,13.97,33.04
1435,13.96,34.34
1440,13.77,34.19
1445,13.79,34.52
1450,13.76,33.92
1455,13.59,32.36
1460,13.68,32.78
1465,13.57,31.07
1470,13.49,30.97
1475,13.47,30.09
1480,13.39,30.90

File: IMT-Mines-Ales_Wood_Cone_75kW_hor_R1.csv
Time (s),Mass (g),HRR (kW/m²)
0,97.00,-0.04
10,95.11,226.95
20,93.72,222.53
30,92.52,180.08
40,91.53,153.97
50,90.42,138.75
60,89.60,127.18
70,88.72,121.38
80,88.02,113.28
90,87.22,111.00
100,86.52,107.24
110,85.81,103.65
120,85.10,101.86
130,84.41,101.52
140,83.70,100.95
150,83.00,100.94
160,82.42,99.76
170,81.80,98.66
180,81.10,96.16
190,80.50,95.71
200,79.82,94.92
210,79.21,93.83
220,78.50,93.01
230,77.82,91.10
240,77.11,91.85
250,76.51,90.91
260,75.92,92.57
270,75.22,89.10
280,74.65,86.00
290,74.10,85.09
300,73.31,85.05
310,72.80,87.10
320,72.11,85.15
330,71.49,84.14
340,70.90,83.81
350,70.31,86.39
360,69.61,81.22
370,69.02,81.77
380,68.41,85.08
390,67.81,83.97
400,67.21,82.09
410,66.61,82.60
420,66.01,81.29
430,65.49,78.40
440,64.89,80.35
450,64.29,81.42
460,63.60,82.45
470,63.11,81.61
480,62.52,80.45
490,61.99,83.49
500,61.31,80.92
510,60.71,82.88
520,60.19,81.03
530,59.60,82.07
540,58.99,81.33
550,58.39,82.73
560,57.89,84.49
570,57.29,83.20
580,56.69,84.67
590,56.10,88.46
600,55.50,85.83
610,54.99,84.75
620,54.39,88.10
630,53.79,90.33
640,53.21,89.88
650,52.52,87.59
660,51.99,90.71
670,51.20,96.22
680,50.73,96.05
690,50.19,94.92
700,49.49,96.26
710,48.88,100.80
720,48.20,101.97
730,47.52,103.09
740,46.90,103.35
750,46.19,105.25
760,45.51,109.16
770,44.80,111.76
780,44.10,111.73
790,43.40,113.33
800,42.70,114.31
810,41.97,119.31
820,41.10,119.25
830,40.50,122.01
840,39.61,124.52
850,38.71,127.05
860,37.90,130.64
870,37.19,133.56
880,36.38,132.89
890,35.50,131.76
900,34.70,134.97
910,33.78,139.67
920,32.90,138.06
930,31.98,137.73
940,31.08,139.12
950,30.30,139.76
960,29.39,141.10
970,28.42,142.84
980,27.60,143.40
990,26.68,146.69
1000,25.90,146.97
1010,25.00,148.10
1020,24.11,143.82
1030,23.38,139.21
1040,22.49,131.14
1050,21.79,126.81
1060,21.09,124.72
1070,20.41,113.87
1080,19.80,106.17
1090,19.28,97.32
1100,18.78,90.34
1110,18.38,82.86
1120,17.98,75.22
1130,17.68,70.18
1140,17.38,64.48
1150,17.08,57.91
1160,16.88,55.28
1170,16.68,51.16
1180,16.48,49.06
1190,16.30,45.91
1200,16.27,46.83
1210,16.08,45.04
1220,15.95,44.47
1230,15.77,42.65
1240,15.58,43.45
1250,15.47,41.33
1260,15.37,43.11
1270,15.28,41.64
1280,15.09,40.40
1290,14.89,41.13
1300,14.88,40.46
1310,14.77,38.51
1320,24.71,106.22
1330,24.29,104.02
1340,23.71,94.45
1350,23.30,90.62
1360,22.90,86.58
1370,22.40,82.74
1380,22.20,80.73
1390,21.82,71.11
1400,21.58,65.70
1410,21.29,64.37
1420,21.10,61.68
1430,20.87,55.14
1440,20.69,49.77
1450,20.59,48.09
1460,20.40,45.21
1470,20.19,44.88
1480,20.09,44.69
1490,19.90,45.38
1500,19.79,43.49
1510,19.70,42.92
1520,19.58,43.36
1530,19.39,42.49
1540,19.30,41.60
1550,19.18,42.79
1560,18.99,45.23
1570,18.90,42.84
1580,18.79,43.67
1590,18.70,45.14
1600,18.60,44.03
1610,18.39,42.90

File: IMT-Mines-Ales_Wood_Cone_75kW_hor_R2.csv
Time (s),Mass (g),HRR (kW/m²)
0,112.20,1.43
5,112.28,68.38
10,112.17,204.95
15,111.30,267.14
20,110.60,277.15
25,109.40,255.54
30,108.91,236.85
35,108.10,216.14
40,107.78,203.26
45,107.01,196.61
50,106.38,187.55
55,105.88,180.97
60,105.33,172.90
65,104.79,167.03
70,104.40,167.43
75,103.88,159.42
80,103.21,161.21
85,102.80,153.49
90,102.31,151.94
95,101.63,149.78
100,101.31,145.91
105,100.91,146.98
110,100.50,143.32
115,99.85,142.36
120,99.49,141.31
125,99.18,139.27
130,98.51,136.28
135,98.30,136.46
140,97.81,132.65
145,97.38,134.66
150,96.91,132.46
155,96.49,130.56
160,96.10,131.37
165,95.69,129.60
170,95.28,129.26
175,94.79,128.41
180,94.47,129.35
185,94.08,128.27
190,93.60,128.02
195,93.02,126.00
200,92.79,124.06
205,92.29,127.28
210,91.90,125.00
215,91.59,125.99
220,91.19,123.78
225,90.68,121.59
230,90.39,123.41
235,89.99,122.11
240,89.60,120.58
245,89.19,121.42
250,88.79,121.20
255,88.39,121.49
260,87.99,120.16
265,87.68,118.68
270,87.29,117.36
275,86.90,116.19
280,86.37,116.01
285,86.07,117.33
290,85.69,116.08
295,85.27,117.34
300,84.99,116.49
305,84.49,117.98
310,84.19,116.64
315,83.77,115.57
320,83.39,112.67
325,82.98,112.92
330,82.69,111.59
335,82.29,115.06
340,81.86,113.55
345,81.49,113.07
350,81.17,113.32
355,80.79,115.95
360,80.37,114.95
365,79.87,116.13
370,79.58,114.82
375,79.21,110.33
380,78.87,112.76
385,78.49,110.02
390,78.09,110.07
395,77.77,112.77
400,77.37,111.90
405,76.99,113.39
410,76.68,111.12
415,76.20,112.10
420,75.88,111.72
425,75.57,110.27
430,75.09,113.81
435,74.77,111.59
440,74.38,112.63
445,74.07,114.72
450,73.68,113.94
455,73.29,114.29
460,72.72,113.88
465,72.47,112.85
470,72.18,111.47
475,71.78,112.30
480,71.39,113.57
485,70.99,112.82
490,70.69,114.72
495,70.13,114.93
500,69.88,115.02
505,69.48,115.14
510,69.19,117.26
515,68.79,118.73
520,68.47,117.66
525,67.97,118.97
530,67.68,118.74
535,67.18,115.88
540,66.97,117.16
545,66.57,119.43
550,66.17,118.60
555,65.78,115.82
560,65.46,118.90
565,65.08,117.85
570,64.58,118.60
575,64.18,120.00
580,63.88,121.21
585,63.56,122.67
590,63.08,125.66
595,62.79,122.92
600,62.21,128.57
605,61.97,125.90
610,61.58,126.22
615,61.18,124.11
620,60.77,124.16
625,60.39,124.97
630,59.98,128.48
635,59.68,127.60
640,59.26,126.59
645,58.78,127.26
650,58.48,129.69
655,57.77,132.29
660,57.66,134.29
665,57.28,133.06
670,56.89,133.27
675,56.48,134.01
680,55.89,137.25
685,55.49,139.70
690,55.17,139.70
695,54.68,141.14
700,54.28,140.59
705,53.79,143.45
710,53.29,143.94
715,52.88,148.04
720,52.47,147.89
725,51.98,151.12
730,51.57,154.63
735,51.08,156.02
740,50.68,153.28
745,50.06,158.10
750,49.68,159.05
755,49.26,159.92
760,48.67,160.42
765,48.18,164.70
770,47.78,165.43
775,47.18,167.08
780,46.78,166.41
785,46.07,171.53
790,45.66,172.23
795,45.16,171.79
800,44.67,173.44
805,44.20,174.37
810,43.66,176.33
815,43.06,174.46
820,42.49,178.56
825,41.98,172.77
830,41.49,175.45
835,41.07,177.93
840,40.28,174.90
845,39.86,177.24
850,39.18,177.40
855,38.77,180.31
860,38.17,176.59
865,37.66,178.98
870,37.17,177.13
875,36.59,181.85
880,36.07,179.69
885,35.58,179.26
890,34.87,176.24
895,34.47,176.00
900,33.96,176.58
905,33.37,181.23
910,32.87,178.57
915,32.21,178.23
920,31.77,176.99
925,31.19,172.87
930,30.77,173.18
935,30.17,169.91
940,29.76,171.79
945,29.05,169.09
950,28.67,165.40
955,28.26,162.30
960,27.68,163.69
965,27.35,158.40
970,26.87,159.46
975,26.37,154.52
980,25.81,152.93
985,25.37,148.91
990,25.04,146.67
995,24.67,142.23
1000,24.27,140.09
1005,23.60,137.63
1010,23.37,132.16
1015,23.06,128.52
1020,22.67,125.12
1025,22.37,123.43
1030,22.05,118.08
1035,21.45,116.11
1040,21.35,108.21
1045,21.07,108.55
1050,20.85,102.31
1055,20.56,96.91
1060,20.37,93.62
1065,20.16,88.95
1070,19.95,85.77
1075,19.75,80.94
1080,19.55,76.32
1085,19.37,70.54
1090,19.26,68.50
1095,19.15,65.82
1100,18.97,62.61
1105,18.85,58.81
1110,18.67,57.86
1115,18.64,54.30
1120,18.54,50.79
1125,18.45,48.25
1130,18.35,44.76
1135,18.34,44.87
1140,18.25,44.22
1145,18.15,43.76
1150,18.05,42.22
1155,17.96,41.93
1160,17.87,42.37
1165,17.85,41.10
1170,17.85,41.21
1175,17.66,41.37
1180,17.65,41.63
1185,17.57,41.83
1190,17.55,39.93
1195,17.46,40.48
1200,17.45,39.92
1205,17.35,40.56
1210,17.33,39.50
1215,17.25,39.79
1220,17.16,38.62
1225,17.14,39.49
1230,17.06,40.98
1235,17.05,39.18
1240,16.95,39.88
1245,16.85,37.31
1250,16.85,36.58
1255,16.77,37.54
1260,16.75,38.17
1265,16.65,38.57

File: IMT-Mines-Ales_Wood_Cone_75kW_hor_R3.csv
Time (s),Mass (g),HRR (kW/m²)
0,90.80,-0.55
5,90.86,82.40
10,90.18,202.22
15,89.30,231.64
20,88.79,204.19
25,88.05,188.46
30,87.54,173.84
35,87.04,160.41
40,86.42,145.85
45,86.04,140.45
50,85.52,134.70
55,85.06,127.17
60,84.72,122.33
65,84.34,118.12
70,83.82,115.48
75,83.44,116.60
80,83.04,112.33
85,82.46,111.93
90,82.24,108.11
95,81.84,111.71
100,81.53,107.07
105,81.21,106.33
110,80.83,104.71
115,80.33,103.50
120,80.12,104.84
125,79.73,103.29
130,79.33,104.73
135,79.01,101.74
140,78.71,104.42
145,78.25,101.66
150,77.84,101.53
155,77.62,100.07
160,77.24,102.69
165,76.83,102.26
170,76.23,104.61
175,76.13,103.42
180,75.83,100.24
185,75.52,98.19
190,75.03,99.79
195,74.73,100.32
200,74.44,97.49
205,74.14,97.57
210,73.74,97.28
215,73.44,95.39
220,73.03,93.89
225,72.59,95.20
230,72.32,94.31
235,72.03,93.83
240,71.73,92.66
245,71.41,91.53
250,71.03,92.61
255,70.73,92.72
260,70.34,94.12
265,70.03,92.24
270,69.73,90.86
275,69.43,91.76
280,69.14,91.51
285,68.80,90.02
290,68.43,89.74
295,68.13,88.20
300,67.83,88.91
305,67.53,88.25
310,67.22,86.09
315,66.91,85.78
320,66.53,88.31
325,66.23,86.89
330,65.93,86.98
335,65.63,85.81
340,65.31,87.91
345,65.03,88.74
350,64.81,87.75
355,64.43,88.66
360,64.21,89.14
365,63.83,85.63
370,63.53,84.60
375,63.31,85.12
380,62.93,84.28
385,62.63,85.25
390,62.33,87.39
395,62.01,87.50
400,61.72,84.76
405,61.42,85.42
410,61.13,86.14
415,60.91,85.05
420,60.61,87.07
425,60.23,85.00
430,59.93,83.36
435,59.71,83.69
440,59.33,85.50
445,58.92,86.19
450,58.73,86.56
455,58.51,88.59
460,58.21,87.83
465,57.93,88.64
470,57.63,88.98
475,57.33,85.86
480,57.01,87.52
485,56.64,88.49
490,56.42,88.03
495,56.23,88.77
500,55.91,88.47
505,55.55,89.38
510,55.31,88.64
515,55.00,90.12
520,54.73,91.36
525,54.51,90.86
530,54.13,93.07
535,53.83,91.39
540,53.52,91.55
545,53.21,93.54
550,52.93,93.07
555,52.62,94.46
560,52.34,94.92
565,52.02,96.45
570,51.76,97.04
575,51.41,99.63
580,51.11,99.54
585,50.82,99.19
590,50.41,99.33
595,50.21,103.76
600,49.91,102.60
605,49.53,100.98
610,49.30,104.45
615,48.92,103.74
620,48.62,103.55
625,48.31,107.36
630,48.02,108.23
635,47.63,110.88
640,47.40,110.81
645,46.89,111.57
650,46.62,112.11
655,46.41,113.20
660,46.00,113.25
665,45.60,115.21
670,45.22,117.14
675,44.84,121.38
680,44.45,118.63
685,44.22,121.93
690,43.82,123.70
695,43.40,125.82
700,43.02,128.80
705,42.63,130.43
710,42.30,129.32
715,41.82,128.36
720,41.60,133.05
725,41.04,128.26
730,40.72,133.52
735,40.32,133.28
740,39.92,136.75
745,39.52,137.60
750,39.05,136.85
755,38.70,139.90
760,38.22,142.08
765,37.82,143.28
770,37.32,143.46
775,37.02,143.90
780,36.62,144.75
785,36.11,146.89
790,35.72,146.17
795,35.23,146.48
800,34.81,145.81
805,34.42,151.55
810,33.92,152.86
815,33.42,150.37
820,33.00,153.81
825,32.45,152.12
830,32.12,152.00
835,31.62,154.81
840,31.20,154.99
845,30.72,151.85
850,30.12,155.95
855,29.75,157.47
860,29.41,156.41
865,28.90,153.77
870,28.42,153.59
875,28.02,154.78
880,27.41,154.33
885,27.00,155.20
890,26.60,151.81
895,26.22,150.87
900,25.69,149.63
905,25.21,149.44
910,24.85,146.31
915,24.27,147.88
920,24.01,148.01
925,23.49,146.79
930,23.19,142.97
935,22.60,142.60
940,22.31,141.66
945,21.90,140.97
950,21.60,137.57
955,21.20,136.03
960,20.81,133.03
965,20.38,132.38
970,19.99,124.19
975,19.70,122.46
980,19.24,117.82
985,19.18,115.79
990,18.81,113.58
995,18.59,108.88
1000,18.30,106.62
1005,18.01,101.59
1010,17.79,97.25
1015,17.51,93.71
1020,17.38,89.09
1025,17.11,86.95
1030,16.89,81.36
1035,16.79,75.04
1040,16.59,70.25
1045,16.39,66.90
1050,16.31,65.13
1055,16.10,62.67
1060,16.09,58.44
1065,15.95,57.07
1070,15.79,52.84
1075,15.71,51.99
1080,15.71,48.01
1085,15.59,48.56
1090,15.50,48.11
1095,15.58,49.10
1100,15.39,47.99
1105,15.39,48.29
1110,15.23,46.63
1115,15.29,46.24
1120,15.09,46.17
1125,15.07,43.77
1130,15.00,43.71
1135,14.89,44.42
1140,14.89,45.84
1145,14.71,43.80
1150,14.78,43.44
1155,14.59,44.19
1160,14.61,41.82
1165,14.49,41.75
1170,14.49,42.84
1175,14.39,41.85
1180,14.31,42.93
1185,14.30,41.39
1190,14.19,41.26
1195,14.19,40.59
1200,14.09,40.04
1205,14.10,40.08
1210,13.99,40.92
1215,13.99,41.69

File: IMT-Mines-Ales_Wood_MCC_O2-5_60K_R1.csv
Time (s),Temperature (K),HRR (W/g)
0,380.74,0
2.5,381.93,0.386
5,383.18,0.703
7.5,384.41,1.142
10,385.79,1.19
12.5,387.16,1.183
15,388.57,1.316
17.5,390.13,1.27
20,391.67,1.051
22.5,393.2,1.168
25,394.83,1.524
27.5,396.45,2.16
30,398.22,2.155
32.5,399.96,2.188
35,401.8,2.341
37.5,403.66,2.837
40,405.55,2.773
42.5,407.47,2.896
45,409.43,3.063
47.5,411.44,3.595
50,413.48,3.859
52.5,415.53,4.655
55,417.63,4.606
57.5,419.79,4.984
60,421.99,5.455
62.5,424.15,6.09
65,426.33,6.271
67.5,428.52,7.007
70,430.92,7.341
72.5,433.21,7.922
75,435.48,9.036
77.5,437.84,9.154
80,440.23,10.111
82.5,442.59,10.387
85,445.07,11.152
87.5,447.51,11.786
90,450,12.5
92.5,452.47,13.572
95,454.98,13.908
97.5,457.54,14.5
100,460.06,14.647
102.5,462.6,15.217
105,465.15,16.413
107.5,467.69,16.631
110,470.32,17.061
112.5,472.91,18.125
115,475.51,19.256
117.5,478.1,19.924
120,480.71,20.483
122.5,483.35,21.015
125,485.94,20.979
127.5,488.6,21.732
130,491.19,21.775
132.5,493.82,22.274
135,496.46,22.665
137.5,499,22.994
140,501.63,23.608
142.5,504.3,24.398
145,506.9,25.034
147.5,509.53,25.499
150,512.13,26.753
152.5,514.75,28.092
155,517.33,28.907
157.5,519.87,30.178
160,522.46,31.087
162.5,525.02,32.104
165,527.61,33.67
167.5,530.17,35.282
170,532.73,37.153
172.5,535.32,38.421
175,537.87,40.059
177.5,540.35,41.42
180,542.89,42.885
182.5,545.43,44.405
185,547.91,45.667
187.5,550.44,46.883
190,552.96,48.218
192.5,555.47,49.235
195,557.98,49.878
197.5,560.45,51.049
200,562.92,51.843
202.5,565.4,52.36
205,567.92,53.081
207.5,570.36,54.349
210,572.9,55.417
212.5,575.39,56.625
215,577.88,58.122
217.5,580.39,60.267
220,582.87,62.63
222.5,585.31,64.306
225,587.84,67.697
227.5,590.29,71.036
230,592.77,73.853
232.5,595.26,76.815
235,597.74,79.974
237.5,600.28,82.975
240,602.71,86.03
242.5,605.25,89.192
245,607.72,92.12
247.5,610.18,95.319
250,612.72,97.997
252.5,615.24,100.974
255,617.74,103.876
257.5,620.26,107.394
260,622.77,111.294
262.5,625.24,115.279
265,627.85,119.632
267.5,630.3,123.155
270,632.9,126.33
272.5,635.47,127.813
275,637.98,128.141
277.5,640.57,125.762
280,643.08,121.169
282.5,645.66,113.976
285,648.18,104.942
287.5,650.78,94.375
290,653.29,83.946
292.5,655.85,74.027
295,658.5,65.138
297.5,661.05,57.961
300,663.65,52.348
302.5,666.24,48.224
305,668.82,44.406
307.5,671.36,42.257
310,673.99,40.7
312.5,676.56,39.457
315,679.07,38.114
317.5,681.63,37.048
320,684.22,36.527
322.5,686.74,35.667
325,689.31,35.304
327.5,691.81,34.909
330,694.31,35.061
332.5,696.9,34.762
335,699.41,34.386
337.5,701.91,34.201
340,704.42,34.216
342.5,706.91,34.279
345,709.42,33.849
347.5,711.9,33.805
350,714.44,33.829
352.5,716.89,33.985
355,719.42,34.167
357.5,721.91,34.666
360,724.39,35.51
362.5,726.86,35.964
365,729.36,36.203
367.5,731.88,36.467
370,734.38,37.095
372.5,736.91,37.521
375,739.49,37.908
377.5,742.02,38.657
380,744.49,39.145
382.5,746.97,39.663
385,749.51,39.877
387.5,752.01,40.089
390,754.54,40.164
392.5,757.12,40.376
395,759.59,41.298
397.5,762.18,41.427
400,764.68,41.663
402.5,767.21,42.581
405,769.72,42.649
407.5,772.23,43.247
410,774.78,43.41
412.5,777.34,43.68
415,779.87,43.736
417.5,782.41,43.924
420,784.95,43.891
422.5,787.47,44.695
425,789.97,45.663
427.5,792.51,46.117
430,795.09,46.523
432.5,797.68,47.392
435,800.2,48.088
437.5,802.83,48.65
440,805.39,49.421
442.5,807.94,50.369
445,810.51,50.473
447.5,813.1,50.17
450,815.71,49.158
452.5,818.29,48.016
455,820.81,46.106
457.5,823.37,42.963
460,825.86,38.334
462.5,828.37,33.768
465,830.86,29.538
467.5,833.28,24.724
470,835.67,19.949
472.5,838.09,16.215
475,840.47,13.282
477.5,842.87,9.912
480,845.19,7.92
482.5,847.51,6.276
485,849.91,4.308
487.5,852.28,3.919
490,854.73,3.703
492.5,857.22,3.128
495,859.66,2.21
497.5,862.1,1.606
500,864.59,1.922
502.5,867.07,1.531
505,869.59,1.097
507.5,872.15,0.948
510,874.7,0.398
512.5,877.27,0.353
515,879.91,0.674
517.5,882.45,1.208
520,885.03,1.03
522.5,887.61,0.396
525,890.25,-0.383
527.5,892.89,-0.076
530,895.54,0.035
532.5,898.18,0.571
535,900.84,1.625
537.5,903.45,1.437
540,906.06,1.282
542.5,908.7,1.041
545,911.34,0.746
547.5,913.96,0.324
550,916.63,-0.112
552.5,919.3,-0.386
555,921.9,-0.713
557.5,924.53,-0.926
560,927.14,-0.865
562.5,929.78,0.047
565,932.42,1.458
567.5,935.03,1.758
570,937.73,1.617
572.5,940.33,1.744
575,942.93,1.765
577.5,945.53,0.99
580,948.13,1.153
582.5,950.79,0.631
585,953.4,0.569
587.5,956.05,0.083
590,958.66,-0.063
592.5,961.25,-0.224
595,963.88,-0.462
597.5,966.52,-0.052
600,969.13,-0.526
602.5,971.71,-0.367
605,974.34,-0.545
607.5,976.91,-0.461
610,979.54,-0.803
612.5,982.18,-0.629
615,984.78,-0.573
617.5,987.4,-0.571
620,990.03,-0.789
622.5,992.64,-0.299
624.5,994.73,0