Folder: matl-db/Wood/Calibration_Data/IMT (part 7)

File: IMT_Wood_MCC_O2-20_60K_R1.csv
Time (s),Temperature (K),HRR (W/g)
0,403.42,0
2,405.12,-0.291
4,406.81,1.818
6,408.54,3.613
8,410.33,3.797
10,412.07,4.88
12,413.86,4.687
14,415.67,3.45
16,417.54,2.352
18,419.38,1.344
20,421.49,1.679
22,423.23,3.535
24,425.19,4.949
26,427.09,7.555
28,428.99,7.55
30,430.99,7.202
32,432.9,5.931
34,434.89,5.176
36,436.88,4.276
38,438.9,4.584
40,440.91,5.819
42,442.96,8.088
44,445.05,8.86
46,447.08,11.502
48,449.14,11.835
50,451.26,12.203
52,453.32,10.934
54,455.41,10.627
56,457.49,9.757
58,459.63,10.544
60,461.71,12.522
62,463.78,14.859
64,465.95,16.978
66,468.06,19.55
68,470.19,20.48
70,472.31,21.66
72,474.39,20.974
74,476.53,21.561
76,478.64,21.922
78,480.74,23.022
80,482.92,25.766
82,484.96,27.107
84,487.16,29.426
86,489.27,30.52
88,491.43,32.085
90,493.61,32.536
92,495.63,33.393
94,497.73,33.868
96,499.79,33.291
98,501.93,33.815
100,504.03,33.592
102,506.1,34.589
104,508.12,35.955
106,510.32,37.212
108,512.39,38.556
110,514.43,38.77
112,516.56,38.71
114,518.64,39.235
116,520.66,39.212
118,522.65,40.218
120,524.79,40.997
122,526.82,40.776
124,528.94,41.768
126,530.98,42.621
128,533.05,43.113
130,535.06,45.548
132,537.1,47.004
134,539.17,49.38
136,541.19,51.011
138,543.16,52.467
140,545.24,53.6
142,547.27,53.685
144,549.31,55.462
146,551.36,56.274
148,553.34,57.15
150,555.31,58.722
152,557.33,58.677
154,559.34,59.496
156,561.31,60.408
158,563.38,61.226
160,565.35,63.461
162,567.35,64.117
164,569.35,66.195
166,571.36,67.935
168,573.4,68.87
170,575.43,71.345
172,577.44,72.262
174,579.42,73.813
176,581.4,75.602
178,583.46,77.617
180,585.39,79.761
182,587.42,82.68
184,589.42,85.669
186,591.41,87.658
188,593.44,91.049
190,595.48,93.85
192,597.43,97.16
194,599.4,100.824
196,601.41,104.567
198,603.5,109.433
200,605.53,114.938
202,607.55,120.747
204,609.56,127.973
206,611.62,135.32
208,613.65,143.035
210,615.75,151.213
212,617.77,158.695
214,619.78,163.864
216,621.87,167.969
218,623.9,168.575
220,625.93,166.52
222,628.06,161.045
224,630.13,153.798
226,632.22,143.93
228,634.36,134.265
230,636.39,123.436
232,638.49,112.551
234,640.6,102.956
236,642.66,93.407
238,644.73,85.902
240,646.77,78.339
242,648.85,72.167
244,650.87,66.641
246,652.94,63.25
248,654.97,59.726
250,656.98,57.045
252,658.97,54.752
254,661,53.316
256,662.98,51.409
258,664.93,49.308
260,666.9,48.05
262,668.92,46.285
264,670.87,46.217
266,672.83,44.835
268,674.8,44.117
270,676.74,43.947
272,678.71,43.443
274,680.67,42.527
276,682.58,41.661
278,684.55,41.543
280,686.51,40.481
282,688.49,41.039
284,690.45,40.162
286,692.41,38.958
288,694.39,38.117
290,696.41,38.209
292,698.37,39.023
294,700.35,39.483
296,702.39,40.737
298,704.33,40.863
300,706.35,41.482
302,708.39,41.724
304,710.41,43.263
306,712.39,43.094
308,714.48,44.899
310,716.5,44.764
312,718.57,46.322
314,720.63,46.051
316,722.67,47.287
318,724.73,48.666
320,726.8,50.313
322,728.88,52.168
324,730.97,43.404
326,732.99,45.615
328,735.11,54.315
330,737.21,64.56
332,739.32,68.418
334,741.43,67.742
336,743.52,98.475
338,746.31,147.667
340,748.84,161.214
342,751.11,135.721
344,753.31,101.523
346,755.38,74.698
348,757.33,56.805
350,759.26,46.484
352,761.14,39.892
354,762.98,35.006
356,764.84,31.393
358,766.69,28.477
360,768.59,27.322
362,770.44,26.167
364,772.31,26.102
366,774.21,26.991
368,776.17,26.449
370,778.06,26.082
372,780,25.99
374,781.95,24.806
376,783.84,23.107
378,785.79,21.405
380,787.77,18.207
382,789.67,17.245
384,791.65,16.203
386,793.66,15.469
388,795.64,16.252
390,797.61,14.994
392,799.63,14.33
394,801.65,11.523
396,803.62,8.592
398,805.65,6.797
400,807.61,4.833
402,809.64,4.828
404,811.63,4.546
406,813.68,6.294
408,815.67,6.406
410,817.74,6.259
412,819.79,3.799
414,821.81,2.754
416,823.79,0.786
418,825.95,0.226
420,827.94,-0.468
422,829.96,1.151
424,832.04,1.679
426,834.15,3.115
428,836.27,3.064
430,838.34,2.525
432,840.43,1.967
434,842.48,0.551
436,844.6,-0.405
438,846.66,-1.235
440,848.78,0.325
442,850.88,1.128
444,852.93,2.496
446,855.06,3.179
448,857.2,1.877
450,859.28,1.744
452,861.43,0.11
454,863.5,-1.148
456,865.6,-1.978
458,867.68,-1.239
460,869.79,-0.035
462,871.92,1.059
464,874.04,3.003
466,876.18,2.437
468,878.25,1.806
470,880.42,0.276
472,882.5,-1.029
474,884.65,-1.721
476,886.68,-2.166
478,888.77,-0.734
480,890.91,0.37
482,892.97,0.997
484,895.13,1.724
486,897.2,0.762
488,899.34,1.469
490,901.43,0.21
492,903.55,-0.547
494,905.6,-1.325
496,907.75,-2.252
498,909.78,-1.354
500,911.87,-0.447
502,913.93,0.592
504,916.03,0.117
506,918.14,1.09
508,920.2,0.407
510,922.36,1.421
512,924.41,0.324
514,926.47,-0.35
516,928.51,-1.442
518,930.59,-2.172
520,932.67,-1.662
522,934.75,-1.07
524,936.87,-0.044
526,938.96,0.698
528,941,1.591
530,943.14,1.892
532,945.21,0.422
534,947.27,0.641
536,949.36,-0.184
538,951.47,0.605
540,953.55,-0.226
542,955.57,-0.708
544,957.68,-0.601
546,959.77,-1.714
548,961.88,-0.811
550,963.92,0.128
552,966,0.647
554,968.03,2.123
556,970.13,1.173
558,972.22,1.882
560,974.33,1.355
562,976.35,0.298
564,978.47,0.789
566,980.52,0.022
568,982.66,-0.232
570,984.69,0.41
572,986.81,0.757
574,988.86,0.281
574.5,989.39,0

File: IMT_Wood_TGA_N2_2K_R1.csv
Time (s),Temperature (K),Mass (mg)
0,383,4.975
103,386,4.975
193,389,4.974
283,392,4.973
373,395,4.972
463,398,4.971
553,401,4.97
642,404,4.968
732,407,4.967
822,410,4.965
912,413,4.963
1002,416,4.961
1092,419,4.959
1182,422,4.957
1272,425,4.954
1361,428,4.951
1451,431,4.947
1541,434,4.943
1631,437,4.939
1721,440,4.934
1811,443,4.928
1901,446,4.922
1991,449,4.915
2081,452,4.908
2171,455,4.901
2261,458,4.893
2351,461,4.884
2441,464,4.875
2530,467,4.866
2620,470,4.856
2711,473,4.845
2800,476,4.835
2890,479,4.823
2980,482,4.812
3070,485,4.799
3160,488,4.785
3250,491,4.771
3340,494,4.755
3430,497,4.738
3520,500,4.719
3610,503,4.698
3699,506,4.676
3790,509,4.652
3879,512,4.627
3970,515,4.598
4059,518,4.57
4149,521,4.54
4239,524,4.509
4329,527,4.476
4419,530,4.441
4509,533,4.408
4599,536,4.372
4689,539,4.334
4779,542,4.295
4869,545,4.254
4959,548,4.212
5049,551,4.167
5139,554,4.122
5229,557,4.073
5318,560,4.024
5408,563,3.97
5498,566,3.915
5588,569,3.859
5678,572,3.796
5768,575,3.731
5858,578,3.662
5948,581,3.589
6038,584,3.512
6128,587,3.431
6218,590,3.347
6308,593,3.257
6398,596,3.162
6487,599,3.066
6577,602,2.966
6667,605,2.862
6757,608,2.758
6847,611,2.647
6937,614,2.535
7027,617,2.419
7117,620,2.299
7207,623,2.174
7297,626,2.048
7387,629,1.92
7477,632,1.792
7567,635,1.669
7657,638,1.556
7747,641,1.459
7836,644,1.381
7926,647,1.323
8016,650,1.282
8106,653,1.254
8196,656,1.235
8286,659,1.221
8376,662,1.21
8466,665,1.199
8556,668,1.189
8646,671,1.179
8736,674,1.17
8826,677,1.161
8916,680,1.152
9006,683,1.143
9095,686,1.135
9185,689,1.127
9276,692,1.118
9365,695,1.111
9455,698,1.103
9545,701,1.095
9635,704,1.087
9725,707,1.08
9815,710,1.073
9905,713,1.066
9995,716,1.06
10085,719,1.053
10175,722,1.047
10265,725,1.041
10355,728,1.035
10445,731,1.03
10535,734,1.025
10625,737,1.02
10715,740,1.015
10805,743,1.01
10895,746,1.005
10985,749,1.001
11075,752,0.997
11165,755,0.993
11255,758,0.988
11345,761,0.984
11435,764,0.981
11525,767,0.977
11615,770,0.973
11705,773,0.969
11795,776,0.965
11885,779,0.962
11975,782,0.958
12065,785,0.955
12155,788,0.951
12245,791,0.948
12335,794,0.944
12425,797,0.941
12515,800,0.937
12605,803,0.934
12695,806,0.931
12785,809,0.927
12875,812,0.924
12965,815,0.921
13055,818,0.918
13145,821,0.914
13235,824,0.911
13325,827,0.908
13415,830,0.905
13505,833,0.902
13595,836,0.899
13685,839,0.896
13775,842,0.893
13865,845,0.89
13955,848,0.887
14045,851,0.884
14135,854,0.881
14225,857,0.879
14315,860,0.876
14405,863,0.873
14495,866,0.87
14585,869,0.867
14675,872,0.865
14765,875,0.862
14855,878,0.859
14945,881,0.857
15035,884,0.854
15125,887,0.851
15215,890,0.849
15305,893,0.847
15395,896,0.844
15485,899,0.842
15575,902,0.839
15665,905,0.837
15755,908,0.835
15845,911,0.832
15935,914,0.83
16025,917,0.828
16115,920,0.826
16205,923,0.823
16295,926,0.821
16385,929,0.819
16475,932,0.817
16565,935,0.816
16655,938,0.813
16745,941,0.811
16835,944,0.81
16925,947,0.808
17015,950,0.806
17105,953,0.804
17195,956,0.803
17285,959,0.801
17375,962,0.8
17465,965,0.798
17555,968,0.796
17645,971,0.795
17735,974,0.793
17825,977,0.792
17915,980,0.79
18005,983,0.788
18095,986,0.787
18185,989,0.785
18275,992,0.784
18365,995,0.782
18455,998,0.781
18545,1001,0.78
18635,1004,0.778
18725,1007,0.777
18815,1010,0.775
18905,1013,0.774
18995,1016,0.772
19085,1019,0.771
19175,1022,0.769
19265,1025,0.768
19355,1028,0.767
19445,1031,0.765
19535,1034,0.764
19625,1037,0.763
19715,1040,0.762
19805,1043,0.76
19895,1046,0.759
19985,1049,0.758
20075,1052,0.756
20165,1055,0.755
20255,1058,0.754
20345,1061,0.752
20435,1064,0.751
20525,1067,0.75
20615,1070,0.748
20705,1073,0.747
20795,1076,0.745
20885,1079,0.744
20975,1082,0.743
21065,1085,0.741
21155,1088,0.74
21245,1091,0.738
21335,1094,0.737
21425,1097,0.735
21515,1100,0.733
21605,1103,0.731
21695,1106,0.73
21785,1109,0.728
21875,1112,0.726
21965,1115,0.724
22055,1118,0.722
22145,1121,0.72
22235,1124,0.718
22325,1127,0.716
22415,1130,0.714
22505,1133,0.711
22595,1136,0.709
22685,1139,0.707
22775,1142,0.704
22865,1145,0.702
22955,1148,0.699
23045,1151,0.696
23135,1154,0.693
23225,1157,0.691
23315,1160,0.687
23405,1163,0.684
23495,1166,0.681
23585,1169,0.677
23675,1172,0.674
23699,1173,0.673

File: IMT_Wood_TGA_N2_5K_R1.csv
Time (s),Temperature (K),Mass (mg)
0,383,4.877
50,386,4.878
87,389,4.877
123,392,4.877
159,395,4.877
195,398,4.876
231,401,4.876
267,404,4.875
303,407,4.875
339,410,4.874
375,413,4.873
410,416,4.872
446,419,4.871
482,422,4.87
518,425,4.868
554,428,4.867
590,431,4.865
626,434,4.863
662,437,4.86
698,440,4.858
734,443,4.855
770,446,4.851
806,449,4.847
841,452,4.843
877,455,4.838
913,458,4.832
949,461,4.826
985,464,4.82
1021,467,4.813
1057,470,4.805
1093,473,4.797
1129,476,4.788
1165,479,4.779
1201,482,4.769
1237,485,4.759
1273,488,4.749
1309,491,4.738
1344,494,4.726
1380,497,4.714
1416,500,4.702
1452,503,4.688
1488,506,4.673
1524,509,4.656
1560,512,4.639
1596,515,4.62
1632,518,4.599
1668,521,4.576
1704,524,4.551
1740,527,4.525
1776,530,4.495
1812,533,4.467
1848,536,4.437
1883,539,4.405
1919,542,4.372
1955,545,4.338
1991,548,4.302
2027,551,4.266
2063,554,4.229
2099,557,4.19
2135,560,4.15
2171,563,4.108
2207,566,4.067
2243,569,4.022
2279,572,3.977
2315,575,3.929
2351,578,3.878
2386,581,3.826
2422,584,3.772
2458,587,3.714
2494,590,3.652
2530,593,3.588
2566,596,3.519
2602,599,3.446
2638,602,3.371
2674,605,3.292
2710,608,3.209
2746,611,3.122
2782,614,3.033
2818,617,2.941
2854,620,2.846
2890,623,2.748
2925,626,2.651
2961,629,2.547
2997,632,2.44
3033,635,2.329
3069,638,2.216
3105,641,2.101
3141,644,1.984
3177,647,1.866
3213,650,1.751
3249,653,1.641
3285,656,1.54
3321,659,1.45
3357,662,1.374
3393,665,1.311
3428,668,1.263
3464,671,1.227
3500,674,1.2
3536,677,1.181
3572,680,1.166
3608,683,1.154
3644,686,1.144
3680,689,1.134
3716,692,1.125
3752,695,1.117
3788,698,1.108
3824,701,1.099
3860,704,1.091
3896,707,1.083
3932,710,1.075
3968,713,1.067
4004,716,1.059
4040,719,1.052
4076,722,1.045
4112,725,1.037
4148,728,1.03
4184,731,1.023
4220,734,1.017
4256,737,1.01
4292,740,1.004
4328,743,0.998
4364,746,0.992
4400,749,0.986
4436,752,0.981
4472,755,0.976
4508,758,0.971
4544,761,0.966
4580,764,0.961
4616,767,0.957
4652,770,0.952
4688,773,0.948
4724,776,0.944
4760,779,0.94
4796,782,0.936
4832,785,0.933
4868,788,0.929
4904,791,0.925
4940,794,0.922
4976,797,0.918
5012,800,0.915
5048,803,0.912
5084,806,0.909
5120,809,0.905
5156,812,0.902
5192,815,0.899
5228,818,0.896
5264,821,0.893
5300,824,0.89
5336,827,0.887
5372,830,0.884
5408,833,0.881
5444,836,0.878
5480,839,0.875
5516,842,0.872
5552,845,0.869
5588,848,0.867
5624,851,0.864
5660,854,0.861
5696,857,0.858
5732,860,0.856
5768,863,0.853
5804,866,0.851
5840,869,0.848
5876,872,0.845
5912,875,0.843
5948,878,0.841
5984,881,0.838
6020,884,0.835
6056,887,0.833
6092,890,0.831
6128,893,0.828
6164,896,0.826
6200,899,0.824
6236,902,0.821
6272,905,0.819
6308,908,0.817
6344,911,0.815
6380,914,0.813
6416,917,0.811
6452,920,0.809
6488,923,0.807
6524,926,0.805
6560,929,0.803
6596,932,0.801
6632,935,0.799
6668,938,0.797
6704,941,0.795
6740,944,0.793
6776,947,0.792
6812,950,0.79
6848,953,0.788
6884,956,0.786
6920,959,0.785
6956,962,0.783
6992,965,0.782
7028,968,0.78
7064,971,0.779
7100,974,0.777
7136,977,0.776
7172,980,0.774
7208,983,0.773
7244,986,0.772
7280,989,0.77
7316,992,0.769
7352,995,0.767
7388,998,0.766
7424,1001,0.764
7460,1004,0.763
7496,1007,0.762
7532,1010,0.761
7568,1013,0.76
7604,1016,0.758
7640,1019,0.757
7676,1022,0.756
7712,1025,0.755
7748,1028,0.753
7784,1031,0.752
7820,1034,0.751
7856,1037,0.75
7892,1040,0.748
7928,1043,0.747
7964,1046,0.746
8000,1049,0.745
8036,1052,0.744
8072,1055,0.742
8108,1058,0.741
8144,1061,0.74
8180,1064,0.739
8216,1067,0.738
8252,1070,0.736
8288,1073,0.735
8324,1076,0.734
8360,1079,0.733
8396,1082,0.732
8432,1085,0.73
8468,1088,0.729
8504,1091,0.728
8540,1094,0.727
8576,1097,0.725
8612,1100,0.724
8648,1103,0.723
8684,1106,0.722
8720,1109,0.72
8756,1112,0.719
8792,1115,0.718
8828,1118,0.716
8864,1121,0.715
8900,1124,0.713
8936,1127,0.712
8972,1130,0.711
9008,1133,0.709
9044,1136,0.707
9080,1139,0.706
9116,1142,0.704
9152,1145,0.703
9188,1148,0.701
9224,1151,0.699
9260,1154,0.697
9296,1157,0.696
9332,1160,0.694
9368,1163,0.692
9404,1166,0.69
9440,1169,0.688
9476,1172,0.686
9479,1173,0.686

File: IMT_Wood_TGA_N2_10K_R1.csv
Time (s),Temperature (K),Mass (mg)
0,383,4.921
31,386,4.923
51,389,4.923
70,392,4.923
88,395,4.923
106,398,4.922
124,401,4.922
142,404,4.922
160,407,4.921
178,410,4.921
196,413,4.92
213,416,4.92
231,419,4.919
249,422,4.918
267,425,4.917
285,428,4.916
303,431,4.915
321,434,4.913
339,437,4.912
357,440,4.91
375,443,4.908
392,446,4.905
410,449,4.903
428,452,4.899
446,455,4.896
464,458,4.892
482,461,4.887
500,464,4.882
518,467,4.877
536,470,4.871
554,473,4.864
572,476,4.856
590,479,4.848
608,482,4.839
626,485,4.83
643,488,4.821
661,491,4.811
679,494,4.8
697,497,4.789
715,500,4.777
733,503,4.765
751,506,4.752
769,509,4.739
787,512,4.725
805,515,4.71
823,518,4.694
841,521,4.676
859,524,4.657
877,527,4.636
894,530,4.615
912,533,4.591
930,536,4.565
948,539,4.537
966,542,4.508
984,545,4.477
1002,548,4.444
1020,551,4.41
1038,554,4.375
1056,557,4.338
1074,560,4.301
1092,563,4.263
1110,566,4.223
1128,569,4.183
1146,572,4.142
1163,575,4.102
1181,578,4.059
1199,581,4.014
1217,584,3.968
1235,587,3.92
1253,590,3.87
1271,593,3.817
1289,596,3.762
1307,599,3.704
1325,602,3.643
1343,605,3.578
1361,608,3.511
1379,611,3.439
1397,614,3.365
1414,617,3.291
1432,620,3.21
1450,623,3.126
1468,626,3.04
1486,629,2.95
1504,632,2.858
1522,635,2.763
1540,638,2.665
1558,641,2.563
1576,644,2.459
1594,647,2.351
1612,650,2.24
1630,653,2.127
1648,656,2.013
1666,659,1.899
1684,662,1.788
1701,665,1.687
1719,668,1.586
1737,671,1.495
1755,674,1.413
1773,677,1.344
1791,680,1.287
1809,683,1.243
1827,686,1.208
1845,689,1.184
1863,692,1.166
1881,695,1.152
1899,698,1.141
1917,701,1.131
1935,704,1.122
1953,707,1.113
1971,710,1.104
1989,713,1.096
2007,716,1.088
2025,719,1.079
2043,722,1.071
2061,725,1.063
2079,728,1.056
2097,731,1.048
2115,734,1.041
2133,737,1.033
2151,740,1.026
2169,743,1.019
2187,746,1.012
2205,749,1.006
2223,752,1
2241,755,0.993
2259,758,0.987
2277,761,0.982
2295,764,0.976
2313,767,0.971
2331,770,0.966
2349,773,0.961
2367,776,0.956
2385,779,0.951
2403,782,0.947
2421,785,0.942
2439,788,0.938
2457,791,0.934
2475,794,0.93
2493,797,0.927
2511,800,0.923
2529,803,0.919
2547,806,0.916
2565,809,0.912
2583,812,0.909
2601,815,0.905
2619,818,0.902
2637,821,0.899
2655,824,0.896
2673,827,0.892
2691,830,0.889
2709,833,0.886
2727,836,0.883
2745,839,0.88
2763,842,0.877
2781,845,0.874
2799,848,0.871
2817,851,0.868
2835,854,0.866
2853,857,0.863
2871,860,0.86
2889,863,0.857
2907,866,0.855
2925,869,0.852
2943,872,0.849
2961,875,0.847
2979,878,0.844
2997,881,0.841
3015,884,0.839
3033,887,0.836
3051,890,0.834
3069,893,0.831
3087,896,0.828
3105,899,0.826
3123,902,0.824
3141,905,0.821
3159,908,0.819
3177,911,0.816
3195,914,0.814
3213,917,0.812
3231,920,0.81
3249,923,0.807
3267,926,0.805
3285,929,0.803
3303,932,0.801
3321,935,0.799
3338,938,0.797
3357,941,0.795
3375,944,0.793
3393,947,0.791
3411,950,0.789
3429,953,0.787
3447,956,0.785
3465,959,0.784
3483,962,0.782
3500,965,0.78
3519,968,0.778
3537,971,0.777
3554,974,0.775
3573,977,0.774
3591,980,0.772
3608,983,0.771
3627,986,0.769
3645,989,0.768
3663,992,0.766
3680,995,0.765
3698,998,0.763
3717,1001,0.762
3734,1004,0.761
3752,1007,0.759
3771,1010,0.758
3789,1013,0.756
3807,1016,0.755
3825,1019,0.754
3843,1022,0.752
3860,1025,0.751
3879,1028,0.75
3897,1031,0.749
3914,1034,0.748
3933,1037,0.746
3950,1040,0.745
3969,1043,0.744
3987,1046,0.743
4005,1049,0.741
4023,1052,0.74
4041,1055,0.739
4058,1058,0.738
4077,1061,0.736
4095,1064,0.735
4112,1067,0.734
4131,1070,0.733
4149,1073,0.732
4166,1076,0.731
4185,1079,0.729
4202,1082,0.728
4221,1085,0.727
4239,1088,0.726
4257,1091,0.725
4275,1094,0.724
4292,1097,0.722
4311,1100,0.721
4329,1103,0.72
4347,1106,0.719
4365,1109,0.718
4383,1112,0.717
4401,1115,0.716
4419,1118,0.714
4437,1121,0.713
4455,1124,0.712
4473,1127,0.711
4491,1130,0.71
4509,1133,0.708
4527,1136,0.707
4545,1139,0.706
4563,1142,0.705
4581,1145,0.703
4599,1148,0.702
4617,1151,0.701
4635,1154,0.699
4653,1157,0.698
4671,1160,0.697
4689,1163,0.695
4707,1166,0.694
4725,1169,0.692
4739,1171.5,0.691

File: IMT_Wood_TGA_N2_20K_R1.csv
Time (s),Temperature (K),Mass (mg)
0,383,5.11
21,386,5.113
32,389,5.114
42,392,5.114
52,395,5.113
61,398,5.113
70,401,5.113
79,404,5.113
88,407,5.112
97,410,5.112
106,413,5.112
115,416,5.111
124,419,5.111
133,422,5.11
142,425,5.109
151,428,5.109
160,431,5.108
169,434,5.107
178,437,5.106
186,440,5.105
195,443,5.103
204,446,5.102
213,449,5.1
222,452,5.098
231,455,5.096
240,458,5.093
249,461,5.09
258,464,5.087
267,467,5.083
276,470,5.079
285,473,5.074
294,476,5.069
303,479,5.064
311,482,5.058
320,485,5.051
329,488,5.044
338,491,5.036
347,494,5.027
356,497,5.018
365,500,5.008
374,503,4.998
383,506,4.987
392,509,4.976
401,512,4.964
410,515,4.951
419,518,4.938
428,521,4.924
436,524,4.911
445,527,4.896
454,530,4.879
463,533,4.86
472,536,4.84
481,539,4.819
490,542,4.795
499,545,4.77
508,548,4.742
517,551,4.713
526,554,4.683
535,557,4.651
544,560,4.617
553,563,4.582
561,566,4.55
570,569,4.512
579,572,4.474
588,575,4.434
597,578,4.393
606,581,4.35
615,584,4.307
624,587,4.264
633,590,4.219
642,593,4.174
651,596,4.127
660,599,4.079
669,602,4.028
678,605,3.976
687,608,3.921
695,611,3.87
704,614,3.81
713,617,3.747
722,620,3.681
731,623,3.611
740,626,3.538
749,629,3.462
758,632,3.383
767,635,3.3
776,638,3.215
785,641,3.128
794,644,3.037
803,647,2.942
812,650,2.845
821,653,2.745
829,656,2.652
838,659,2.545
847,662,2.435
856,665,2.322
865,668,2.207
874,671,2.092
883,674,1.978
892,677,1.868
901,680,1.762
910,683,1.663
919,686,1.571
928,689,1.488
937,692,1.415
946,695,1.352
954,698,1.305
963,701,1.262
972,704,1.228
981,707,1.203
990,710,1.186
999,713,1.171
1008,716,1.159
1017,719,1.149
1026,722,1.139
1035,725,1.13
1044,728,1.121
1053,731,1.112
1062,734,1.104
1071,737,1.096
1080,740,1.087
1089,743,1.079
1098,746,1.072
1107,749,1.064
1116,752,1.056
1125,755,1.048
1134,758,1.041
1143,761,1.034
1152,764,1.027
1161,767,1.021
1170,770,1.014
1179,773,1.008
1188,776,1.002
1197,779,0.996
1206,782,0.99
1215,785,0.985
1224,788,0.98
1233,791,0.975
1242,794,0.97
1251,797,0.966
1260,800,0.961
1269,803,0.957
1278,806,0.952
1287,809,0.948
1296,812,0.945
1305,815,0.941
1314,818,0.938
1323,821,0.934
1332,824,0.93
1341,827,0.927
1350,830,0.923
1359,833,0.92
1368,836,0.917
1377,839,0.914
1386,842,0.91
1395,845,0.907
1404,848,0.904
1413,851,0.901
1422,854,0.898
1431,857,0.895
1440,860,0.892
1449,863,0.889
1458,866,0.887
1467,869,0.884
1476,872,0.881
1485,875,0.878
2979,878,0.84
2997,881,0.84
3015,884,0.84
3033,887,0.84
3051,890,0.83
3069,893,0.83
3087,896,0.83
3105,899,0.83
3123,902,0.82
3141,905,0.82
3159,908,0.82
3177,911,0.82
3195,914,0.81
3213,917,0.81
3231,920,0.81
3249,923,0.81
3267,926,0.81
3285,929,0.8
3303,932,0.8
3321,935,0.8
3338,938,0.8
3357,941,0.79
3375,944,0.79
3393,947,0.79
3411,950,0.79
3429,953,0.79
3447,956,0.79
3465,959,0.78
3483,962,0.78
3500,965,0.78
3519,968,0.78
3537,971,0.78
3554,974,0.78
3573,977,0.77
3591,980,0.77
3608,983,0.77
3627,986,0.77
3645,989,0.77
3663,992,0.77
3680,995,0.76
3698,998,0.76
3717,1001,0.76
3734,1004,0.76
3752,1007,0.76
3771,1010,0.76
3789,1013,0.76
3807,1016,0.76
3825,1019,0.75
3843,1022,0.75
3860,1025,0.75
3879,1028,0.75
3897,1031,0.75
3914,1034,0.75
3933,1037,0.75
3950,1040,0.74
3969,1043,0.74
3987,1046,0.74
4005,1049,0.74
4023,1052,0.74
4041,1055,0.74
4058,1058,0.74
4077,1061,0.74
4095,1064,0.74
4112,1067,0.73
4131,1070,0.73
4149,1073,0.73
4166,1076,0.73
4185,1079,0.73
4202,1082,0.73
4221,1085,0.73
4239,1088,0.73
4257,1091,0.72
4275,1094,0.72
4292,1097,0.72
4311,1100,0.72
4329,1103,0.72
4347,1106,0.72
4365,1109,0.72
4383,1112,0.72
4401,1115,0.72
4419,1118,0.71
4437,1121,0.71
4455,1124,0.71
4473,1127,0.71
4491,1130,0.71
4509,1133,0.71
4527,1136,0.71
4545,1139,0.71
4563,1142,0.7
4581,1145,0.7
4599,1148,0.7
4617,1151,0.7
4635,1154,0.7
4653,1157,0.7
4671,1160,0.7
4689,1163,0.7
4707,1166,0.69
4725,1169,0.69
4739,1171.5,0.69

File: IMT_Wood_TGA_O2-20_2K_R1.csv
Time (s),Temperature (K),Mass (mg)
0,383,4.993
103,386,4.993
193,389,4.992
283,392,4.992
373,395,4.991
462,398,4.99
553,401,4.989
642,404,4.988
732,407,4.987
822,410,4.985
912,413,4.983
1002,416,4.981
1092,419,4.979
1182,422,4.977
1271,425,4.974
1361,428,4.971
1451,431,4.967
1541,434,4.963
1631,437,4.959
1721,440,4.954
1811,443,4.949
1901,446,4.944
1991,449,4.939
2081,452,4.933
2171,455,4.927
2261,458,4.92
2351,461,4.913
2441,464,4.905
2531,467,4.897
2620,470,4.888
2710,473,4.878
2800,476,4.867
2890,479,4.855
2980,482,4.843
3070,485,4.829
3160,488,4.815
3250,491,4.799
3340,494,4.782
3430,497,4.763
3519,500,4.743
3609,503,4.721
3700,506,4.696
3790,509,4.67
3879,512,4.642
3969,515,4.613
4059,518,4.581
4149,521,4.547
4239,524,4.512
4329,527,4.474
4419,530,4.434
4509,533,4.392
4599,536,4.348
4689,539,4.3
4779,542,4.249
4869,545,4.194
4959,548,4.135
5049,551,4.072
5139,554,4.004
5228,557,3.931
5318,560,3.849
5408,563,3.761
5498,566,3.668
5588,569,3.562
5678,572,3.448
5768,575,3.32
5858,578,3.177
5948,581,3.012
6038,584,2.819
6128,587,2.594
6218,590,2.359
6307,593,2.153
6397,596,1.994
6487,599,1.879
6577,602,1.793
6667,605,1.723
6757,608,1.664
6847,611,1.611
6937,614,1.564
7027,617,1.521
7117,620,1.482
7207,623,1.445
7297,626,1.409
7387,629,1.376
7477,632,1.343
7567,635,1.312
7657,638,1.282
7746,641,1.253
7836,644,1.223
7926,647,1.195
8016,650,1.166
8106,653,1.137
8196,656,1.109
8286,659,1.08
8376,662,1.05
8466,665,1.02
8556,668,0.99
8645,671,0.959
8736,674,0.926
8826,677,0.893
8916,680,0.859
9006,683,0.823
9096,686,0.786
9185,689,0.749
9275,692,0.709
9365,695,0.669
9455,698,0.628
9545,701,0.586
9635,704,0.543
9725,707,0.5
9815,710,0.456
9905,713,0.411
9995,716,0.365
10085,719,0.319
10175,722,0.271
10265,725,0.222
10355,728,0.174
10445,731,0.124
10535,734,0.082
10625,737,0.046
10715,740,0.024
10805,743,0.014
10895,746,0.011
10985,749,0.009
11075,752,0.008
11165,755,0.007
11255,758,0.007
11345,761,0.006
11435,764,0.005
11525,767,0.005
11615,770,0.004
11705,773,0.004
11795,776,0.003
11885,779,0.003
11975,782,0.002
12065,785,0.002
12155,788,0.002
12245,791,0.002
12335,794,0.002
12425,797,0.001
12515,800,0.001
12605,803,0.001
12695,806,0.001
12785,809,0.001
12875,812,0.001
12965,815,0
13055,818,0
13145,821,0
13235,824,0
13325,827,0
13415,830,0
13505,833,0
13595,836,-0.001
13685,839,-0.001
13775,842,-0.001
13865,845,-0.001
13955,848,-0.001
14045,851,-0.002
14135,854,-0.002
14225,857,-0.002
14315,860,-0.002
14405,863,-0.002
14495,866,-0.002
14585,869,-0.002
14675,872,-0.002
14765,875,-0.003
14855,878,-0.003
14945,881,-0.003
15035,884,-0.003
15125,887,-0.003
15215,890,-0.003
15305,893,-0.003
15395,896,-0.003
15485,899,-0.004
15575,902,-0.003
15665,905,-0.004
15755,908,-0.004
15845,911,-0.004
15935,914,-0.004
16025,917,-0.004
16115,920,-0.004
16205,923,-0.004
16295,926,-0.004
16385,929,-0.004
16475,932,-0.004
16565,935,-0.004
16655,938,-0.005
16745,941,-0.005
16835,944,-0.005
16925,947,-0.005
17015,950,-0.005
17105,953,-0.005
17195,956,-0.005
17285,959,-0.005
17375,962,-0.005
17465,965,-0.005
17555,968,-0.005
17645,971,-0.005
17735,974,-0.006
17825,977,-0.006
17915,980,-0.006
18005,983,-0.006
18095,986,-0.006
18185,989,-0.006
18275,992,-0.006
18365,995,-0.006
18455,998,-0.006
18545,1001,-0.006
18635,1004,-0.006
18725,1007,-0.006
18815,1010,-0.006
18905,1013,-0.006
18995,1016,-0.006
19085,1019,-0.006
19175,1022,-0.007
19265,1025,-0.007
19355,1028,-0.007
19445,1031,-0.007
19535,1034,-0.007
19625,1037,-0.007
19715,1040,-0.007
19805,1043,-0.007
19895,1046,-0.007
19985,1049,-0.007
20075,1052,-0.007
20165,1055,-0.007
20255,1058,-0.007
20345,1061,-0.007
20435,1064,-0.007
20525,1067,-0.007
20615,1070,-0.008
20705,1073,-0.007
20795,1076,-0.007
20885,1079,-0.007
20975,1082,-0.007
21065,1085,-0.008
21155,1088,-0.008
21245,1091,-0.008
21335,1094,-0.008
21425,1097,-0.008
21515,1100,-0.008
21605,1103,-0.008
21695,1106,-0.008
21785,1109,-0.008
21875,1112,-0.008
21965,1115,-0.009
22055,1118,-0.009
22145,1121,-0.009
22235,1124,-0.009
22325,1127,-0.009
22415,1130,-0.009
22505,1133,-0.009
22595,1136,-0.01
22685,1139,-0.01
22775,1142,-0.01
22865,1145,-0.01
22955,1148,-0.01
23045,1151,-0.011
23135,1154,-0.011
23225,1157,-0.011
23315,1160,-0.012
23405,1163,-0.012
23495,1166,-0.012
23585,1169,-0.012
23675,1172,-0.012
23699,1173,-0.013