Folder: matl-db/Wood/Calibration_Data/IMT (part 8)

File: IMT_Wood_TGA_O2-20_5K_R1.csv
Time (s),Temperature (K),Mass (mg)
0,383,4.615
50,386,4.616
87,389,4.616
123,392,4.616
159,395,4.615
195,398,4.615
231,401,4.615
267,404,4.614
303,407,4.613
338,410,4.613
374,413,4.612
410,416,4.611
446,419,4.61
482,422,4.609
518,425,4.607
554,428,4.605
590,431,4.603
626,434,4.601
661,437,4.599
697,440,4.596
733,443,4.593
769,446,4.589
805,449,4.586
841,452,4.582
877,455,4.577
913,458,4.573
949,461,4.568
985,464,4.563
1021,467,4.557
1057,470,4.551
1093,473,4.544
1128,476,4.537
1164,479,4.529
1200,482,4.521
1236,485,4.512
1272,488,4.503
1308,491,4.492
1344,494,4.481
1380,497,4.469
1416,500,4.456
1452,503,4.442
1488,506,4.427
1524,509,4.41
1560,512,4.391
1596,515,4.371
1632,518,4.349
1667,521,4.326
1703,524,4.3
1739,527,4.273
1775,530,4.243
1811,533,4.212
1847,536,4.18
1883,539,4.146
1919,542,4.11
1955,545,4.072
1991,548,4.032
2027,551,3.99
2063,554,3.945
2099,557,3.898
2135,560,3.848
2171,563,3.795
2206,566,3.74
2242,569,3.678
2278,572,3.612
2314,575,3.541
2350,578,3.463
2386,581,3.379
2422,584,3.287
2458,587,3.186
2494,590,3.076
2530,593,2.954
2566,596,2.815
2602,599,2.653
2638,602,2.464
2674,605,2.251
2709,608,2.046
2745,611,1.87
2781,614,1.742
2817,617,1.655
2853,620,1.59
2889,623,1.537
2925,626,1.491
2961,629,1.451
2997,632,1.414
3033,635,1.38
3069,638,1.349
3105,641,1.319
3141,644,1.29
3177,647,1.263
3212,650,1.237
3249,653,1.21
3284,656,1.185
3320,659,1.16
3356,662,1.135
3392,665,1.111
3428,668,1.086
3464,671,1.062
3500,674,1.038
3536,677,1.013
3572,680,0.988
3608,683,0.963
3644,686,0.937
3680,689,0.911
3716,692,0.884
3751,695,0.857
3787,698,0.828
3823,701,0.798
3859,704,0.768
3895,707,0.735
3931,710,0.702
3967,713,0.667
4003,716,0.632
4039,719,0.596
4075,722,0.559
4111,725,0.522
4147,728,0.484
4183,731,0.445
4219,734,0.406
4255,737,0.365
4291,740,0.324
4327,743,0.281
4363,746,0.237
4399,749,0.191
4435,752,0.145
4471,755,0.101
4507,758,0.066
4543,761,0.045
4579,764,0.035
4615,767,0.03
4651,770,0.028
4687,773,0.028
4723,776,0.028
4759,779,0.027
4795,782,0.027
4831,785,0.027
4867,788,0.026
4903,791,0.026
4939,794,0.026
4975,797,0.025
5011,800,0.025
5047,803,0.025
5083,806,0.025
5119,809,0.025
5155,812,0.025
5191,815,0.025
5227,818,0.025
5263,821,0.025
5299,824,0.025
5335,827,0.025
5371,830,0.025
5407,833,0.025
5443,836,0.025
5479,839,0.025
5515,842,0.025
5551,845,0.025
5587,848,0.025
5623,851,0.025
5659,854,0.025
5695,857,0.024
5731,860,0.024
5767,863,0.024
5803,866,0.024
5839,869,0.024
5875,872,0.024
5911,875,0.024
5947,878,0.024
5983,881,0.024
6019,884,0.024
6055,887,0.024
6091,890,0.024
6127,893,0.024
6163,896,0.024
6199,899,0.024
6235,902,0.024
6271,905,0.023
6307,908,0.023
6343,911,0.024
6379,914,0.024
6415,917,0.024
6451,920,0.024
6487,923,0.024
6523,926,0.024
6559,929,0.024
6595,932,0.024
6631,935,0.024
6667,938,0.024
6703,941,0.024
6739,944,0.024
6775,947,0.024
6811,950,0.024
6847,953,0.024
6883,956,0.024
6919,959,0.024
6955,962,0.024
6991,965,0.024
7027,968,0.024
7063,971,0.024
7099,974,0.024
7135,977,0.024
7171,980,0.024
7207,983,0.024
7243,986,0.024
7279,989,0.024
7315,992,0.024
7351,995,0.024
7387,998,0.024
7423,1001,0.024
7459,1004,0.025
7495,1007,0.024
7531,1010,0.024
7567,1013,0.025
7603,1016,0.025
7639,1019,0.025
7675,1022,0.025
7711,1025,0.025
7747,1028,0.025
7783,1031,0.025
7819,1034,0.025
7855,1037,0.025
7891,1040,0.025
7927,1043,0.025
7963,1046,0.025
7999,1049,0.025
8035,1052,0.025
8071,1055,0.025
8107,1058,0.025
8143,1061,0.025
8179,1064,0.025
8215,1067,0.025
8251,1070,0.025
8287,1073,0.024
8323,1076,0.025
8359,1079,0.025
8395,1082,0.025
8431,1085,0.025
8467,1088,0.025
8503,1091,0.025
8539,1094,0.025
8575,1097,0.025
8611,1100,0.025
8647,1103,0.024
8683,1106,0.025
8719,1109,0.025
8755,1112,0.025
8791,1115,0.025
8827,1118,0.025
8863,1121,0.025
8899,1124,0.025
8935,1127,0.025
8971,1130,0.025
9007,1133,0.025
9043,1136,0.024
9079,1139,0.024
9115,1142,0.024
9151,1145,0.024
9187,1148,0.024
9223,1151,0.024
9259,1154,0.024
9295,1157,0.023
9331,1160,0.023
9367,1163,0.023
9403,1166,0.023
9439,1169,0.023
9475,1172,0.023
9479,1173,0.023

File: IMT_Wood_TGA_O2-20_10K_R1.csv
Time (s),Temperature (K),Mass (mg)
0,383,5.006
31,386,5.008
51,389,5.008
69,392,5.008
88,395,5.007
106,398,5.007
124,401,5.007
142,404,5.007
159,407,5.006
177,410,5.006
195,413,5.005
213,416,5.004
231,419,5.004
249,422,5.003
267,425,5.002
285,428,5
303,431,4.999
321,434,4.997
339,437,4.996
356,440,4.994
374,443,4.992
392,446,4.989
410,449,4.987
428,452,4.984
446,455,4.981
464,458,4.977
482,461,4.973
500,464,4.969
518,467,4.964
536,470,4.959
554,473,4.953
572,476,4.947
589,479,4.941
607,482,4.934
625,485,4.927
643,488,4.919
661,491,4.909
679,494,4.899
697,497,4.889
715,500,4.879
733,503,4.867
751,506,4.855
769,509,4.841
787,512,4.827
805,515,4.811
823,518,4.795
840,521,4.778
858,524,4.757
876,527,4.734
894,530,4.71
912,533,4.683
930,536,4.654
948,539,4.624
966,542,4.591
984,545,4.557
1002,548,4.52
1020,551,4.481
1038,554,4.44
1056,557,4.397
1074,560,4.352
1092,563,4.305
1109,566,4.258
1127,569,4.206
1145,572,4.151
1163,575,4.093
1181,578,4.032
1199,581,3.966
1217,584,3.896
1235,587,3.82
1253,590,3.738
1271,593,3.649
1289,596,3.552
1307,599,3.447
1325,602,3.331
1343,605,3.202
1360,608,3.066
1378,611,2.899
1396,614,2.704
1414,617,2.477
1432,620,2.235
1450,623,2.016
1468,626,1.855
1486,629,1.748
1504,632,1.674
1522,635,1.619
1540,638,1.573
1558,641,1.534
1576,644,1.498
1594,647,1.465
1612,650,1.434
1629,653,1.406
1647,656,1.378
1665,659,1.351
1683,662,1.324
1701,665,1.298
1719,668,1.273
1737,671,1.248
1755,674,1.224
1773,677,1.199
1791,680,1.173
1809,683,1.148
1827,686,1.123
1845,689,1.098
1863,692,1.072
1880,695,1.048
1898,698,1.021
1916,701,0.994
1934,704,0.967
1952,707,0.938
1970,710,0.91
1988,713,0.88
2006,716,0.849
2024,719,0.816
2042,722,0.781
2060,725,0.745
2078,728,0.708
2096,731,0.67
2114,734,0.631
2132,737,0.591
2150,740,0.551
2168,743,0.51
2186,746,0.469
2204,749,0.425
2222,752,0.381
2240,755,0.334
2258,758,0.284
2276,761,0.231
2293,764,0.174
2313,767,0.023
2330,770,0.021
2348,773,0.02
2366,776,0.019
2384,779,0.018
2402,782,0.018
2420,785,0.017
2438,788,0.017
2456,791,0.017
2474,794,0.017
2492,797,0.017
2510,800,0.017
2528,803,0.017
2546,806,0.017
2564,809,0.017
2582,812,0.017
2600,815,0.017
2618,818,0.017
2636,821,0.017
2654,824,0.016
2672,827,0.016
2690,830,0.016
2708,833,0.016
2726,836,0.016
2744,839,0.016
2762,842,0.016
2780,845,0.016
2798,848,0.016
2816,851,0.016
2834,854,0.016
2852,857,0.016
2870,860,0.016
2888,863,0.016
2906,866,0.016
2924,869,0.016
2942,872,0.016
2960,875,0.016
2978,878,0.016
2996,881,0.016
3014,884,0.016
3032,887,0.016
3050,890,0.016
3068,893,0.016
3086,896,0.015
3104,899,0.015
3122,902,0.015
3140,905,0.015
3158,908,0.015
3176,911,0.015
3194,914,0.015
3212,917,0.015
3230,920,0.015
3248,923,0.015
3266,926,0.015
3284,929,0.015
3302,932,0.015
3320,935,0.015
3338,938,0.015
3356,941,0.015
3374,944,0.015
3392,947,0.015
3410,950,0.015
3428,953,0.015
3446,956,0.015
3464,959,0.015
3482,962,0.015
3500,965,0.015
3518,968,0.015
3536,971,0.015
3554,974,0.015
3572,977,0.015
3590,980,0.015
3608,983,0.015
3626,986,0.015
3644,989,0.015
3662,992,0.015
3680,995,0.015
3698,998,0.015
3716,1001,0.015
3734,1004,0.015
3752,1007,0.015
3770,1010,0.015
3788,1013,0.015
3806,1016,0.015
3824,1019,0.015
3842,1022,0.015
3860,1025,0.015
3878,1028,0.015
3896,1031,0.015
3914,1034,0.015
3932,1037,0.015
3950,1040,0.015
3968,1043,0.015
3986,1046,0.015
4004,1049,0.015
4022,1052,0.015
4040,1055,0.015
4058,1058,0.015
4076,1061,0.015
4094,1064,0.015
4112,1067,0.015
4130,1070,0.015
4148,1073,0.015
4166,1076,0.015
4184,1079,0.015
4202,1082,0.015
4220,1085,0.015
4238,1088,0.015
4256,1091,0.015
4274,1094,0.015
4292,1097,0.014
4310,1100,0.014
4328,1103,0.014
4346,1106,0.014
4364,1109,0.014
4382,1112,0.014
4400,1115,0.014
4418,1118,0.014
4436,1121,0.014
4454,1124,0.014
4472,1127,0.014
4490,1130,0.014
4508,1133,0.014
4526,1136,0.013
4544,1139,0.013
4562,1142,0.013
4580,1145,0.013
4598,1148,0.013
4616,1151,0.013
4634,1154,0.013
4652,1157,0.013
4670,1160,0.013
4688,1163,0.013
4706,1166,0.012
4724,1169,0.012
4739,1171.5,0.012

File: IMT_Wood_TGA_O2-20_20K_R1.csv
Time (s),Temperature (K),Mass (mg)
0,383,4.299
21,386,4.301
31,389,4.302
41,392,4.302
51,395,4.302
60,398,4.302
69,401,4.301
78,404,4.301
87,407,4.301
96,410,4.3
105,413,4.3
114,416,4.299
123,419,4.299
132,422,4.298
141,425,4.298
150,428,4.297
159,431,4.296
168,434,4.295
177,437,4.294
186,440,4.293
195,443,4.291
203,446,4.29
212,449,4.288
221,452,4.285
230,455,4.283
239,458,4.28
248,461,4.277
257,464,4.274
266,467,4.271
275,470,4.267
284,473,4.263
293,476,4.258
302,479,4.253
311,482,4.247
320,485,4.241
328,488,4.235
337,491,4.228
346,494,4.22
355,497,4.212
364,500,4.203
373,503,4.193
382,506,4.183
391,509,4.173
400,512,4.162
409,515,4.15
418,518,4.137
427,521,4.124
436,524,4.109
445,527,4.093
453,530,4.078
462,533,4.059
471,536,4.038
480,539,4.016
489,542,3.992
498,545,3.966
507,548,3.939
516,551,3.91
525,554,3.879
534,557,3.847
543,560,3.813
552,563,3.777
561,566,3.74
570,569,3.701
579,572,3.66
587,575,3.622
596,578,3.577
605,581,3.53
614,584,3.481
623,587,3.429
632,590,3.375
641,593,3.316
650,596,3.253
659,599,3.186
668,602,3.114
677,605,3.037
686,608,2.953
695,611,2.863
704,614,2.766
712,617,2.671
721,620,2.553
730,623,2.421
739,626,2.268
748,629,2.094
757,632,1.904
766,635,1.719
775,638,1.565
784,641,1.463
793,644,1.399
802,647,1.352
811,650,1.313
820,653,1.28
829,656,1.25
837,659,1.226
846,662,1.201
855,665,1.177
864,668,1.154
873,671,1.132
882,674,1.111
891,677,1.09
900,680,1.069
909,683,1.05
918,686,1.03
927,689,1.01
936,692,0.99
945,695,0.97
954,698,0.949
963,701,0.929
972,704,0.908
981,707,0.887
990,710,0.866
999,713,0.844
1008,716,0.823
1017,719,0.8
1026,722,0.778
1035,725,0.754
1044,728,0.73
1053,731,0.704
1062,734,0.678
1071,737,0.65
1080,740,0.622
1089,743,0.593
1098,746,0.563
1107,749,0.532
1116,752,0.502
1125,755,0.471
1134,758,0.439
1143,761,0.408
1152,764,0.375
1161,767,0.341
1170,770,0.306
1179,773,0.268
1187,776,0.23
1198,779,0.029
1206,782,0.018
1215,785,0.016
1224,788,0.014
1233,791,0.014
1242,794,0.013
1251,797,0.013
1260,800,0.012
1269,803,0.012
1278,806,0.012
1287,809,0.012
1295,812,0.012
1305,815,0.011
1314,818,0.011
1322,821,0.011
1331,824,0.011
1340,827,0.011
1350,830,0.011
1358,833,0.011
1368,836,0.01
1376,839,0.01
1385,842,0.01
1394,845,0.01
1404,848,0.01
1412,851,0.01
1422,854,0.009
1430,857,0.009
1439,860,0.009
1448,863,0.009
1457,866,0.009
1466,869,0.009
1475,872,0.009
1484,875,0.008
1493,878,0.008
1502,881,0.008
1511,884,0.008
1520,887,0.008
1529,890,0.008
1538,893,0.008
1547,896,0.007
1556,899,0.007
1565,902,0.007
1574,905,0.007
1583,908,0.007
1592,911,0.007
1601,914,0.006
1610,917,0.006
1619,920,0.006
1628,923,0.006
1637,926,0.006
1646,929,0.006
1655,932,0.006
1664,935,0.006
1673,938,0.005
1682,941,0.005
1691,944,0.005
1700,947,0.005
1709,950,0.005
1718,953,0.005
1727,956,0.005
1736,959,0.005
1745,962,0.005
1754,965,0.004
1763,968,0.004
1772,971,0.004
1781,974,0.004
1790,977,0.004
1799,980,0.004
1808,983,0.004
1817,986,0.003
1826,989,0.003
1835,992,0.003
1844,995,0.003
1853,998,0.003
1862,1001,0.003
1871,1004,0.003
1880,1007,0.003
1889,1010,0.003
1898,1013,0.003
1907,1016,0.003
1916,1019,0.002
1925,1022,0.002
1934,1025,0.002
1943,1028,0.002
1952,1031,0.002
1961,1034,0.002
1970,1037,0.002
1979,1040,0.002
1988,1043,0.002
1997,1046,0.002
2006,1049,0.002
2015,1052,0.001
2024,1055,0.001
2033,1058,0.001
2042,1061,0.001
2051,1064,0.001
2060,1067,0.001
2069,1070,0.001
2078,1073,0.001
2087,1076,0
2096,1079,0
2105,1082,0
2114,1085,0
2123,1088,0
2132,1091,-0.001
2141,1094,-0.001
2150,1097,-0.001
2159,1100,-0.001
2168,1103,-0.001
2177,1106,-0.002
2186,1109,-0.002
2195,1112,-0.002
2204,1115,-0.002
2213,1118,-0.002
2222,1121,-0.002
2231,1124,-0.002
2240,1127,-0.003
2249,1130,-0.003
2258,1133,-0.003
2267,1136,-0.003
2276,1139,-0.003
2285,1142,-0.003
2294,1145,-0.004
2303,1148,-0.004
2312,1151,-0.004
2321,1154,-0.004
2330,1157,-0.005
2339,1160,-0.005
2348,1163,-0.005
2357,1166,-0.005
2366,1169,-0.005
2369,1170,-0.006