Folder: matl-db/Wood/Calibration_Data/IMT (part 6)

File: IMT_Wood_Cone_25kW_hor_R4.csv
Time (s),Mass (g),HRR (kW/m2)
0,83.20,0.81
10,84.08,0.61
20,83.95,-0.30
30,83.94,-1.15
40,83.84,2.00
50,83.75,-0.75
60,83.95,0.65
70,83.54,1.90
80,83.35,3.73
90,83.24,3.10
100,83.14,-2.90
110,82.68,206.69
120,81.46,155.28
130,80.65,115.12
140,80.04,98.23
150,79.46,85.31
160,78.87,75.23
170,78.39,72.59
180,77.96,65.67
190,77.54,61.61
200,77.06,59.74
210,76.66,57.59
220,76.34,58.39
230,75.96,56.67
240,75.54,55.21
250,75.14,54.99
260,74.84,53.95
270,74.46,51.88
280,74.14,52.24
290,73.66,53.09
300,73.34,53.22
310,73.04,53.99
320,72.63,52.10
330,72.24,50.26
340,71.94,50.08
350,71.54,52.80
360,71.23,52.17
370,70.84,51.81
380,70.44,50.54
390,70.04,49.91
400,69.74,50.49
410,69.34,50.78
420,69.04,47.98
430,68.64,48.94
440,68.34,47.41
450,67.96,47.76
460,67.54,48.02
470,67.14,47.28
480,66.85,45.44
490,66.46,47.14
500,66.14,48.42
510,65.74,45.56
520,65.44,45.27
530,65.04,49.78
540,64.64,50.61
550,64.24,47.52
560,63.86,48.70
570,63.54,48.73
580,63.15,47.64
590,62.83,46.36
600,62.43,46.46
610,62.14,46.67
620,61.66,48.37
630,61.32,49.27
640,60.96,50.17
650,60.64,49.56
660,60.23,48.60
670,59.86,47.67
680,59.54,49.23
690,59.13,48.60
700,58.74,51.56
710,58.44,50.35
720,58.05,51.04
730,57.74,51.83
740,57.33,52.61
750,56.94,52.90
760,56.59,53.12
770,56.23,54.45
780,55.85,56.07
790,55.44,56.50
800,55.15,59.12
810,54.75,57.83
820,54.44,56.65
830,54.04,57.97
840,53.73,59.51
850,53.25,58.91
860,52.93,61.33
870,52.45,59.98
880,52.15,59.38
890,51.74,60.24
900,51.43,61.23
910,51.03,63.35
920,50.73,64.17
930,50.25,63.36
940,49.93,63.83
950,49.44,65.26
960,49.05,64.82
970,48.65,67.59
980,48.25,65.19
990,47.85,67.96
1000,47.43,65.83
1010,47.03,65.39
1020,46.63,68.08
1030,46.25,70.48
1040,45.83,69.76
1050,45.43,72.28
1060,44.84,73.22
1070,44.43,71.70
1080,44.05,74.28
1090,43.65,75.06
1100,43.15,77.79
1110,42.71,79.08
1120,42.23,78.58
1130,41.67,74.97
1140,41.23,76.77
1150,40.73,80.04
1160,40.33,79.61
1170,39.74,80.17
1180,39.33,82.55
1190,38.75,81.80
1200,38.25,82.31
1210,37.75,82.00
1220,37.33,83.17
1230,36.75,83.44
1240,36.23,84.99
1250,35.64,87.32
1260,35.14,85.04
1270,34.63,83.79
1280,34.13,86.96
1290,33.55,88.55
1300,33.04,85.22
1310,32.54,86.37
1320,32.03,82.43
1330,31.53,82.47
1340,31.02,84.02
1350,30.53,83.74
1360,30.04,85.64
1370,29.44,79.33
1380,29.04,78.87
1390,28.63,81.81
1400,28.04,80.44
1410,27.53,77.89
1420,27.13,76.78
1430,26.62,74.12
1440,26.23,72.87
1450,25.82,71.48
1460,25.34,71.48
1470,24.94,69.36
1480,24.54,64.67
1490,24.14,65.51
1500,23.84,64.10
1510,23.42,61.39
1520,23.12,57.48
1530,22.83,58.29
1540,22.52,57.37
1550,22.12,53.85
1560,21.84,54.20
1570,21.62,50.96
1580,21.32,47.66
1590,21.04,45.47
1600,20.81,44.15
1610,20.62,44.88
1620,20.34,41.18
1630,20.12,39.74
1640,19.92,37.08
1650,19.64,35.45
1660,19.52,33.30
1670,19.32,35.18
1680,19.14,33.27
1690,18.94,30.03
1700,18.82,28.49
1710,18.64,28.25
1720,18.52,27.85
1730,18.42,26.20
1740,18.32,24.86
1750,18.13,27.16
1760,17.92,25.96
1770,17.82,27.60
1780,17.72,28.28
1790,17.62,25.92
1800,17.52,23.99
1810,17.34,23.79
1820,17.32,24.48
1830,17.22,23.80
1840,17.02,22.55
1850,17.02,21.08
1860,17.00,21.76
1870,16.82,20.39
1880,16.72,20.02
1890,16.62,20.72

File: IMT_Wood_Cone_25kW_hor_R5.csv
Time (s),Mass (g),HRR (kW/m2)
0,83.70,1.49
10,84.01,1.52
20,84.10,1.92
30,83.80,-0.72
40,83.92,0.78
50,83.81,0.03
60,83.62,2.48
70,83.51,0.21
80,83.31,-0.41
90,83.41,-1.72
100,83.04,-3.05
110,82.86,-0.99
120,82.89,-0.52
130,82.70,0.19
140,82.53,-0.34
150,82.61,-0.66
160,82.32,0.42
170,82.09,4.87
180,82.09,-0.74
190,81.90,1.37
200,81.60,0.57
210,81.52,1.13
220,81.40,4.80
230,81.22,4.10
240,81.12,2.82
250,80.92,4.30
260,80.81,6.43
270,80.63,6.39
280,80.52,6.29
290,80.22,77.05
300,79.52,115.09
310,78.82,102.64
320,78.20,88.96
330,77.70,80.07
340,77.12,71.14
350,76.62,62.77
360,76.22,58.52
370,75.80,55.78
380,75.40,52.61
390,75.00,48.63
400,74.70,49.12
410,74.32,46.95
420,74.00,46.13
430,73.60,43.22
440,73.30,43.62
450,73.00,42.76
460,72.60,43.60
470,72.31,44.58
480,71.91,43.85
490,71.60,43.85
500,71.22,44.28
510,70.90,45.30
520,70.50,45.01
530,70.20,45.85
540,69.90,46.63
550,69.52,46.87
560,69.12,46.25
570,68.81,44.22
580,68.50,47.28
590,68.12,48.21
600,67.80,47.83
610,67.50,47.92
620,67.10,46.01
630,66.71,45.62
640,66.39,45.16
650,66.02,47.44
660,65.70,45.11
670,65.40,46.53
680,65.00,47.37
690,64.62,47.33
700,64.30,46.66
710,64.00,44.11
720,63.60,46.69
730,63.20,46.88
740,62.90,48.01
750,62.51,48.95
760,62.20,48.36
770,61.82,47.66
780,61.50,47.70
790,61.10,46.98
800,60.72,47.10
810,60.40,48.82
820,60.01,47.11
830,59.61,47.92
840,59.32,46.45
850,58.92,44.48
860,58.60,47.29
870,58.21,46.73
880,57.90,45.41
890,57.51,46.29
900,57.20,49.37
910,56.79,50.49
920,56.51,50.95
930,56.12,48.73
940,55.80,47.96
950,55.41,49.15
960,55.09,49.74
970,54.69,47.06
980,54.40,51.35
990,53.99,52.29
1000,53.61,51.02
1010,53.29,51.35
1020,52.91,50.21
1030,52.59,50.82
1040,52.21,54.36
1050,51.89,53.41
1060,51.49,53.16
1070,51.20,52.85
1080,50.79,52.75
1090,50.41,54.49
1100,50.09,56.80
1110,49.69,56.54
1120,49.31,60.86
1130,48.99,58.95
1140,48.61,60.31
1150,48.19,59.97
1160,47.81,62.13
1170,47.39,62.11
1180,47.09,66.20
1190,46.69,68.13
1200,46.19,63.95
1210,45.80,64.55
1220,45.40,65.53
1230,44.99,65.71
1240,44.59,67.93
1250,44.19,70.22
1260,43.71,73.09
1270,43.29,71.89
1280,42.89,72.68
1290,42.41,70.75
1300,41.91,72.94
1310,41.49,73.91
1320,41.09,77.80
1330,40.60,74.30
1340,40.19,73.45
1350,39.69,73.45
1360,39.21,73.70
1370,38.70,76.16
1380,38.29,75.90
1390,37.88,76.43
1400,37.39,77.09
1410,36.90,74.14
1420,36.39,76.46
1430,35.99,77.17
1440,35.41,77.48
1450,35.00,78.03
1460,34.59,76.42
1470,34.00,76.11
1480,33.60,78.12
1490,33.09,79.01
1500,32.68,77.93
1510,32.15,75.39
1520,31.79,74.94
1530,31.30,75.47
1540,30.80,75.92
1550,30.30,76.04
1560,29.90,77.47
1570,29.49,74.00
1580,29.00,73.32
1590,28.60,73.79
1600,28.20,72.02
1610,27.80,71.34
1620,27.38,70.03
1630,26.90,69.40
1640,26.58,67.88
1650,26.18,66.02
1660,25.78,66.42
1670,25.38,63.55
1680,25.08,63.38
1690,24.68,62.10
1700,24.37,61.84
1710,24.09,58.50
1720,23.68,57.84
1730,23.30,58.77
1740,23.00,57.13
1750,22.70,53.34
1760,22.40,54.48
1770,22.09,55.71
1780,21.80,54.05
1790,21.60,51.30
1800,21.28,48.50
1810,21.06,47.20
1820,20.70,47.30
1830,20.48,46.72
1840,20.28,45.74
1850,20.06,44.03
1860,19.80,41.33
1870,19.67,38.22
1880,19.38,37.41
1890,19.18,35.02
1900,18.98,36.07
1910,18.78,33.46
1920,18.58,31.27
1930,18.38,33.48
1940,18.20,33.63
1950,18.08,31.59
1960,17.88,28.60
1970,17.68,29.84
1980,17.58,30.71
1990,17.38,28.15
2000,17.36,26.26
2010,17.08,26.65
2020,16.90,25.85
2030,16.79,24.50
2040,16.68,24.40
2050,16.51,25.11
2060,16.43,24.78
2070,16.36,22.25
2080,16.18,25.64
2090,16.08,24.03
2100,16.06,24.34
2110,15.88,22.31
2120,15.78,21.06
2130,15.68,24.00
2140,15.48,23.38
2150,15.38,21.71
2160,15.28,21.30
2170,15.18,20.62
2180,15.08,18.81
2190,15.07,22.75
2200,14.87,21.29
2210,14.78,19.78
2220,14.68,20.75
2230,14.58,21.96
2240,14.48,19.21
2250,14.38,21.80
2260,14.28,19.78

File: IMT_Wood_Cone_50kW_hor_R2.csv
Time (s),Mass (g),HRR (kW/m2)
0,96.00,2.77
10,94.00,1.27
20,93.41,192.59
30,92.10,177.85
40,91.20,143.14
50,90.31,130.67
60,89.60,121.24
70,88.81,112.59
80,88.20,106.05
90,87.42,99.11
100,86.81,99.57
110,86.20,92.11
120,85.52,90.46
130,84.83,88.59
140,84.40,87.26
150,83.73,85.86
160,83.21,82.25
170,82.69,81.92
180,82.11,83.01
190,81.52,81.21
200,80.89,83.01
210,80.50,81.61
220,79.89,79.85
230,79.39,81.30
240,78.81,80.52
250,78.20,81.25
260,77.61,78.90
270,77.11,77.84
280,76.59,78.88
290,76.01,76.71
300,75.60,77.07
310,74.99,77.30
320,74.41,79.99
330,73.91,77.32
340,73.31,74.87
350,72.82,74.62
360,72.29,73.54
370,71.70,76.45
380,71.21,75.91
390,70.69,76.26
400,70.11,76.00
410,69.61,76.18
420,69.11,74.53
430,68.51,74.32
440,68.01,75.18
450,67.49,76.27
460,66.89,77.54
470,66.40,76.95
480,65.91,73.35
490,65.39,72.30
500,64.89,73.14
510,64.31,73.65
520,63.89,76.08
530,63.29,72.15
540,62.80,73.32
550,62.29,74.51
560,61.79,74.26
570,61.29,75.55
580,60.70,74.50
590,60.20,76.02
600,59.70,77.34
610,59.10,76.65
620,58.70,75.50
630,58.20,76.25
640,57.72,76.48
650,57.21,76.50
660,56.70,76.93
670,56.21,79.00
680,55.69,77.49
690,55.20,77.58
700,54.69,77.16
710,54.18,80.66
720,53.70,79.40
730,53.19,81.53
740,52.59,83.70
750,52.10,81.74
760,51.60,83.19
770,51.00,81.89
780,50.50,85.72
790,49.98,87.77
800,49.46,86.10
810,48.88,88.11
820,48.29,88.30
830,47.80,89.84
840,47.28,92.06
850,46.60,92.54
860,46.09,95.43
870,45.50,95.45
880,44.90,97.14
890,44.30,97.78
900,43.78,99.33
910,43.10,102.28
920,42.50,101.70
930,41.90,104.06
940,41.37,107.05
950,40.60,107.25
960,40.09,108.06
970,39.38,109.63
980,38.70,111.89
990,38.00,114.45
1000,37.37,115.52
1010,36.60,112.06
1020,35.88,112.60
1030,35.29,114.50
1040,34.60,116.25
1050,33.91,115.79
1060,33.22,112.50
1070,32.58,114.98
1080,31.88,111.93
1090,31.18,113.04
1100,30.49,112.11
1110,29.89,114.48
1120,29.20,110.17
1130,28.49,112.73
1140,27.68,110.60
1150,27.19,106.49
1160,26.59,105.87
1170,26.00,101.96
1180,25.47,99.63
1190,24.77,95.32
1200,24.28,94.62
1210,23.79,92.80
1220,23.19,92.32
1230,22.69,91.95
1240,22.29,89.48
1250,21.69,88.71
1260,21.29,81.80
1270,20.79,79.85
1280,20.39,80.49
1290,19.97,75.17
1300,19.57,75.58
1310,19.17,72.00
1320,18.77,70.89
1330,18.39,68.97
1340,18.09,67.62
1350,17.77,64.64
1360,17.39,63.38
1370,17.08,59.88
1380,16.78,56.80
1390,16.57,56.62
1400,16.28,53.83
1410,16.07,52.87
1420,15.87,51.32
1430,15.57,47.78
1440,15.39,46.14
1450,15.18,44.50
1460,14.99,43.40
1470,14.79,42.97
1480,14.68,42.05
1490,14.57,41.83
1500,14.37,38.00
1510,14.17,38.65
1520,14.07,36.77
1530,13.97,36.35
1540,13.87,38.94
1550,13.67,38.19
1560,13.58,38.22
1570,13.39,38.47
1580,13.37,37.46
1590,13.28,35.89
1600,13.15,33.84
1610,12.97,35.76
1620,12.87,34.21
1630,12.87,33.49
1640,12.76,33.74
1650,12.57,33.28
1660,12.47,32.44
1670,12.38,33.61
1680,12.37,34.18
1690,12.19,34.54
1700,12.07,31.73
1710,12.06,32.18
1715,11.97,32.44

File: IMT_Wood_Cone_50kW_hor_R3.csv
Time (s),Mass (g),HRR (kW/m2)
0,100.60,2.79
10,99.93,94.09
20,99.12,187.88
30,98.01,153.14
40,97.22,133.47
50,96.34,122.95
60,95.71,111.35
70,95.02,102.22
80,94.40,95.92
90,93.56,90.12
100,93.21,93.16
110,92.62,89.14
120,92.10,84.96
130,91.60,82.46
140,91.11,79.35
150,90.52,81.35
160,90.09,81.10
170,89.52,76.87
180,89.11,77.85
190,88.52,75.48
200,88.11,77.15
210,87.60,78.35
220,87.02,76.46
230,86.60,77.35
240,86.02,76.47
250,85.53,73.59
260,85.12,74.68
270,84.52,75.22
280,84.10,75.17
290,83.70,73.95
300,83.10,75.44
310,82.61,73.78
320,82.12,74.71
330,81.62,77.48
340,81.20,75.64
350,80.62,72.97
360,80.12,71.96
370,79.60,74.06
380,79.12,73.93
390,78.62,75.34
400,78.12,75.19
410,77.62,76.04
420,77.10,73.99
430,76.62,76.60
440,76.20,75.21
450,75.70,73.22
460,75.20,74.62
470,74.70,74.03
480,74.30,74.05
490,73.80,74.03
500,73.29,75.63
510,72.82,76.73
520,72.30,77.28
530,71.81,76.07
540,71.15,78.72
550,70.81,79.81
560,70.40,78.71
570,69.83,79.29
580,69.41,79.27
590,68.91,80.72
600,68.49,81.49
610,67.90,80.47
620,67.49,80.84
630,67.01,82.74
640,66.60,82.37
650,66.01,83.79
660,65.59,84.72
670,65.02,84.23
680,64.61,85.21
690,64.10,87.84
700,63.52,86.33
710,63.04,88.26
720,62.51,89.75
730,62.09,90.28
740,61.49,91.93
750,61.10,90.75
760,60.59,93.06
770,60.00,92.69
780,59.49,96.73
790,58.83,94.83
800,58.32,97.51
810,57.81,98.06
820,57.21,100.45
830,56.69,100.96
840,56.04,103.83
850,55.51,102.75
860,54.89,107.28
870,54.39,106.81
880,53.69,111.24
890,53.01,111.29
900,52.51,110.08
910,51.81,111.68
920,51.10,114.69
930,50.41,119.40
940,49.81,116.48
950,49.01,119.70
960,48.36,119.43
970,47.76,120.20
980,47.09,124.89
990,46.39,124.51
1000,45.69,123.83
1010,44.91,124.65
1020,44.30,126.96
1030,43.51,126.01
1040,42.74,128.18
1050,42.10,128.32
1060,41.39,132.80
1070,40.59,130.55
1080,39.89,131.23
1090,39.18,128.25
1100,38.50,127.50
1110,37.80,129.16
1120,37.00,125.94
1130,36.40,131.23
1140,35.68,126.17
1150,34.90,124.10
1160,34.30,124.02
1170,33.69,123.91
1180,33.00,120.62
1190,32.40,117.68
1200,31.79,121.23
1210,31.18,120.78
1220,30.58,118.26
1230,29.89,118.07
1240,29.30,114.16
1250,28.70,112.80
1260,28.18,112.54
1270,27.59,112.74
1280,27.08,110.40
1290,26.50,108.38
1300,26.02,108.67
1310,25.48,107.50
1320,24.98,103.83
1330,24.50,104.11
1340,23.90,102.48
1350,23.49,99.44
1360,22.97,97.64
1370,22.58,94.09
1380,22.10,95.48
1390,21.68,91.21
1400,21.28,90.12
1410,20.84,89.22
1420,20.48,86.64
1430,20.08,82.50
1440,19.69,81.83
1450,19.30,79.89
1460,18.89,76.94
1470,18.59,76.44
1480,18.29,73.20
1490,17.98,70.82
1500,17.78,68.04
1510,17.48,63.09
1520,17.28,59.42
1530,17.00,55.18
1540,16.90,49.91
1550,16.68,49.70
1560,16.48,50.77
1570,16.37,46.29
1580,16.28,41.66
1590,16.18,41.89
1600,16.08,43.17
1610,15.88,41.20
1620,15.77,41.09
1630,15.68,41.45
1640,15.48,39.67
1650,15.37,38.63
1660,15.28,39.58
1670,15.18,40.91
1680,15.08,39.63
1690,14.90,41.36
1700,14.87,41.73
1710,14.76,39.93
1720,14.67,38.82
1730,14.57,41.09
1740,14.38,40.38
1750,14.27,39.42
1760,14.19,37.91
1770,14.08,38.33
1775,13.99,40.13

File: IMT_Wood_MCC_N2_60K_R1.csv
Time (s),Temperature (K),HRR (W/g)
0,398.9,0
2.5,400.59,0.14
5,402.44,0.299
7.5,404.12,0.623
10,405.99,0.588
12.5,407.83,0.816
15,409.71,0.763
17.5,411.67,0.985
20,413.63,1.205
22.5,415.66,1.181
25,417.73,1.317
27.5,419.71,1.443
30,421.87,1.496
32.5,423.98,2.129
35,426.13,2.019
37.5,428.32,2.005
40,430.51,2.624
42.5,432.74,2.771
45,434.98,3.313
47.5,437.23,3.802
50,439.55,3.858
52.5,441.92,4.857
55,444.33,5.037
57.5,446.71,5.833
60,449.09,6.089
62.5,451.58,6.863
65,454.02,7.864
67.5,456.44,7.93
70,458.95,8.646
72.5,461.44,9.566
75,463.97,10.624
77.5,466.52,11.87
80,469.1,12.643
82.5,471.61,13.603
85,474.19,13.215
87.5,476.76,14.321
90,479.34,14.48
92.5,481.92,15.052
95,484.51,15.675
97.5,487.1,15.7
100,489.75,16.034
102.5,492.3,16.511
105,494.97,16.169
107.5,497.51,16.325
110,500.11,16.698
112.5,502.72,17.485
115,505.35,18.753
117.5,507.92,19.778
120,510.55,19.889
122.5,513.13,20.97
125,515.75,22.273
127.5,518.27,23.132
130,520.86,23.976
132.5,523.4,24.761
135,525.97,26.398
137.5,528.53,27.659
140,531.16,29.198
142.5,533.67,30.993
145,536.25,31.884
147.5,538.76,34.252
150,541.27,35.234
152.5,543.78,36.865
155,546.27,38.261
157.5,548.79,39.869
160,551.32,40.762
162.5,553.85,41.233
165,556.33,42.125
167.5,558.8,42.871
170,561.29,43.288
172.5,563.78,43.483
175,566.25,43.833
177.5,568.73,44.903
180,571.29,45.714
182.5,573.78,46.315
185,576.28,47.649
187.5,578.71,48.383
190,581.25,50.066
192.5,583.7,51.637
195,586.13,53.69
197.5,588.64,55.908
200,591.12,57.948
202.5,593.71,60.341
205,596.1,62.915
207.5,598.63,64.866
210,601.12,67.846
212.5,603.54,70.048
215,606.07,72.722
217.5,608.57,74.704
220,611,76.565
222.5,613.52,79.159
225,616.07,81.282
227.5,618.51,83.842
230,621.05,86.143
232.5,623.52,88.74
235,626.06,91.116
237.5,628.59,93.644
240,631.09,95.982
242.5,633.64,98.594
245,636.14,101.006
247.5,638.68,104.151
250,641.17,106.662
252.5,643.7,110.092
255,646.24,112.702
257.5,648.72,115.22
260,651.26,118.33
262.5,653.75,120.93
265,656.28,121.817
267.5,658.81,120.256
270,661.35,117.482
272.5,663.85,112.298
275,666.42,106.226
277.5,668.95,98.203
280,671.47,88.306
282.5,674.07,77.867
285,676.6,66.754
287.5,679.12,56.45
290,681.72,47.291
292.5,684.23,39.539
295,686.76,33.503
297.5,689.32,29.08
300,691.89,25.382
302.5,694.48,22.297
305,697.05,20.333
307.5,699.59,18.737
310,702.15,17.383
312.5,704.68,16.049
315,707.24,15.058
317.5,709.75,14.261
320,712.26,13.134
322.5,714.84,12.003
325,717.34,10.619
327.5,719.83,9.879
330,722.37,9.198
332.5,724.88,9.105
335,727.43,9.264
337.5,729.93,9.404
340,732.49,9.297
342.5,734.98,8.979
345,737.53,8.411
347.5,740.04,8.318
350,742.6,7.785
352.5,745.06,7.022
355,747.58,6.605
357.5,750.09,6.201
360,752.64,5.936
362.5,755.22,5.263
365,757.69,5.265
367.5,760.25,4.989
370,762.78,4.317
372.5,765.22,3.954
375,767.8,3.363
377.5,770.31,3.26
380,772.83,2.811
382.5,775.43,2.385
385,777.94,1.84
387.5,780.47,1.102
390,782.98,1.173
392.5,785.44,1.027
395,788.01,1.206
397.5,790.48,0.899
400,793,1.31
402.5,795.61,1.801
405,798.17,1.831
407.5,800.7,2.118
410,803.21,1.603
412.5,805.79,1.715
415,808.33,1.888
417.5,810.9,1.706
420,813.5,1.486
422.5,816.01,1.494
425,818.56,1.625
427.5,821.13,1.743
430,823.69,1.62
432.5,826.21,1.096
435,828.79,0.789
437.5,831.36,0.664
440,833.87,-0.138
442.5,836.48,-0.912
445,839.04,-1.423
447.5,841.6,-1.104
450,844.17,-0.673
452.5,846.7,-0.471
455,849.27,-0.119
457.5,851.86,0.061
460,854.47,-0.022
462.5,857.04,0.158
465,859.58,0.644
467.5,862.14,0.778
470,864.7,0.63
472.5,867.25,0.321
475,869.84,0.276
477.5,872.4,0.231
480,874.99,-0.115
482.5,877.58,0.28
485,880.18,0.223
487.5,882.75,0.517
490,885.34,0.656
492.5,887.92,0.175
495,890.47,-0.094
497.5,893.03,0.049
500,895.64,-0.246
502.5,898.25,-0.601
505,900.83,-1.093
507.5,903.41,-1.766
510,905.97,-2.243
512.5,908.55,-1.887
515,911.16,-1.564
517.5,913.7,-1.387
520,916.34,-1.132
522.5,918.93,-0.907
525,921.51,-0.923
527.5,924.07,-0.842
530,926.62,0.044
532.5,929.23,0.094
535,931.84,0.452
537.5,934.41,0.24
540,937.02,0.423
542.5,939.63,0.217
545,942.19,0.168
547.5,944.78,-0.003
550,947.36,0.068
552.5,949.95,-0.594
555,952.55,-0.715
557.5,955.17,-0.386
560,957.78,-0.883
562.5,960.35,-1.25
565,962.97,-1.761
567.5,965.53,-2.776
570,968.1,-3.111
572.5,970.63,-2.253
575,973.26,-1.851
577.5,975.87,-1.711
580,978.42,-1.799
582.5,981.05,-1.525
585,983.67,-1.092
587.5,986.24,-0.644
590,988.87,-0.445
592.5,991.46,-0.495
595,994.09,-0.444
597.5,996.69,-0.178
600,999.33,-0.273
602.5,1001.98,0.02
605,1004.57,0.146
607.5,1007.24,0

File: IMT_Wood_MCC_O2-2_60K_R1.csv
Time (s),Temperature (K),HRR (W/g)
0,397.99,0
2.5,399.52,0.207
5,401.09,0.382
7.5,402.78,0.582
10,404.43,1.419
12.5,406.16,1.366
15,407.88,1.179
17.5,409.63,1.474
20,411.51,1.86
22.5,413.37,2.03
25,415.22,2.204
27.5,417.13,2.785
30,419.12,3.261
32.5,421.1,3.783
35,423.09,4.405
37.5,425.18,4.662
40,427.18,5.158
42.5,429.28,5.647
45,431.4,5.815
47.5,433.5,5.998
50,435.62,6.055
52.5,437.79,6.742
55,439.99,7.211
57.5,442.16,7.752
60,444.44,8.98
62.5,446.75,9.233
65,448.98,12.486
67.5,451.32,12.088
70,453.67,12.326
72.5,456.03,13.17
75,458.41,14.468
77.5,460.85,15.746
80,463.21,16.655
82.5,465.7,17.679
85,468.14,19.077
87.5,470.6,20.327
90,473.07,21.763
92.5,475.58,23.101
95,478.1,23.581
97.5,480.59,24.955
100,483.14,25.926
102.5,485.66,26.337
105,488.24,27.098
107.5,490.79,27.609
110,493.38,28.064
112.5,495.92,28.572
115,498.5,29.064
117.5,501.08,29.37
120,503.68,29.789
122.5,506.24,30.159
125,508.89,30.878
127.5,511.46,31.58
130,514.04,32.502
132.5,516.6,33.752
135,519.18,35.123
137.5,521.76,36.313
140,524.33,37.353
142.5,526.92,39.037
145,529.51,40.901
147.5,532.06,42.547
150,534.59,43.01
152.5,537.16,45.539
155,539.72,46.424
157.5,542.24,48.197
160,544.81,49.206
162.5,547.34,50.154
165,549.91,51.065
167.5,552.45,51.584
170,554.94,52.67
172.5,557.47,53.354
175,559.97,54.203
177.5,562.47,54.869
180,564.95,55.859
182.5,567.48,56.764
185,569.96,57.846
187.5,572.49,59.015
190,574.99,60.726
192.5,577.47,62.579
195,579.97,65.439
197.5,582.39,67.711
200,584.89,70.243
202.5,587.4,72.799
205,589.85,75.86
207.5,592.37,78.814
210,594.82,82.144
212.5,597.33,85.359
215,599.82,88.898
217.5,602.29,91.647
220,604.74,94.623
222.5,607.28,97.229
225,609.74,99.683
227.5,612.26,102.265
230,614.73,105.395
232.5,617.25,107.918
235,619.79,110.078
237.5,622.29,111.96
240,624.75,113.545
242.5,627.32,114.61
245,629.81,117.184
247.5,632.35,119.453
250,634.88,121.031
252.5,637.36,123.288
255,639.89,125.375
257.5,642.43,126.805
260,644.9,126.156
262.5,647.43,124.159
265,650.01,119.643
267.5,652.53,112.389
270,655.01,104.452
272.5,657.58,96.046
275,660.1,86.385
277.5,662.63,76.319
280,665.27,66.372
282.5,667.8,57.517
285,670.34,49.845
287.5,672.92,43.652
290,675.6,42.113
292.5,677.97,37.216
295,680.62,33.255
297.5,683.25,30.042
300,685.74,26.988
302.5,688.33,25.532
305,690.85,24.487
307.5,693.33,25.452
310,695.89,26.023
312.5,698.45,26.422
315,701.06,26.889
317.5,703.56,27.062
320,706.06,27.507
322.5,708.48,28.005
325,711.13,28.73
327.5,713.52,28.798
330,716.12,28.185
332.5,718.73,25.688
335,721.18,24.177
337.5,723.71,23.545
340,726.04,24.317
342.5,728.7,24.986
345,731.13,26.201
347.5,733.7,26.966
350,736.24,28.618
352.5,738.88,29.21
355,741.35,29.842
357.5,743.82,30.442
360,746.34,31.557
362.5,748.88,31.783
365,751.39,32.336
367.5,753.87,32.048
370,756.48,30.571
372.5,758.98,28.765
375,761.5,27.918
377.5,764.03,28.174
380,766.5,28.751
382.5,769.08,30.436
385,771.57,32.085
387.5,774.13,33.249
390,776.65,34.371
392.5,779.2,35.177
395,781.74,36.051
397.5,784.21,36.829
400,786.76,37.032
402.5,789.26,37.911
405,791.8,38.102
407.5,794.35,37.037
410,796.88,35.458
412.5,799.49,33.6
415,802,33.364
417.5,804.56,33.672
420,807.06,35.046
422.5,809.64,36.146
425,812.2,37.655
427.5,814.73,38.748
430,817.36,39.742
432.5,819.92,40.542
435,822.45,41.366
437.5,825.04,42.633
440,827.54,43.568
442.5,830.12,43.672
445,832.7,41.879
447.5,835.32,40.028
450,837.87,38.904
452.5,840.48,38.463
455,843.02,39.498
457.5,845.51,40.175
460,848.1,41.462
462.5,850.68,42.82
465,853.26,43.471
467.5,855.86,44.231
470,858.48,44.31
472.5,861.07,44.794
475,863.62,44.898
477.5,866.12,44.191
480,868.74,42.793
482.5,871.32,38.688
485,873.89,35.624
487.5,876.46,34.628
490,879.05,34.774
492.5,881.61,35.587
495,884.2,35.174
497.5,886.75,34.593
500,889.26,32.626
502.5,891.82,30.464
505,894.36,28.199
507.5,896.92,25.552
510,899.44,22.997
512.5,901.93,19.646
515,904.4,16.043
517.5,906.87,11.425
520,909.27,6.593
522.5,911.78,20.944
525,914.23,11.403
527.5,916.76,7.676
530,919.27,5.627
532.5,921.78,4.23
535,924.29,4.492
537.5,926.77,4.319
540,929.32,4.828
542.5,931.85,4.789
545,934.4,5.29
547.5,937.01,5.083
550,939.61,5.646
552.5,942.18,6.206
555,944.87,5.97
557.5,947.38,4.614
560,950.01,2.081
562.5,952.55,-0.419
565,955.2,-1.349
567.5,957.86,-1.242
570,960.45,-0.37
572.5,963.1,0.792
575,965.73,2.297
577.5,968.36,2.518
580,970.97,4.011
582.5,973.63,4.963
585,976.28,4.797
587.5,978.88,5.102
590,981.46,5.913
592.5,984.1,5.981
595,986.75,6.369
597.5,989.4,5.185
600,992,2.942
602.5,994.62,0.985
605,997.28,-0.107
606,998.33,0