Folder: matl-db/Wood/Calibration_Data/IMT

Note: Wood/Calibration_Data/IMT/README.md
# IMT Mines Alès (IMT)

### Experimental Conditions: TGA
A Perkin Elmer TGA 8000 was used to conduct Thermogravimetric Analysis (TGA) experiments. 

* Heating Rates: 2, 5, 10, 20 K/min
* Temperature program
  - Initial Temperature: 303 K
  - Initial Isotherm: 120 s (hold at 303 K for 120 s)
  - Heating Ramp: from 303 to 383 K at 10 K/min
  - Second Isotherm: 600 s (hold at 383 K for 600 s)
  - Maximum Temperature: 1173 K
  - Final Isotherm: None
* Sample mass: 5 mg +/- 0.1 mg
* Sample geometry: Powdered
* Calibration type: Before each experiment, a baseline test was performed using an empty crucible. 
* Crucible
  - Type: alumina
  - Volume: 18 uL
  - Diameter: 6 mm
  - Mass: 140 mg
  - Lid: No lid
* Carrier Gas
  - Type: Nitrogen or air
  - Flow rate: 20 ml/min
* Instrument
  - Type: Perkin Elmer TGA 8000
  - Furnace: Platinum + ceramic protective coating
* Notes
  - The temperature reported in the data files corresponds to the sample temperature and not the furnace temperature

| Test Name | O2 volume (%) |  Heating rate (K/min) | Initial mass (mg) |
| --------- | :-----------: | :-------------------: | :---------------: |
| IMT-Mines-Ales_TGA_N2_2K_R1 | 0 | 2 | 4.984 |
| IMT-Mines-Ales_TGA_N2_5K_R1 | 0 | 5 | 4.884 |
| IMT-Mines-Ales_TGA_N2_10K_R1 | 0 | 10 | 4.929 |
| IMT-Mines-Ales_TGA_N2_20K_R1 | 0 | 20 | 5.115 |
| IMT-Mines-Ales_TGA_O2-20_2K_R1 | 20 | 2 | 4.987 |
| IMT-Mines-Ales_TGA_O2-20_5K_R1 | 20 | 5 | 4.620 |
| IMT-Mines-Ales_TGA_O2-20_10K_R1 | 20 | 10 | 5.010 |
| IMT-Mines-Ales_TGA_O2-20_20K_R1 | 20 | 20 | 4.305 |


### Experimental Conditions: MCC
A FTT microscale combustion calorimeter was used to conduct MCC experiments. The residual solid yield was measured after each test.

* Heating Rate: 60 K/min
* Temperature program (Pyrolyzer)
  - Initial temperature: between 380 and 420 K
  - Isotherm: up to O2 stabilization  
  - Maximum temperature: 1023 K
* Combustor Temperature: 1173K
* Sample mass: between 2.2 and 3.2 mg +/- 0.1mg
* Sample geometry: Powdered
* Calibration type: O2 sensor/flow calibration was checked at the start of each week of testing
* Crucible
  - Type: alumina
  - Volume: 16 uL
  - Diameter: 5 mm
  - Mass: 170 mg
  - Lid: No lid
* Pyrolyzer carrier gas
  - Type: N2/O2 mixture at 100/0, 98/2, 95/5, 90/10, or 80/20
  - Flow rate: 100 ml/min
* Combustor carrier gas (when pyrolyzer gas is pure nitrogen)
  - Type: N2/O2 mixture at 80/20
  - Flow rate: 100 ml/min
* Instrument
  - Type: FTT
  - O2 Analyzer: Chemical

| Test Name | O2 volume (Pyrolyser) % | Initial Sample Mass (mg) | Final Sample Mass (mg) | 
| --------- | :---------------------: | :----------------------: | :--------------------: |
| IMT-Mines-Ales_MCC_N2_60K_R1 | 0 | 2.82 | 0.23 |
| IMT-Mines-Ales_MCC_N2_60K_R2 | 0 | 2.2 | 0.24 |
| IMT-Mines-Ales_MCC_O2-2_60K_R1 | 2 | 2.31 | 0 |
| IMT-Mines-Ales_MCC_O2-2_60K_R2 | 2 | 2.34 | 0 |
| IMT-Mines-Ales_MCC_O2-5_60K_R1 | 5 | 2.61 | 0 |
|

File: IMT-Mines-Ales_MCC_N2_60K_R2.csv
Time (s),Temperature (K),HRR (W/g)
0,411.54,0
2,413.29,-0.102
4,415.09,-0.054
6,416.96,-0.532
8,418.81,-0.544
10,420.65,-0.569
12,422.51,-0.549
14,424.44,-0.503
16,426.39,-0.552
18,428.29,-0.367
20,430.25,-0.526
22,432.2,-0.059
24,434.16,0.364
26,436.09,0.555
28,438.14,1.201
30,440.17,1.646
32,442.22,2.202
34,444.3,2.64
36,446.34,3.068
38,448.39,4.285
40,450.45,4.716
42,452.59,4.9
44,454.62,5.85
46,456.73,7.325
48,458.82,8.523
50,460.95,9.948
52,463.01,10.537
54,465.19,11.284
56,467.35,11.699
58,469.43,12.387
60,471.61,12.727
62,473.7,13.112
64,475.76,13.303
66,477.93,13.439
68,480.08,14.285
70,482.2,14.729
72,484.36,15.197
74,486.48,15.3
76,488.58,15.464
78,490.74,15.949
80,492.85,15.679
82,495.02,15.979
84,497.1,15.876
86,499.18,16.588
88,501.32,16.839
90,503.45,16.843
92,505.5,17.067
94,507.66,17.535
96,509.73,17.833
98,511.81,17.931
100,513.91,18.988
102,516.01,19.458
104,518.07,20.202
106,520.11,21.275
108,522.18,21.953
110,524.22,23.264
112,526.32,24.02
114,528.38,24.978
116,530.38,26.435
118,532.44,27.398
120,534.44,28.419
122,536.51,29.417
124,538.51,30.638
126,540.48,31.293
128,542.5,32.748
130,544.51,33.895
132,546.51,34.624
134,548.52,35.676
136,550.5,36.092
138,552.54,36.843
140,554.51,37.096
142,556.5,38.094
144,558.47,39.095
146,560.46,39.248
148,562.4,39.822
150,564.36,39.97
152,566.35,40.432
154,568.34,40.665
156,570.3,41.039
158,572.31,41.42
160,574.3,41.757
162,576.25,42.408
164,578.26,43.126
166,580.2,43.558
168,582.16,44.436
170,584.11,45.854
172,586.04,46.856
174,588.1,48.785
176,590.04,50.353
178,592.02,52.416
180,594,53.9
182,596,55.708
184,597.96,57.491
186,600,60.221
188,601.93,61.539
190,603.9,63.761
192,605.89,65.876
194,607.88,67.965
196,609.9,70.106
198,611.88,71.868
200,613.82,73.69
202,615.85,75.891
204,617.84,77.809
206,619.84,79.962
208,621.85,81.591
210,623.83,83.684
212,625.85,85.36
214,627.88,86.748
216,629.87,88.27
218,631.88,83.022
220,633.94,84.813
222,635.93,86.999
224,637.97,87.316
226,639.95,89.804
228,642.01,91.857
230,643.99,94.856
232,645.99,96.865
234,647.99,99.638
236,650.04,102.579
238,652.05,104.85
240,654,107.776
242,655.98,110.093
244,658.05,111.995
246,660.04,113.203
248,662.07,113.897
250,664.08,113.73
252,666.12,111.966
254,668.11,108.575
256,670.12,104.764
258,672.17,99.288
260,674.2,92.901
262,676.27,85.377
264,678.25,76.927
266,680.28,68.834
268,682.31,60.115
270,684.35,52.327
272,686.35,44.743
274,688.39,38.849
276,690.38,33.159
278,692.42,28.586
280,694.45,24.697
282,696.51,22.203
284,698.49,20.06
286,700.51,18.254
288,702.55,16.914
290,704.52,15.645
292,706.54,14.857
294,708.6,14.408
296,710.6,13.494
298,712.66,12.974
300,714.67,12.717
302,716.72,12.577
304,718.82,12.026
306,720.83,11.596
308,722.81,10.768
310,724.88,10.419
312,726.88,10.479
314,728.88,9.903
316,730.95,9.514
318,732.96,9.542
320,735.01,8.975
322,737.07,9.386
324,739.08,8.741
326,741.1,8.035
328,743.14,7.72
330,745.19,7.293
332,747.16,6.853
334,749.2,6.191
336,751.25,6.221
338,753.23,6.231
340,755.29,6.024
342,757.36,5.966
344,759.38,5.877
346,761.43,5.082
348,763.42,4.618
350,765.42,4.545
352,767.45,4.379
354,769.49,3.674
356,771.52,3.629
358,773.58,3.1
360,775.57,2.845
362,777.62,1.97
364,779.62,2.765
366,781.75,2.514
368,783.73,2.516
370,785.75,2.473
372,787.78,2.208
374,789.8,2.477
376,791.86,2.493
378,793.87,1.866
380,795.94,1.453
382,797.97,1.429
384,800.03,1.663
386,802.03,1.122
388,804.08,1.241
390,806.11,1.023
392,808.17,1.789
394,810.2,1.802
396,812.27,1.386
398,814.3,0.769
400,816.37,0.707
402,818.42,1.477
404,820.45,1.376
406,822.44,0.765
408,824.49,1.156
410,826.55,0.321
412,828.62,1.423
414,830.66,0.639
416,832.68,0.949
418,834.77,0.659
420,836.83,0.733
422,838.84,0.47
424,840.97,0.114
426,842.87,0.441
428,845.08,0.195
430,847.07,0.024
432,849.13,0.385
434,851.17,0.284
436,853.19,0.777
438,855.31,0.726
440,857.31,0.912
442,859.44,0.886
444,861.52,0.933
446,863.59,0.446
448,865.64,0.655
450,867.71,0.983
452,869.82,0.748
454,871.88,0.239
456,873.97,0.528
458,876.05,0.35
460,878.18,0.029
462,880.23,0.1
464,882.31,0.203
466,884.38,0.243
468,886.49,0.502
470,888.59,0.446
472,890.67,0.167
474,892.72,0.62
476,894.84,0.91
478,896.95,0.98
480,899.04,0.493
482,901.12,0.187
484,903.17,-0.143
486,905.27,-0.11
488,907.37,-0.333
490,909.42,0.08
492,911.55,-0.086
494,913.57,-0.107
496,915.65,-0.012
498,917.76,0.203
500,919.84,0.093
502,921.9,0.209
504,923.99,0.317
506,926,1.116
508,928.09,0.843
510,930.14,0.939
512,932.2,0.646
514,934.29,0.51
516,936.39,0.298
518,938.49,0.149
520,940.51,-0.011
522,942.6,-0.282
524,944.7,0.594
526,946.74,-0.098
528,948.86,0.058
530,950.92,0.398
532,953.01,0.939
534,955.08,0.33
536,957.23,0.507
538,959.28,0.262
540,961.36,0.492
542,963.44,0.443
544,965.46,0.79
546,967.54,0.785
548,969.6,-0.231
550,971.65,0.028
552,973.75,0.418
554,975.83,0.271
556,977.91,0.338
558,979.97,-0.009
560,982.05,0.593
562,984.12,0.162
564,986.22,0.297
566,988.26,0.091
568,990.32,0.313
570,992.41,-0.129
572,994.52,0.124
574,996.59,0.107
576,998.7,0.271
578,1000.76,0.244
580,1002.85,0.453
582,1004.94,0.174
584,1007.05,-0.274
586,1009.14,0

File: IMT-Mines-Ales_MCC_O2-2_60K_R2.csv
Time (s),Temperature (K),HRR (W/g)
0,380.72,0
2.5,382.19,0.827
5,383.72,1.666
7.5,385.33,2.124
10,387.01,3.408
12.5,388.66,4.06
15,390.34,4.637
17.5,392.11,4.814
20,393.93,4.896
22.5,395.78,5.394
25,397.68,5.608
27.5,399.61,5.577
30,401.6,34.513
32.5,403.63,18.89
35,405.74,12.836
37.5,407.79,9.427
40,409.95,8.315
42.5,412.09,7.466
45,414.32,7.948
47.5,416.56,7.534
50,418.84,8.582
52.5,421.14,9.219
55,423.44,9.387
57.5,425.83,10.16
60,428.19,10.913
62.5,430.58,11.11
65,433,11.353
67.5,435.44,10.682
70,437.89,8.887
72.5,440.43,8.402
75,442.96,8.689
77.5,445.5,9.629
80,448.03,11.251
82.5,450.63,12.928
85,453.16,14.698
87.5,455.75,16.693
90,458.36,18.19
92.5,461,20.012
95,463.6,21.597
97.5,466.26,23.148
100,468.9,24.477
102.5,471.58,24.71
105,474.2,25.125
107.5,476.84,24.292
110,479.49,24.402
112.5,482.18,26.095
115,484.83,27.918
117.5,487.48,29.111
120,490.13,30.381
122.5,492.78,32.111
125,495.46,33.161
127.5,498.08,34.249
130,500.73,35.659
132.5,503.39,36.6
135,506,37.527
137.5,508.62,38.003
140,511.24,37.062
142.5,513.87,36.495
145,516.47,36.213
147.5,519.01,36.782
150,521.6,38.974
152.5,524.14,40.735
155,526.71,42.06
157.5,529.25,43.809
160,531.83,46.667
162.5,534.37,50.007
165,536.87,51.79
167.5,539.41,53.495
170,541.88,54.194
172.5,544.39,53.756
175,546.91,55.346
177.5,549.4,57.1
180,551.92,55.034
182.5,554.37,53.035
185,556.88,51.815
187.5,559.4,52.611
190,561.84,53.803
192.5,564.28,55.743
195,566.74,57.72
197.5,569.23,59.844
200,571.73,62.521
202.5,574.17,65.69
205,576.69,68.711
207.5,579.1,75.712
210,581.57,76.057
212.5,584.06,78.15
215,586.47,79.912
217.5,588.94,82.499
220,591.41,85.971
222.5,593.88,88.751
225,596.37,91.93
227.5,598.84,94.823
230,601.38,95.776
232.5,603.83,97.018
235,606.31,99.171
237.5,608.83,103.473
240,611.37,107.782
242.5,613.88,111.681
245,616.34,115.143
247.5,618.93,118.399
250,621.43,121.485
252.5,623.93,124.723
255,626.44,126.911
257.5,629,128.957
260,631.55,130.986
262.5,634.1,134.038
265,636.65,137.407
267.5,639.18,138.797
270,641.72,136.433
272.5,644.24,131.755
275,646.83,126.534
277.5,649.35,120.874
280,651.93,114.994
282.5,654.48,109.158
285,657.06,102.109
287.5,659.59,93.95
290,662.17,85.334
292.5,664.72,75.588
295,667.23,67.22
297.5,669.8,59.135
300,672.4,52.206
302.5,674.99,46.753
305,677.56,41.777
307.5,680.16,37.095
310,682.68,33.188
312.5,685.22,32.253
315,687.81,32.977
317.5,690.32,30.488
320,692.9,26.606
322.5,695.48,22.069
325,698.02,19.797
327.5,700.54,19.632
330,703.07,22.582
332.5,705.61,46.82
335,708.11,42.862
337.5,710.63,40.869
340,713.15,39.455
342.5,715.7,38.856
345,718.16,37.847
347.5,720.71,37.207
350,723.22,37.041
352.5,725.7,36.918
355,728.23,36.365
357.5,730.77,36.632
360,733.26,36.236
362.5,735.83,36.522
365,738.35,36.324
367.5,740.84,36.25
370,743.37,36.756
372.5,745.84,36.588
375,748.4,36.628
377.5,750.9,36.639
380,753.38,35.99
382.5,755.92,34.436
385,758.44,33.622
387.5,760.97,33.649
390,763.5,33.837
392.5,766.04,35.154
395,768.58,35.933
397.5,771.11,36.776
400,773.68,37.262
402.5,776.24,38.291
405,778.76,39.107
407.5,781.28,39.775
410,783.78,40.223
412.5,786.32,40.448
415,788.8,41.086
417.5,791.33,40.373
420,793.86,39.337
422.5,796.41,38.024
425,798.95,37.793
427.5,801.53,37.709
430,804.03,38.689
432.5,806.59,39.377
435,809.15,40.216
437.5,811.72,41.094
440,814.25,42.272
442.5,816.83,42.399
445,819.38,43.286
447.5,821.95,44.002
450,824.52,44.254
452.5,827.04,44.145
455,829.6,44.508
457.5,832.13,42.949
460,834.64,41.843
462.5,837.29,41.101
465,839.88,41.462
467.5,842.46,41.823
470,845.01,43.094
472.5,847.56,43.848
475,850.11,44.152
477.5,852.71,45.211
480,855.27,45.377
482.5,857.87,45.34
485,860.46,45.239
487.5,863.03,44.468
490,865.61,43.897
492.5,868.13,43.043
495,870.7,41.12
497.5,873.31,38.079
500,875.9,36.581
502.5,878.45,35.689
505,881.04,34.648
507.5,883.58,34.332
510,886.15,32.96
512.5,888.76,31.003
515,891.27,28.422
517.5,893.81,25.289
520,896.35,21.401
522.5,898.85,16.935
525,901.29,12.644
527.5,903.78,9.22
530,906.2,5.949
532.5,908.62,2.706
535,911.13,-0.18
537.5,913.55,-1.831
540,916.05,3.161
542.5,918.58,0.624
545,921.11,-0.202
547.5,923.66,-0.734
550,926.16,-0.299
552.5,928.73,-0.445
555,931.3,-0.36
557.5,933.87,-0.192
560,936.48,0.114
562.5,939.11,0.671
565,941.67,1.005
567.5,944.34,1.458
570,946.9,1.683
572.5,949.52,1.9
575,952.12,1.869
577.5,954.75,1.279
580,957.41,-1.203
582.5,960.03,-3.008
585,962.6,-3.143
587.5,965.26,-3.164
590,967.85,-2.516
592.5,970.5,-1.72
595,973.09,-1.412
597.5,975.68,-0.597
600,978.32,-0.35
602.5,980.92,0.359
605,983.55,0.485
607.5,986.06,0.341
609,987.65,0

File: IMT-Mines-Ales_MCC_O2-10_60K_R1.csv
Time (s),Temperature (K),HRR (W/g)
0,418.91,0
2,420.61,0.561
4,422.33,0.77
6,424.06,1.425
8,425.9,1.707
10,427.66,1.752
12,429.5,1.729
14,431.32,1.891
16,433.14,2.177
18,434.96,2.492
20,436.89,2.955
22,438.76,2.77
24,440.65,3.403
26,442.61,3.556
28,444.54,3.572
30,446.54,4.114
32,448.49,4.433
34,450.4,4.716
36,452.46,5.113
38,454.42,5.814
40,456.44,6.258
42,458.49,6.691
44,460.52,7.402
46,462.55,8.192
48,464.61,8.768
50,466.73,9.7
52,468.79,10.095
54,470.9,11.298
56,472.94,11.961
58,475,12.994
60,477.05,13.637
62,479.2,14.546
64,481.29,15.399
66,483.38,16.465
68,485.48,17.301
70,487.63,17.677
72,489.71,18.629
74,491.82,19.488
76,493.93,20.057
78,496.05,20.637
80,498.16,21.021
82,500.23,22.043
84,502.32,22.264
86,504.45,22.801
88,506.49,23.55
90,508.63,24.153
92,510.76,24.686
94,512.84,24.952
96,514.92,25.394
98,516.97,26.106
100,519.06,26.681
102,521.08,26.752
104,523.17,28.022
106,525.24,29.07
108,527.25,30.076
110,529.35,30.925
112,531.38,32.1
114,533.49,33.228
116,535.52,34.67
118,537.56,35.368
120,539.52,36.825
122,541.61,38.474
124,543.61,39.419
126,545.65,40.789
128,547.61,42.336
130,549.64,43.349
132,551.74,44.785
134,553.76,46.343
136,555.71,47.816
138,557.73,49.02
140,559.73,50.394
142,561.71,51.54
144,563.76,52.454
146,565.75,53.786
148,567.7,55.107
150,569.69,56.168
152,571.74,57.513
154,573.7,59.129
156,575.71,60.463
158,577.73,62.012
160,579.74,63.876
162,581.69,66.487
164,583.66,68.519
166,585.68,71.281
168,587.67,73.121
170,589.67,75.64
172,591.66,78.274
174,593.67,81.445
176,595.7,83.62
178,597.7,86.752
180,599.68,89.402
182,601.69,92.528
184,603.68,95.816
186,605.7,98.921
188,607.74,103.01
190,609.75,106.957
192,611.82,111.424
194,613.89,116.275
196,615.9,121.379
198,617.96,126.29
200,619.97,131.257
202,622.03,135.058
204,624.09,137.774
206,626.15,139.35
208,628.24,138.499
210,630.31,136.363
212,632.37,131.771
214,634.47,126.079
216,636.52,119.049
218,638.63,110.76
220,640.74,102.264
222,642.78,93.29
224,644.85,85.081
226,646.95,77.309
228,649.03,70.252
230,651.13,64.359
232,653.16,58.961
234,655.25,54.349
236,657.29,50.756
238,659.36,47.892
240,661.41,45.6
242,663.45,43.937
244,665.46,42.561
246,667.48,41.782
248,669.49,40.886
250,671.47,39.569
252,673.49,39.445
254,675.53,38.342
256,677.54,37.625
258,679.48,37.286
260,681.46,36.988
262,683.49,36.367
264,685.39,36.285
266,687.37,35.738
268,689.3,35.755
270,691.3,35.631
272,693.27,35.616
274,695.27,35.392
276,697.26,35.225
278,699.2,34.914
280,701.17,34.828
282,703.18,35.319
284,705.11,35.364
286,707.07,35.978
288,709.09,36.172
290,711.04,36.448
292,713.07,37.329
294,715.09,38.301
296,717.1,38.628
298,719.14,39.23
300,721.13,39.943
302,723.11,40.651
304,725.21,41.204
306,727.24,41.33
308,729.23,41.876
310,731.33,42.276
312,733.38,43.129
314,735.46,43.796
316,737.52,44.126
318,739.57,44.957
320,741.63,45.775
322,743.7,46.554
324,745.72,47.347
326,747.77,48.805
328,749.81,50.522
330,751.93,52.237
332,754.04,54.986
334,756.14,57.986
336,758.25,65.668
338,760.48,75.049
340,762.7,80.461
342,764.84,82.577
344,767.04,80.482
346,769.13,72.78
348,771.19,62.521
350,773.18,52.589
352,775.14,45.78
354,777.13,41.486
356,779.03,38.511
358,780.9,36.181
360,782.8,34.654
362,784.64,33.273
364,786.55,32.616
366,788.42,32.336
368,790.28,31.187
370,792.13,29.87
372,794.06,28.765
374,796,26.884
376,797.83,24.841
378,799.75,22.856
380,801.6,20.285
382,803.49,18.585
384,805.34,15.832
386,807.19,14.601
388,809.09,12.893
390,810.96,11.868
392,812.84,11.147
394,814.68,10.627
396,816.6,9.328
398,818.53,8.621
400,820.47,7.949
402,822.36,7.033
404,824.32,6.802
406,826.27,5.784
408,828.2,5.261
410,830.19,4.196
412,832.18,3.55
414,834.13,2.109
416,836.18,1.808
418,838.22,1.27
420,840.21,1.959
422,842.27,1.733
424,844.31,2.067
426,846.36,1.65
428,848.46,1.812
430,850.51,1.02
432,852.58,0.988
434,854.67,0.402
436,856.82,0.692
438,858.9,0.78
440,861.04,1.673
442,863.15,-0.299
444,865.22,1.284
446,867.33,-1.046
448,869.42,0.176
450,871.55,-0.124
452,873.72,-0.042
454,875.86,-0.399
456,877.9,-0.76
458,880.06,-0.616
460,882.16,-0.509
462,884.29,-0.068
464,886.4,-0.052
466,888.5,0.812
468,890.67,0.45
470,892.84,0.372
472,894.9,-0.14
474,897.08,-0.072
476,899.18,-0.545
478,901.3,-0.539
480,903.46,-0.708
482,905.56,-0.817
484,907.57,-1.055
486,909.67,-1.422
488,911.82,-1.533
490,913.84,-1.332
492,916.11,-1.243
494,918.15,-0.753
496,920.2,-0.827
498,922.35,0.342
500,924.5,0.336
502,926.52,0.148
504,928.61,0.213
506,930.77,-0.193
508,932.82,-0.732
510,934.89,-0.228
512,937.04,-0.83
514,939.11,-0.744
516,941.21,-0.632
518,943.26,-0.556
520,945.38,-0.375
522,947.4,-1.024
524,949.56,-0.895
526,951.62,-1.177
528,953.69,-1.151
530,955.75,-1.502
532,957.87,-1.54
534,959.95,-1.355
536,962.1,-1.309
538,964.16,-1.251
540,966.23,-1.2
542,968.33,-1.168
544,970.39,-0.828
546,972.44,-0.631
548,974.55,-0.403
550,976.63,-0.59
552,978.76,-0.441
554,980.77,-0.271
556,982.86,-0.513
558,984.97,-0.178
560,987.02,-0.504
562,989.08,0.019
564,991.11,-0.116
566,993.18,-0.018
568,995.32,0.162
570,997.38,0

File: IMT-Mines-Ales_MCC_O2-20_60K_R2.csv
Time (s),Temperature (K),HRR (W/g)
0,400.88,0
2,402.3,-0.93
4,403.72,-0.571
6,405.16,-0.631
8,406.59,-0.837
10,408.14,-0.892
12,409.57,-1.162
14,411.14,-1.302
16,412.62,-0.953
18,414.19,-1.591
20,415.82,-0.967
22,417.42,-1.474
24,419.01,-0.856
26,420.66,-1.577
28,422.29,-1.538
30,424.01,-0.757
32,425.66,-0.106
34,427.4,-0.074
36,429.13,-0.785
38,430.9,-0.431
40,432.63,-0.485
42,434.38,0.95
44,436.21,0.152
46,437.98,0.884
48,439.84,0.816
50,441.7,1.002
52,443.59,1.686
54,445.48,1.453
56,447.37,2.735
58,449.22,1.969
60,451.22,3.049
62,453.14,3.735
64,455.09,4.336
66,457.05,5.157
68,458.98,5.715
70,460.97,6.658
72,463.04,7.606
74,465.09,8.088
76,467.04,8.89
78,469.17,10.677
80,471.17,11.552
82,473.2,13.028
84,475.28,14.309
86,477.32,15.512
88,479.4,15.987
90,481.49,17.126
92,483.57,17.779
94,485.62,19.384
96,487.77,19.137
98,489.83,20.611
100,491.95,20.379
102,494.06,22.102
104,496.14,22.41
106,498.22,23.972
108,500.32,24.061
110,502.39,24.131
112,504.54,23.579
114,506.62,25.22
116,508.75,25.708
118,510.85,27.037
120,512.96,27.612
122,515.02,28.371
124,517.11,28.855
126,519.2,28.752
128,521.25,30.046
130,523.35,30.882
132,525.4,33.316
134,527.5,35.752
136,529.56,37.817
138,531.7,37.939
140,533.76,39.551
142,535.82,39.295
144,537.91,47.523
146,539.91,50.812
148,541.96,47.918
150,544.05,35.875
152,546.09,41.893
154,548.17,49.285
156,550.16,54.221
158,552.22,60.757
160,554.24,72.497
162,556.31,70.6
164,558.34,59.07
166,560.3,50.657
168,562.32,50.721
170,564.35,53.675
172,566.38,58.853
174,568.41,61.609
176,570.44,64.59
178,572.48,65.825
180,574.51,67.391
182,576.5,68.652
184,578.51,70.249
186,580.53,71.483
188,582.54,74.65
190,584.5,76.516
192,586.51,79.384
194,588.51,81.687
196,590.54,85.028
198,592.53,87.879
200,594.63,91.157
202,596.59,94.412
204,598.55,98.056
206,600.64,100.962
208,602.6,106.292
210,604.62,111.476
212,606.64,118.07
214,608.67,124.914
216,610.69,133.59
218,612.72,141.894
220,614.82,150.586
222,616.79,156.955
224,618.87,163.378
226,620.92,166.128
228,622.92,167.546
230,624.99,165.939
232,627.04,161.751
234,629.06,155.798
236,631.13,147.244
238,633.26,138.436
240,635.3,129.12
242,637.37,119.273
244,639.44,109.1
246,641.5,98.71
248,643.53,89.273
250,645.62,81.616
252,647.65,74.624
254,649.68,68.601
256,651.71,64.4
258,653.65,60.177
260,655.68,57.786
262,657.7,54.218
264,659.63,53.016
266,661.66,50.256
268,663.65,49.36
270,665.6,47.292
272,667.54,45.938
274,669.56,45.415
276,671.45,44.352
278,673.41,44.348
280,675.45,42.745
282,677.39,42.408
284,679.34,42.134
286,681.31,41.865
288,683.26,41.104
290,685.23,42.009
292,687.15,41.636
294,689.18,41.465
296,691.13,41.258
298,693.1,41.063
300,695.12,41.11
302,697.11,41.307
304,699.11,41.854
306,701.06,41.802
308,703.11,42.594
310,705.07,43.4
312,707.05,43.855
314,709.09,43.953
316,711.11,45.829
318,713.18,46.252
320,715.26,46.742
322,717.27,48.264
324,719.3,38.598
326,721.35,35.59
328,723.45,43.682
330,725.47,53.803
332,727.55,62.061
334,729.63,70.658
336,731.74,112.226
338,734.67,173.76
340,737.51,220.163
342,740.14,236.938
344,742.99,215.04
346,745.18,164.334
348,747.26,115.696
350,749.25,80.441
352,751.1,58.097
354,752.86,43.775
356,754.62,35.173
358,756.44,29.783
360,758.16,25.662
362,759.92,23.168
364,761.68,21.086
366,763.52,20.004
368,765.28,18.676
370,767.13,18.144
372,769.05,16.696
374,770.91,16.294
376,772.81,15.129
378,774.73,14.917
380,776.7,13.886
382,778.62,13.898
384,780.59,13.547
386,782.57,13.222
388,784.54,12.871
390,786.55,12.991
392,788.54,12.524
394,790.57,12.691
396,792.6,11.689
398,794.68,11.251
400,796.77,10.462
402,798.85,10.498
404,800.99,9.234
406,803.05,9.279
408,805.12,9.011
410,807.25,8.633
412,809.32,8.37
414,811.46,7.249
416,813.53,6.262
418,815.61,6.186
420,817.82,5.888
422,819.87,4.819
424,821.99,4.953
426,824.14,4.546
428,826.23,4.233
430,828.34,3.621
432,830.45,4.067
434,832.52,3.487
436,834.67,3.867
438,836.83,3.495
440,838.96,3.483
442,841.06,2.494
444,843.15,2.978
446,845.24,2.544
448,847.32,2.658
450,849.48,2.79
452,851.6,2.299
454,853.67,2.264
456,855.81,1.357
458,857.88,1.556
460,859.97,1.013
462,862.08,1.07
464,864.18,0.943
466,866.26,0.464
468,868.33,0.503
470,870.47,0.258
472,872.53,0.006
474,874.65,-0.02
476,876.79,-0.696
478,878.83,0.116
480,880.89,-0.785
482,883,-0.904
484,885.11,-0.89
486,887.16,-1.038
488,889.21,-1.222
490,891.3,-1.511
492,893.39,-0.899
494,895.45,-1.303
496,897.6,-1.244
498,899.72,-1.703
500,901.76,-1.615
502,903.82,-2.044
504,905.93,-2.644
506,907.98,-2.473
508,910.06,-2.268
510,912.1,-2.816
512,914.12,-2.951
514,916.23,-3.473
516,918.38,-3.03
518,920.42,-3.569
520,922.47,-1.94
522,924.56,-2.031
524,926.65,-1.522
526,928.73,-2.722
528,930.78,-2.561
530,932.84,-3.3
532,934.93,-2.799
534,937.07,-1.612
536,939.15,-0.801
538,941.22,1.234
540,943.29,0.573
542,945.39,1.018
544,947.46,0.961
546,949.51,0.45
548,951.66,0.149
550,953.76,0.697
552,955.84,-0.082
554,957.98,-0.467
556,960.03,-1.999
558,962.17,-2.166
560,964.24,-2.621
562,966.36,-1.075
564,968.41,-0.156
566,970.49,1.644
568,972.61,1.085
570,974.72,2.11
572,976.77,1.644
574,978.86,1.087
576,980.93,0.322
578,983.07,-1.093
580,985.14,-1.505
582,987.24,-1.492
584,989.28,-0.51
585,990.36,0