Folder: matl-db/Wood/Calibration_Data/IMT (part 2)

File: IMT-Mines-Ales_TGA_N2_2K_R1.csv
Time (s),Sample Temperature (K),Weight (mg)
0,383.15,4.975
79,385.21,4.975
158,387.82,4.974
237,390.46,4.974
316,393.10,4.973
395,395.74,4.972
474,398.37,4.971
553,400.99,4.970
632,403.64,4.968
711,406.28,4.967
790,408.91,4.966
869,411.55,4.964
948,414.19,4.962
1027,416.82,4.961
1106,419.46,4.959
1185,422.09,4.956
1264,424.74,4.954
1343,427.37,4.951
1422,430.01,4.948
1501,432.63,4.945
1580,435.28,4.941
1659,437.92,4.937
1738,440.55,4.933
1817,443.18,4.928
1896,445.82,4.922
1975,448.46,4.917
2054,451.09,4.911
2133,453.73,4.904
2212,456.36,4.897
2291,459.00,4.890
2370,461.63,4.882
2449,464.26,4.874
2528,466.90,4.866
2607,469.54,4.857
2686,472.18,4.848
2765,474.80,4.839
2844,477.44,4.829
2923,480.08,4.819
3002,482.71,4.809
3081,485.35,4.797
3160,487.98,4.785
3239,490.62,4.773
3318,493.26,4.759
3397,495.90,4.744
3476,498.52,4.728
3555,501.17,4.711
3634,503.80,4.693
3713,506.44,4.673
3792,509.07,4.651
3871,511.71,4.629
3950,514.34,4.605
4029,516.98,4.580
4108,519.61,4.554
4187,522.24,4.527
4266,524.88,4.499
4345,527.51,4.470
4424,530.15,4.439
4503,532.78,4.410
4582,535.42,4.378
4661,538.06,4.345
4740,540.69,4.312
4819,543.33,4.277
4898,545.96,4.240
4977,548.60,4.204
5056,551.24,4.164
5135,553.87,4.124
5214,556.51,4.081
5293,559.15,4.039
5372,561.77,3.992
5451,564.41,3.944
5530,567.05,3.897
5609,569.69,3.845
5688,572.32,3.789
5767,574.96,3.732
5846,577.59,3.671
5925,580.22,3.608
6004,582.85,3.542
6083,585.50,3.472
6162,588.13,3.399
6241,590.76,3.324
6320,593.40,3.245
6399,596.03,3.161
6478,598.67,3.076
6557,601.31,2.988
6636,603.94,2.898
6715,606.58,2.807
6794,609.21,2.712
6873,611.85,2.614
6952,614.48,2.515
7031,617.11,2.414
7110,619.75,2.309
7189,622.39,2.200
7268,625.03,2.089
7347,627.66,1.977
7426,630.29,1.865
7505,632.94,1.753
7584,635.56,1.647
7663,638.20,1.549
7742,640.84,1.464
7821,643.47,1.393
7900,646.11,1.338
7979,648.74,1.297
8058,651.37,1.267
8137,654.01,1.247
8216,656.65,1.232
8295,659.29,1.220
8374,661.92,1.210
8453,664.55,1.200
8532,667.19,1.191
8611,669.82,1.183
8690,672.46,1.174
8769,675.10,1.166
8848,677.73,1.158
8927,680.37,1.151
9006,683.00,1.143
9085,685.64,1.136
9164,688.27,1.129
9243,690.91,1.121
9322,693.54,1.114
9401,696.17,1.107
9480,698.82,1.101
9559,701.45,1.094
9638,704.08,1.087
9717,706.71,1.081
9796,709.35,1.075
9875,711.98,1.069
9954,714.61,1.063
10033,717.25,1.057
10112,719.88,1.051
10191,722.52,1.046
10270,725.15,1.041
10349,727.78,1.036
10428,730.41,1.031
10507,733.04,1.026
10586,735.68,1.022
10665,738.31,1.017
10744,740.94,1.013
10823,743.58,1.009
10902,746.21,1.005
10981,748.85,1.001
11060,751.49,0.997
11139,754.12,0.994
11218,756.75,0.990
11297,759.38,0.987
11376,762.02,0.983
11455,764.65,0.980
11534,767.28,0.976
11613,769.92,0.973
11692,772.55,0.970
11771,775.18,0.966
11850,777.81,0.963
11929,780.45,0.960
12008,783.08,0.957
12087,785.71,0.954
12166,788.35,0.951
12245,790.98,0.948
12324,793.62,0.945
12403,796.25,0.942
12482,798.88,0.939
12561,801.51,0.936
12640,804.15,0.933
12719,806.78,0.930
12798,809.42,0.927
12877,812.05,0.924
12956,814.68,0.921
13035,817.32,0.918
13114,819.95,0.915
13193,822.58,0.913
13272,825.22,0.910
13351,827.85,0.907
13430,830.49,0.905
13509,833.12,0.902
13588,835.75,0.899
13667,838.38,0.896
13746,841.02,0.894
13825,843.65,0.891
13904,846.28,0.889
13983,848.91,0.886
14062,851.55,0.883
14141,854.18,0.881
14220,856.82,0.879
14299,859.45,0.876
14378,862.08,0.874
14457,864.72,0.871
14536,867.35,0.869
14615,869.99,0.866
14694,872.62,0.864
14773,875.25,0.862
14852,877.88,0.859
14931,880.51,0.857
15010,883.15,0.855
15089,885.79,0.852
15168,888.41,0.850
15247,891.05,0.848
15326,893.68,0.846
15405,896.32,0.844
15484,898.95,0.842
15563,901.58,0.840
15642,904.22,0.838
15721,906.85,0.835
15800,909.48,0.833
15879,912.13,0.831
15958,914.75,0.829
16037,917.38,0.828
16116,920.02,0.826
16195,922.65,0.824
16274,925.28,0.822
16353,927.92,0.820
16432,930.55,0.818
16511,933.18,0.816
16590,935.81,0.815
16669,938.45,0.813
16748,941.08,0.811
16827,943.71,0.810
16906,946.35,0.808
16985,948.98,0.807
17064,951.62,0.805
17143,954.25,0.804
17222,956.89,0.802
17301,959.52,0.801
17380,962.16,0.799
17459,964.78,0.798
17538,967.42,0.796
17617,970.05,0.795
17696,972.69,0.793
17775,975.32,0.792
17854,977.96,0.791
17933,980.58,0.790
18012,983.22,0.788
18091,985.85,0.787
18170,988.49,0.786
18249,991.12,0.785
18328,993.75,0.783
18407,996.39,0.782
18486,999.01,0.781
18565,1001.66,0.779
18644,1004.29,0.778
18723,1006.92,0.777
18802,1009.55,0.776
18881,1012.19,0.774
18960,1014.82,0.773
19039,1017.45,0.772
19118,1020.08,0.771
19197,1022.72,0.769
19276,1025.35,0.768
19355,1027.99,0.767
19434,1030.62,0.766
19513,1033.25,0.765
19592,1035.89,0.764
19671,1038.52,0.762
19750,1041.15,0.761
19829,1043.79,0.760
19908,1046.42,0.759
19987,1049.05,0.758
20066,1051.68,0.757
20145,1054.31,0.755
20224,1056.95,0.754
20303,1059.59,0.753
20382,1062.21,0.752
20461,1064.85,0.751
20540,1067.49,0.750
20619,1070.12,0.748
20698,1072.75,0.747
20777,1075.39,0.746
20856,1078.01,0.744
20935,1080.65,0.743
21014,1083.28,0.742
21093,1085.91,0.740
21172,1088.55,0.739
21251,1091.18,0.738
21330,1093.81,0.737
21409,1096.46,0.735
21488,1099.08,0.733
21567,1101.72,0.732
21646,1104.36,0.731
21725,1106.98,0.729
21804,1109.62,0.727
21883,1112.25,0.726
21962,1114.88,0.724
22041,1117.52,0.722
22120,1120.16,0.720
22199,1122.78,0.719
22278,1125.42,0.717
22357,1128.05,0.715
22436,1130.68,0.713
22515,1133.32,0.711
22594,1135.95,0.709
22673,1138.59,0.707
22752,1141.22,0.705
22831,1143.86,0.703
22910,1146.48,0.700
22989,1149.12,0.698
23068,1151.74,0.695
23147,1154.39,0.693
23226,1157.01,0.691
23305,1159.64,0.687
23384,1162.28,0.685
23463,1164.92,0.682
23542,1167.55,0.679
23621,1170.18,0.676
23699,1172.79,0.673

File: IMT-Mines-Ales_TGA_N2_10K_R1.csv
Time (s),Sample Temperature (K),Weight (mg)
0,383.15,4.921
16,383.83,4.922
32,386.07,4.923
48,388.48,4.923
64,391.03,4.923
80,393.64,4.923
96,396.27,4.923
112,398.93,4.922
128,401.60,4.922
144,404.29,4.922
160,406.97,4.921
176,409.65,4.921
192,412.33,4.920
208,415.01,4.920
224,417.70,4.919
240,420.37,4.918
256,423.07,4.918
272,425.76,4.917
288,428.44,4.916
304,431.12,4.915
320,433.79,4.914
336,436.46,4.912
352,439.15,4.910
368,441.83,4.909
384,444.50,4.906
400,447.18,4.904
416,449.86,4.902
432,452.53,4.899
448,455.21,4.895
464,457.88,4.892
480,460.56,4.888
496,463.24,4.884
512,465.92,4.879
528,468.60,4.873
544,471.27,4.868
560,473.95,4.861
576,476.63,4.854
592,479.30,4.847
608,481.98,4.839
624,484.66,4.831
640,487.33,4.823
656,490.01,4.814
672,492.69,4.804
688,495.37,4.795
704,498.04,4.784
720,500.72,4.774
736,503.41,4.763
752,506.08,4.752
768,508.75,4.740
784,511.43,4.727
800,514.11,4.714
816,516.79,4.700
832,519.46,4.685
848,522.14,4.669
864,524.81,4.652
880,527.49,4.633
896,530.18,4.613
912,532.85,4.591
928,535.53,4.568
944,538.20,4.543
960,540.88,4.518
976,543.55,4.491
992,546.24,4.462
1008,548.91,4.433
1024,551.58,4.403
1040,554.26,4.371
1056,556.94,4.338
1072,559.62,4.305
1088,562.29,4.271
1104,564.97,4.236
1120,567.65,4.201
1136,570.33,4.165
1152,573.01,4.128
1168,575.68,4.090
1184,578.36,4.052
1200,581.03,4.012
1216,583.71,3.971
1232,586.39,3.928
1248,589.06,3.884
1264,591.74,3.838
1280,594.41,3.790
1296,597.09,3.739
1312,599.77,3.687
1328,602.45,3.632
1344,605.13,3.575
1360,607.80,3.514
1376,610.47,3.451
1392,613.15,3.386
1408,615.84,3.318
1424,618.51,3.247
1440,621.19,3.173
1456,623.86,3.098
1472,626.54,3.020
1488,629.21,2.940
1504,631.89,2.858
1520,634.56,2.774
1536,637.24,2.687
1552,639.92,2.597
1568,642.61,2.506
1584,645.28,2.411
1600,647.96,2.314
1616,650.63,2.215
1632,653.31,2.114
1648,655.98,2.013
1664,658.66,1.912
1680,661.34,1.812
1696,664.01,1.716
1712,666.68,1.624
1728,669.37,1.539
1744,672.04,1.462
1760,674.72,1.393
1776,677.40,1.333
1792,680.07,1.284
1808,682.75,1.245
1824,685.43,1.213
1840,688.11,1.190
1856,690.79,1.173
1872,693.46,1.159
1888,696.14,1.148
1904,698.81,1.138
1920,701.49,1.130
1936,704.15,1.121
1952,706.83,1.113
1968,709.49,1.106
1984,712.16,1.098
2000,714.82,1.091
2016,717.48,1.083
2032,720.16,1.076
2048,722.82,1.069
2064,725.49,1.062
2080,728.15,1.055
2096,730.82,1.049
2112,733.49,1.042
2128,736.15,1.035
2144,738.83,1.029
2160,741.49,1.023
2176,744.16,1.017
2192,746.82,1.011
2208,749.49,1.005
2224,752.15,0.999
2240,754.82,0.994
2256,757.49,0.988
2272,760.16,0.983
2288,762.82,0.978
2304,765.49,0.973
2320,768.15,0.969
2336,770.81,0.964
2352,773.49,0.960
2368,776.16,0.956
2384,778.83,0.951
2400,781.49,0.947
2416,784.16,0.943
2432,786.83,0.940
2448,789.49,0.936
2464,792.16,0.933
2480,794.83,0.929
2496,797.49,0.926
2512,800.15,0.923
2528,802.83,0.919
2544,805.49,0.916
2560,808.15,0.913
2576,810.82,0.910
2592,813.50,0.907
2608,816.16,0.904
2624,818.82,0.901
2640,821.49,0.898
2656,824.16,0.895
2672,826.83,0.893
2688,829.49,0.890
2704,832.16,0.887
2720,834.83,0.884
2736,837.49,0.882
2752,840.16,0.879
2768,842.83,0.876
2784,845.49,0.874
2800,848.16,0.871
2816,850.83,0.869
2832,853.50,0.866
2848,856.16,0.864
2864,858.83,0.861
2880,861.50,0.859
2896,864.17,0.856
2912,866.83,0.854
2928,869.50,0.851
2944,872.16,0.849
2960,874.83,0.847
2976,877.50,0.844
2992,880.17,0.842
3008,882.83,0.840
3024,885.50,0.837
3040,888.17,0.835
3056,890.83,0.833
3072,893.50,0.831
3088,896.16,0.828
3104,898.83,0.826
3120,901.50,0.824
3136,904.16,0.822
3152,906.83,0.820
3168,909.50,0.818
3184,912.17,0.815
3200,914.83,0.813
3216,917.50,0.811
3232,920.17,0.809
3248,922.83,0.807
3264,925.50,0.805
3280,928.17,0.804
3296,930.83,0.802
3312,933.50,0.800
3328,936.17,0.798
3344,938.83,0.796
3360,941.50,0.794
3376,944.17,0.793
3392,946.84,0.791
3408,949.50,0.789
3424,952.17,0.788
3440,954.83,0.786
3456,957.51,0.785
3472,960.16,0.783
3488,962.83,0.781
3504,965.50,0.780
3520,968.17,0.778
3536,970.84,0.777
3552,973.50,0.775
3568,976.17,0.774
3584,978.84,0.773
3600,981.51,0.771
3616,984.17,0.770
3632,986.84,0.769
3648,989.51,0.767
3664,992.17,0.766
3680,994.84,0.765
3696,997.50,0.763
3712,1000.17,0.762
3728,1002.84,0.761
3744,1005.50,0.760
3760,1008.17,0.759
3776,1010.84,0.757
3792,1013.50,0.756
3808,1016.17,0.755
3824,1018.84,0.754
3840,1021.50,0.753
3856,1024.17,0.752
3872,1026.83,0.750
3888,1029.50,0.749
3904,1032.18,0.748
3920,1034.84,0.747
3936,1037.50,0.746
3952,1040.17,0.745
3968,1042.84,0.744
3984,1045.50,0.743
4000,1048.17,0.742
4016,1050.84,0.741
4032,1053.51,0.740
4048,1056.17,0.739
4064,1058.83,0.737
4080,1061.50,0.736
4096,1064.17,0.735
4112,1066.84,0.734
4128,1069.49,0.733
4144,1072.17,0.732
4160,1074.84,0.731
4176,1077.50,0.730
4192,1080.16,0.729
4208,1082.84,0.728
4224,1085.50,0.727
4240,1088.16,0.726
4256,1090.83,0.725
4272,1093.49,0.724
4288,1096.17,0.723
4304,1098.84,0.722
4320,1101.49,0.721
4336,1104.17,0.720
4352,1106.83,0.719
4368,1109.50,0.718
4384,1112.16,0.717
4400,1114.83,0.716
4416,1117.50,0.714
4432,1120.17,0.713
4448,1122.83,0.713
4464,1125.50,0.712
4480,1128.16,0.710
4496,1130.84,0.709
4512,1133.50,0.708
4528,1136.16,0.707
4544,1138.83,0.706
4560,1141.50,0.705
4576,1144.17,0.704
4592,1146.84,0.702
4608,1149.50,0.701
4624,1152.16,0.700
4640,1154.83,0.699
4656,1157.50,0.698
4672,1160.16,0.697
4688,1162.82,0.696
4704,1165.50,0.694
4720,1168.15,0.693
4736,1170.83,0.691
4739,1171.32,0.691

File: IMT-Mines-Ales_TGA_N2_20K_R1.csv
Time (s),Sample Temperature (K),Weight (mg)
0,383.15,5.110
16,384.42,5.112
32,388.89,5.114
48,393.73,5.113
64,398.84,5.113
80,404.09,5.113
96,409.40,5.112
112,414.78,5.111
128,420.16,5.110
144,425.55,5.109
160,430.93,5.108
176,436.32,5.106
192,441.68,5.104
208,447.06,5.101
224,452.45,5.097
240,457.82,5.093
256,463.19,5.087
272,468.57,5.081
288,473.95,5.073
304,479.32,5.063
320,484.70,5.051
336,490.08,5.038
352,495.45,5.022
368,500.83,5.005
384,506.20,4.986
400,511.58,4.965
416,516.95,4.943
432,522.32,4.918
448,527.70,4.890
464,533.08,4.858
480,538.46,4.821
496,543.83,4.778
512,549.20,4.729
528,554.58,4.676
544,559.95,4.617
560,565.32,4.554
576,570.70,4.487
592,576.08,4.416
608,581.45,4.341
624,586.83,4.264
640,592.20,4.184
656,597.58,4.100
672,602.95,4.011
688,608.32,3.915
704,613.71,3.810
720,619.08,3.696
736,624.45,3.571
752,629.83,3.436
768,635.20,3.291
784,640.58,3.137
800,645.94,2.974
816,651.32,2.801
832,656.70,2.617
848,662.07,2.422
864,667.45,2.220
880,672.82,2.016
896,678.20,1.820
912,683.57,1.642
928,688.95,1.488
944,694.32,1.365
960,699.70,1.275
976,705.04,1.216
992,710.37,1.182
1008,715.71,1.159
1024,721.03,1.141
1040,726.37,1.125
1056,731.70,1.109
1072,737.04,1.095
1088,742.37,1.080
1104,747.70,1.066
1120,753.04,1.053
1136,758.37,1.040
1152,763.71,1.027
1168,769.04,1.015
1184,774.37,1.004
1200,779.71,0.994
1216,785.04,0.985
1232,790.38,0.976
1248,795.71,0.967
1264,801.04,0.959
1280,806.38,0.952
1296,811.71,0.945
1312,817.04,0.938
1328,822.38,0.932
1344,827.71,0.926
1360,833.05,0.920
1376,838.39,0.914
1392,843.71,0.908
1408,849.05,0.903
1424,854.38,0.897
1440,859.71,0.892
1456,865.06,0.887
1472,870.39,0.882
1488,875.72,0.877
1504,881.05,0.872
1520,886.39,0.868
1536,891.72,0.863
1552,897.06,0.859
1568,902.39,0.855
1584,907.72,0.851
1600,913.06,0.846
1616,918.40,0.842
1632,923.73,0.837
1648,929.07,0.833
1664,934.40,0.829
1680,939.73,0.826
1696,945.07,0.822
1712,950.40,0.818
1728,955.73,0.814
1744,961.07,0.810
1760,966.39,0.806
1776,971.73,0.803
1792,977.07,0.800
1808,982.40,0.797
1824,987.73,0.794
1840,993.07,0.792
1856,998.40,0.790
1872,1003.73,0.788
1888,1009.07,0.785
1904,1014.40,0.782
1920,1019.73,0.779
1936,1025.06,0.777
1952,1030.40,0.775
1968,1035.73,0.772
1984,1041.06,0.770
2000,1046.40,0.768
2016,1051.73,0.766
2032,1057.07,0.764
2048,1062.39,0.762
2064,1067.73,0.760
2080,1073.06,0.758
2096,1078.39,0.756
2112,1083.73,0.754
2128,1089.06,0.751
2144,1094.40,0.749
2160,1099.73,0.747
2176,1105.06,0.745
2192,1110.39,0.743
2208,1115.72,0.741
2224,1121.05,0.739
2240,1126.40,0.737
2256,1131.73,0.735
2272,1137.05,0.733
2288,1142.38,0.731
2304,1147.72,0.729
2320,1153.05,0.727
2336,1158.39,0.725
2352,1163.71,0.723
2368,1169.06,0.720
2388,779.49,0.950
2404,782.15,0.950
2420,784.83,0.940
2436,787.49,0.940
2452,790.16,0.940
2468,792.82,0.930
2484,795.49,0.930
2500,798.16,0.930
2516,800.83,0.920
2532,803.50,0.920
2548,806.16,0.920
2564,808.83,0.910
2580,811.49,0.910
2596,814.15,0.910
2612,816.83,0.900
2628,819.49,0.900
2644,822.16,0.900
2660,824.83,0.890
2676,827.50,0.890
2692,830.16,0.890
2708,832.83,0.890
2724,835.49,0.880
2740,838.16,0.880
2756,840.82,0.880
2772,843.50,0.880
2788,846.16,0.870
2804,848.83,0.870
2820,851.49,0.870
2836,854.16,0.870
2852,856.83,0.860
2868,859.49,0.860
2884,862.16,0.860
2900,864.83,0.860
2916,867.49,0.850
2932,870.16,0.850
2948,872.84,0.850
2964,875.50,0.850
2980,878.16,0.840
2996,880.83,0.840
3012,883.49,0.840
3028,886.17,0.840
3044,888.83,0.830
3060,891.50,0.830
3076,894.17,0.830
3092,896.83,0.830
3108,899.50,0.830
3124,902.17,0.820
3140,904.83,0.820
3156,907.50,0.820
3172,910.16,0.820
3188,912.83,0.810
3204,915.50,0.810
3220,918.17,0.810
3236,920.83,0.810
3252,923.50,0.810
3268,926.17,0.800
3284,928.83,0.800
3300,931.50,0.800
3316,934.17,0.800
3332,936.84,0.800
3348,939.51,0.800
3364,942.18,0.790
3380,944.84,0.790
3396,947.50,0.790
3412,950.17,0.790
3428,952.83,0.790
3444,955.50,0.790
3460,958.17,0.780
3476,960.83,0.780
3492,963.51,0.780
3508,966.17,0.780
3524,968.84,0.780
3540,971.50,0.780
3556,974.17,0.780
3572,976.84,0.770
3588,979.50,0.770
3604,982.17,0.770
3620,984.83,0.770
3636,987.50,0.770
3652,990.17,0.770
3668,992.83,0.770
3684,995.50,0.760
3700,998.17,0.760
3716,1000.84,0.760
3732,1003.50,0.760
3748,1006.17,0.760
3764,1008.84,0.760
3780,1011.51,0.760
3796,1014.17,0.760
3812,1016.84,0.750
3828,1019.51,0.750
3844,1022.17,0.750
3860,1024.84,0.750
3876,1027.51,0.750
3892,1030.18,0.750
3908,1032.83,0.750
3924,1035.50,0.750
3940,1038.17,0.750
3956,1040.84,0.740
3972,1043.50,0.740
3988,1046.17,0.740
4004,1048.83,0.740
4020,1051.50,0.740
4036,1054.17,0.740
4052,1056.83,0.740
4068,1059.49,0.740
4084,1062.17,0.740
4100,1064.84,0.730
4116,1067.51,0.730
4132,1070.17,0.730
4148,1072.83,0.730
4164,1075.50,0.730
4180,1078.16,0.730
4196,1080.83,0.730
4212,1083.50,0.730
4228,1086.17,0.730
4244,1088.83,0.730
4260,1091.50,0.720
4276,1094.17,0.720
4292,1096.84,0.720
4308,1099.50,0.720
4324,1102.17,0.720
4340,1104.83,0.720
4356,1107.50,0.720
4372,1110.17,0.720
4388,1112.84,0.720
4404,1115.50,0.720
4420,1118.17,0.710
4436,1120.83,0.710
4452,1123.49,0.710
4468,1126.16,0.710
4484,1128.83,0.710
4500,1131.50,0.710
4516,1134.17,0.710
4532,1136.82,0.710
4548,1139.49,0.710
4564,1142.16,0.700
4580,1144.83,0.700
4596,1147.50,0.700
4612,1150.17,0.700
4628,1152.83,0.700
4644,1155.49,0.700
4660,1158.16,0.700
4676,1160.83,0.700
4692,1163.50,0.700
4708,1166.16,0.690
4724,1168.83,0.690
4739,1171.32,0.690

File: IMT-Mines-Ales_TGA_O2-20_20K_R1.csv
Time (s),Sample Temperature (K),Weight (mg)
0,383.15,4.299
8,383.15,4.299
16,384.66,4.300
24,386.84,4.301
32,389.15,4.302
40,391.53,4.302
48,394.01,4.302
56,396.55,4.302
64,399.12,4.301
72,401.74,4.301
80,404.37,4.301
88,407.03,4.301
96,409.69,4.300
104,412.37,4.300
112,415.06,4.300
120,417.76,4.299
128,420.46,4.299
136,423.15,4.298
144,425.85,4.298
152,428.54,4.297
160,431.23,4.296
168,433.92,4.295
176,436.60,4.294
184,439.29,4.293
192,441.98,4.292
200,444.67,4.290
208,447.35,4.289
216,450.04,4.287
224,452.73,4.285
232,455.42,4.282
240,458.11,4.280
248,460.79,4.277
256,463.49,4.275
264,466.17,4.271
272,468.86,4.268
280,471.56,4.264
288,474.24,4.260
296,476.93,4.256
304,479.62,4.251
312,482.31,4.246
320,484.99,4.241
328,487.68,4.235
336,490.37,4.229
344,493.05,4.222
352,495.75,4.215
360,498.44,4.207
368,501.11,4.199
376,503.81,4.190
384,506.49,4.181
392,509.18,4.172
400,511.87,4.162
408,514.56,4.151
416,517.25,4.140
424,519.94,4.128
432,522.63,4.116
440,525.31,4.102
448,528.00,4.087
456,530.69,4.071
464,533.37,4.054
472,536.06,4.036
480,538.74,4.016
488,541.44,3.995
496,544.13,3.972
504,546.81,3.948
512,549.50,3.923
520,552.19,3.896
528,554.87,3.868
536,557.56,3.839
544,560.25,3.809
552,562.94,3.777
560,565.63,3.744
568,568.31,3.709
576,571.01,3.673
584,573.68,3.636
592,576.37,3.597
600,579.06,3.557
608,581.75,3.514
616,584.44,3.470
624,587.12,3.423
632,589.81,3.375
640,592.50,3.323
648,595.19,3.268
656,597.87,3.209
664,600.56,3.147
672,603.24,3.081
680,605.94,3.010
688,608.62,2.934
696,611.31,2.853
704,614.00,2.766
712,616.68,2.671
720,619.37,2.567
728,622.06,2.452
736,624.75,2.321
744,627.44,2.174
752,630.12,2.011
760,632.81,1.841
768,635.50,1.681
776,638.18,1.551
784,640.87,1.463
792,643.56,1.405
800,646.24,1.361
808,648.93,1.325
816,651.62,1.294
824,654.31,1.266
832,656.99,1.241
840,659.68,1.217
848,662.37,1.195
856,665.05,1.174
864,667.74,1.154
872,670.43,1.135
880,673.12,1.115
888,675.81,1.097
896,678.49,1.078
904,681.18,1.060
912,683.88,1.043
920,686.55,1.025
928,689.25,1.007
936,691.94,0.990
944,694.62,0.972
952,697.31,0.953
960,700.00,0.935
968,702.66,0.917
976,705.32,0.899
984,708.00,0.880
992,710.66,0.861
1000,713.33,0.842
1008,716.00,0.823
1016,718.66,0.803
1024,721.33,0.783
1032,723.99,0.762
1040,726.66,0.741
1048,729.33,0.718
1056,731.99,0.696
1064,734.66,0.672
1072,737.33,0.647
1080,740.00,0.622
1088,742.67,0.596
1096,745.33,0.570
1104,748.00,0.543
1112,750.66,0.515
1120,753.33,0.488
1128,756.00,0.460
1136,758.66,0.432
1144,761.33,0.404
1152,764.00,0.375
1160,766.67,0.345
1168,769.33,0.314
1176,772.01,0.281
1184,774.67,0.244
1192,777.34,0.207
1200,780.22,0.018
1208,782.67,0.019
1216,785.32,0.016
1224,787.99,0.014
1232,790.66,0.014
1240,793.33,0.013
1248,796.00,0.013
1256,798.66,0.012
1264,801.33,0.012
1272,804.00,0.012
1280,806.67,0.012
1288,809.33,0.012
1296,812.01,0.012
1304,814.67,0.012
1312,817.34,0.011
1320,820.00,0.011
1328,822.67,0.011
1336,825.34,0.011
1344,828.00,0.011
1352,830.67,0.011
1360,833.34,0.011
1368,836.00,0.010
1376,838.67,0.010
1384,841.35,0.010
1392,844.01,0.010
1400,846.68,0.010
1408,849.34,0.010
1416,852.01,0.010
1424,854.68,0.009
1432,857.34,0.009
1440,860.01,0.009
1448,862.68,0.009
1456,865.35,0.009
1464,868.01,0.009
1472,870.68,0.009
1480,873.34,0.008
1488,876.02,0.008
1496,878.68,0.008
1504,881.35,0.008
1512,884.01,0.008
1520,886.69,0.008
1528,889.35,0.008
1536,892.02,0.008
1544,894.68,0.007
1552,897.35,0.007
1560,900.02,0.007
1568,902.68,0.007
1576,905.35,0.007
1584,908.02,0.007
1592,910.69,0.007
1600,913.35,0.006
1608,916.02,0.006
1616,918.69,0.006
1624,921.35,0.006
1632,924.02,0.006
1640,926.69,0.006
1648,929.36,0.006
1656,932.02,0.006
1664,934.69,0.006
1672,937.35,0.006
1680,940.02,0.005
1688,942.70,0.005
1696,945.35,0.005
1704,948.03,0.005
1712,950.68,0.005
1720,953.36,0.005
1728,956.03,0.005
1736,958.69,0.005
1744,961.36,0.005
1752,964.02,0.005
1760,966.69,0.004
1768,969.36,0.004
1776,972.03,0.004
1784,974.69,0.004
1792,977.36,0.004
1800,980.03,0.004
1808,982.69,0.004
1816,985.36,0.003
1824,988.03,0.003
1832,990.69,0.003
1840,993.36,0.003
1848,996.02,0.003
1856,998.69,0.003
1864,1001.36,0.003
1872,1004.02,0.003
1880,1006.69,0.003
1888,1009.36,0.003
1896,1012.03,0.003
1904,1014.70,0.003
1912,1017.36,0.002
1920,1020.02,0.002
1928,1022.70,0.002
1936,1025.36,0.002
1944,1028.02,0.002
1952,1030.69,0.002
1960,1033.36,0.002
1968,1036.03,0.002
1976,1038.70,0.002
1984,1041.35,0.002
1992,1044.03,0.002
2000,1046.68,0.002
2008,1049.35,0.001
2016,1052.03,0.001
2024,1054.69,0.001
2032,1057.36,0.001
2040,1060.02,0.001
2048,1062.68,0.001
2056,1065.36,0.001
2064,1068.02,0.001
2072,1070.69,0.001
2080,1073.35,0.001
2088,1076.02,0.000
2096,1078.69,0.000
2104,1081.35,0.000
2112,1084.03,0.000
2120,1086.68,0.000
2128,1089.36,-0.001
2136,1092.02,-0.001
2144,1094.69,-0.001
2152,1097.35,-0.001
2160,1100.02,-0.001
2168,1102.68,-0.001
2176,1105.35,-0.002
2184,1108.02,-0.002
2192,1110.68,-0.002
2200,1113.36,-0.002
2208,1116.02,-0.002
2216,1118.68,-0.002
2224,1121.36,-0.002
2232,1124.02,-0.003
2240,1126.69,-0.003
2248,1129.35,-0.003
2256,1132.01,-0.003
2264,1134.68,-0.003
2272,1137.34,-0.003
2280,1140.02,-0.003
2288,1142.69,-0.004
2296,1145.35,-0.004
2304,1148.02,-0.004
2312,1150.68,-0.004
2320,1153.35,-0.004
2328,1156.02,-0.005
2336,1158.68,-0.005
2344,1161.34,-0.005
2352,1164.01,-0.005
2360,1166.68,-0.005
2368,1169.34,-0.006
2369,1169.67,-0.006

File: IMT-Mines-Ales_Wood_Cone_50kW_hor_R1.csv
Time (s),Specimen mass (g),HRR (kW/m²)
0,119.80,4.59
10,120.33,2.94
20,120.05,142.59
30,118.84,219.54
40,117.53,194.27
50,116.55,168.78
60,115.45,152.40
70,114.63,143.55
80,113.65,134.18
90,113.04,131.83
100,112.25,126.20
110,111.44,125.74
120,110.65,118.35
130,109.94,114.07
140,109.24,110.99
150,108.53,111.51
160,107.85,110.17
170,107.22,108.36
180,106.55,107.40
190,105.84,106.70
200,105.24,107.74
210,104.62,105.57
220,103.97,102.77
230,103.25,103.12
240,102.64,99.63
250,101.94,104.01
260,101.34,100.13
270,100.64,100.13
280,100.04,103.44
290,99.35,100.74
300,98.74,101.85
310,98.13,105.84
320,97.42,99.76
330,96.84,99.59
340,96.32,98.49
350,95.72,100.43
360,95.02,98.73
370,94.42,99.97
380,93.74,99.59
390,93.15,94.37
400,92.54,98.59
410,91.94,98.43
420,91.32,97.01
430,90.64,99.77
440,90.12,96.75
450,89.42,98.13
460,88.82,98.56
470,88.24,99.67
480,87.52,101.06
490,86.93,100.93
500,86.22,100.80
510,85.72,103.16
520,85.04,101.94
530,84.34,101.50
540,83.73,101.69
550,83.04,101.77
560,82.54,102.49
570,81.93,101.80
580,81.32,103.99
590,80.62,104.70
600,79.93,104.35
610,79.41,105.77
620,78.83,102.89
630,78.22,106.16
640,77.42,105.10
650,76.83,103.62
660,76.23,108.22
670,75.62,110.25
680,74.91,106.40
690,74.16,109.12
700,73.63,110.74
710,72.93,110.32
720,72.31,111.44
730,71.71,114.89
740,71.03,115.83
750,70.19,115.00
760,69.63,115.02
770,69.01,114.61
780,68.33,116.19
790,67.63,116.60
800,67.03,119.33
810,66.32,119.65
820,65.63,120.12
830,64.93,120.17
840,64.13,124.66
850,63.53,128.45
860,62.71,126.65
870,62.13,130.56
880,61.41,130.00
890,60.70,131.88
900,59.93,133.68
910,59.22,138.35
920,58.42,138.67
930,57.73,139.74
940,56.92,141.52
950,56.14,141.82
960,55.32,142.79
970,54.42,146.12
980,53.51,151.18
990,52.81,151.97
1000,51.92,154.03
1010,51.11,155.74
1020,50.12,160.96
1030,49.41,162.85
1040,48.51,160.83
1050,47.52,165.70
1060,46.62,162.45
1070,45.70,163.22
1080,44.72,165.76
1090,43.65,167.60
1100,42.53,166.86
1110,41.91,166.63
1120,40.92,167.67
1130,40.01,165.73
1140,38.95,169.66
1150,38.13,164.44
1160,37.20,166.78
1170,36.32,162.66
1180,35.33,160.10
1190,34.42,158.50
1200,33.45,154.39
1210,32.54,152.74
1220,31.82,147.92
1230,30.88,142.48
1240,30.21,137.99
1250,29.41,137.83
1260,28.63,133.58
1270,27.93,128.89
1280,27.32,123.33
1290,26.61,119.50
1300,26.00,116.26
1310,25.32,114.28
1320,24.71,106.22
1330,24.29,104.02
1340,23.71,94.45
1350,23.30,90.62
1360,22.90,86.58
1370,22.40,82.74
1380,22.20,80.73
1390,21.82,71.11
1400,21.58,65.70
1410,21.29,64.37
1420,21.10,61.68
1430,20.87,55.14
1440,20.69,49.77
1450,20.59,48.09
1460,20.40,45.21
1470,20.19,44.88
1480,20.09,44.69
1490,19.90,45.38
1500,19.79,43.49
1510,19.70,42.92
1520,19.58,43.36
1530,19.39,42.49
1540,19.30,41.60
1550,19.18,42.79
1560,18.99,45.23
1570,18.90,42.84
1580,18.79,43.67
1590,18.70,45.14
1600,18.60,44.03
1610,18.39,42.90