Folder: matl-db/Wood/Calibration_Data/MFSL (part 2)

File: MFSL_Wood_TGA_N2_10K_R3.csv
Time (s),Temperature (K),Mass (mg)
0.0,293.6,4.836
33.0,293.7,4.841
66.6,294.1,4.837
140.9,297.6,4.808
308.9,309.4,4.701
476.9,315.0,4.619
644.9,315.9,4.581
812.9,315.1,4.569
980.9,314.1,4.562
1148.9,313.4,4.564
1316.9,313.1,4.559
1484.9,313.0,4.564
1652.9,313.0,4.566
1820.9,313.0,4.567
1899.9,313.0,4.570
1916.7,313.1,4.571
1933.5,313.2,4.570
1950.3,313.5,4.573
1967.1,313.9,4.572
1983.9,314.5,4.573
2000.7,315.4,4.572
2017.5,316.6,4.573
2034.3,318.1,4.573
2051.1,319.9,4.571
2067.9,321.9,4.571
2084.7,324.2,4.569
2101.5,326.9,4.570
2118.3,329.7,4.568
2135.1,332.9,4.568
2151.9,336.2,4.567
2168.7,339.6,4.565
2185.5,343.2,4.563
2202.3,346.9,4.561
2219.1,350.6,4.559
2235.9,354.3,4.556
2252.7,358.1,4.555
2269.5,361.9,4.552
2286.3,365.7,4.551
2303.1,369.5,4.550
2319.9,373.3,4.550
2336.7,377.0,4.550
2353.5,380.7,4.550
2370.3,384.3,4.550
2387.1,387.9,4.550
2403.9,391.4,4.550
2420.7,394.9,4.549
2437.5,398.4,4.549
2454.3,401.8,4.549
2471.1,405.2,4.549
2487.9,408.5,4.549
2504.7,411.8,4.549
2521.5,415.1,4.547
2538.3,418.4,4.546
2555.1,421.6,4.545
2571.9,424.8,4.544
2588.7,427.9,4.543
2605.5,431.0,4.542
2622.3,434.1,4.540
2639.1,437.2,4.538
2655.9,440.2,4.536
2672.7,443.2,4.533
2689.5,446.1,4.530
2706.3,449.1,4.528
2723.1,452.0,4.523
2739.9,454.9,4.517
2756.7,457.8,4.511
2773.5,460.6,4.506
2790.3,463.5,4.501
2807.1,466.3,4.493
2823.9,469.2,4.485
2840.7,472.0,4.476
2857.5,474.8,4.465
2874.3,477.6,4.456
2891.1,480.4,4.448
2907.9,483.2,4.442
2924.7,486.0,4.434
2941.5,488.8,4.428
2958.3,491.6,4.417
2975.1,494.4,4.406
2991.9,497.1,4.396
3008.7,499.9,4.385
3025.5,502.7,4.372
3042.3,505.4,4.357
3059.1,508.2,4.341
3075.9,511.0,4.324
3092.7,513.7,4.305
3109.5,516.5,4.287
3126.3,519.3,4.266
3143.1,522.0,4.242
3159.9,524.8,4.220
3176.7,527.6,4.195
3193.5,530.3,4.165
3210.3,533.1,4.136
3227.1,535.9,4.104
3243.9,538.6,4.072
3260.7,541.4,4.039
3277.5,544.1,4.002
3294.3,546.9,3.966
3311.1,549.6,3.932
3327.9,552.4,3.891
3344.7,555.2,3.851
3361.5,557.9,3.808
3378.3,560.7,3.766
3395.1,563.4,3.727
3411.9,566.2,3.680
3428.7,569.0,3.633
3445.5,571.7,3.585
3462.3,574.5,3.536
3479.1,577.3,3.484
3495.9,580.0,3.427
3512.7,582.8,3.368
3529.5,585.5,3.306
3546.3,588.3,3.239
3563.1,591.1,3.172
3579.9,593.8,3.103
3596.7,596.6,3.031
3613.5,599.4,2.948
3630.3,602.1,2.870
3647.1,604.9,2.788
3663.9,607.6,2.702
3680.7,610.4,2.620
3697.5,613.2,2.536
3714.3,615.9,2.446
3731.1,618.7,2.351
3747.9,621.5,2.258
3764.7,624.2,2.160
3781.5,627.0,2.059
3798.3,629.8,1.954
3815.1,632.5,1.847
3831.9,635.3,1.738
3848.7,638.1,1.629
3865.5,640.8,1.527
3882.3,643.6,1.435
3899.1,646.4,1.360
3915.9,649.1,1.302
3932.7,651.9,1.259
3949.5,654.7,1.232
3966.3,657.5,1.217
3983.1,660.3,1.205
3999.9,663.0,1.195
4016.7,665.8,1.185
4033.5,668.6,1.179
4050.3,671.4,1.172
4067.1,674.2,1.164
4083.9,676.9,1.158
4100.7,679.7,1.150
4117.5,682.5,1.143
4134.3,685.3,1.134
4151.1,688.0,1.127
4167.9,690.8,1.118
4184.7,693.6,1.110
4201.5,696.4,1.104
4218.3,699.2,1.096
4235.1,701.9,1.091
4251.9,704.7,1.084
4268.7,707.5,1.076
4285.5,710.3,1.069
4302.3,713.1,1.062
4319.1,715.9,1.056
4335.9,718.6,1.049
4352.7,721.4,1.043
4369.5,724.2,1.034
4386.3,727.0,1.027
4403.1,729.8,1.021
4419.9,732.6,1.013
4436.7,735.4,1.005
4453.5,738.1,0.998
4470.3,740.9,0.992
4487.1,743.7,0.987
4503.9,746.5,0.979
4520.7,749.3,0.969
4537.5,752.1,0.960
4554.3,754.9,0.955
4571.1,757.7,0.954
4587.9,760.4,0.945
4604.7,763.2,0.934
4621.5,766.0,0.928
4638.3,768.8,0.922
4655.1,771.6,0.916
4671.9,774.4,0.911
4688.7,777.1,0.905
4705.5,779.9,0.897
4722.3,782.7,0.890
4739.1,785.5,0.882
4755.9,788.3,0.874
4772.7,791.1,0.869
4789.5,793.9,0.862
4806.3,796.7,0.854
4823.1,799.5,0.847
4839.9,802.3,0.838
4856.7,805.0,0.832
4873.5,807.8,0.823
4890.3,810.6,0.816
4907.1,813.4,0.809
4923.9,816.2,0.801
4940.7,819.0,0.795
4957.5,821.8,0.784
4974.3,824.6,0.777
4991.1,827.4,0.771
5007.9,830.2,0.767
5024.7,833.0,0.757
5041.5,835.8,0.751
5058.3,838.6,0.742
5075.1,841.3,0.733
5091.9,844.2,0.726
5108.7,846.9,0.718
5125.5,849.7,0.712
5142.3,852.5,0.704
5159.1,855.3,0.698
5175.9,858.1,0.692
5192.7,860.9,0.687
5209.5,863.7,0.680
5226.3,866.5,0.672
5243.1,869.3,0.664
5259.9,872.1,0.657
5276.7,874.9,0.647
5293.5,877.7,0.640
5310.3,880.5,0.632
5327.1,883.3,0.624
5343.9,886.2,0.619
5360.7,889.0,0.612
5377.5,891.8,0.606
5394.3,894.6,0.601
5411.1,897.4,0.597
5427.9,900.2,0.593
5444.7,903.0,0.586
5461.5,905.8,0.579
5478.3,908.6,0.569
5495.1,911.4,0.561
5511.9,914.2,0.553
5528.7,917.0,0.546
5545.5,919.8,0.542
5562.3,922.6,0.536
5579.1,925.4,0.533
5595.9,928.2,0.526
5612.7,931.0,0.521
5629.5,933.8,0.514
5646.3,936.6,0.510
5663.1,939.5,0.503
5679.9,942.2,0.495
5696.7,945.1,0.487
5713.5,947.9,0.480
5730.3,950.7,0.474
5747.1,953.5,0.469
5763.9,956.3,0.462
5780.7,959.1,0.456
5797.5,961.9,0.452
5814.3,964.7,0.445
5831.1,967.5,0.439
5847.9,970.3,0.433
5864.7,973.1,0.428
5881.5,975.9,0.423
5898.3,978.8,0.417
5915.1,981.6,0.412
5931.9,984.4,0.406
5948.7,987.2,0.402
5965.5,990.0,0.395
5982.3,992.8,0.388
5999.1,995.6,0.383
6015.9,998.4,0.381
6032.7,1001.2,0.379
6049.5,1004.0,0.373
6066.3,1006.8,0.369
6083.1,1009.6,0.365
6099.9,1012.4,0.359
6116.7,1015.3,0.354
6133.5,1018.1,0.351
6150.3,1020.9,0.346
6167.1,1023.7,0.341
6183.9,1026.5,0.335
6200.7,1029.3,0.330
6217.5,1032.1,0.326
6234.3,1034.9,0.320
6251.1,1037.7,0.319
6267.9,1040.5,0.315
6284.7,1043.3,0.311
6301.5,1046.1,0.305
6318.3,1048.9,0.299
6335.1,1051.7,0.296
6351.9,1054.6,0.291
6368.7,1057.4,0.288
6385.5,1060.2,0.282
6402.3,1063.0,0.276
6419.1,1065.8,0.272
6435.9,1068.6,0.269
6477.0,1073.5,0.260
6645.0,1073.6,0.218
6813.0,1073.4,0.178
6981.0,1073.3,0.148
7149.0,1073.2,0.116
7317.0,1073.2,0.092
7341.0,1073.2,0.093