Folder: matl-db/Wood/Calibration_Data/MFSL

Note: Wood/Calibration_Data/MFSL/README.md
# README File for Missoula Fire Science Laboratory
## Experimental Conditions: TGA
A NETZSCH STA 449F5 Jupiter was used to simultaneously conduct Thermogravimetric Analysis (TGA) experiments.

* Heating Rate: 10 K/min
* Temperature program
  * Initial Temperature: 291-293 K
  * Initial Isotherm: 30 min (hold at 313 K for 30 min)
  * Maximum Temperature: 1073 K
  * Final Isotherm: 15 min (hold at 1073 K for 15 min)
* Sample mass: 5 mg +/- 0.2 mg
* Sample geometry: Powdered
* Calibration type: Before each experiment, a baseline test was performed using an empty crucible. Temperature/Heat flow calibration were performed every 12 months (or 100 tests, whichever is sooner) using a set of 6 reference materials with melting temperatures between 60-820 C
* Crucible 
  * Type: AL203 (Alumina)
  * Volume: 85 uL
  * Diameter: 6.8 mm
  * Mass: 140 mg +/- 2 mg
  * Lid: False
  * Note: Al203 Alumina crucibles (outer diameter 6.8mm / volume 85 uL) without a lid.
* Carrier Gas
  * Type: Nitrogen
  * Flow rate: 50 ml/min
  * Note: Ultra High Purity (UHP) Nitrogen
* Instrument
  * Type: NETZSCH/STA 449F5 Jupiter
  * Furnace Type: Platinum
  * Notes: None

|Test Name	| O2 volume %	| Initial Sample Mass (mg)|
|-----------| ------------|-------------------------|
|MFSL_TGA_N2_10K_R1 |	0	| 4.944|
|MFSL_TGA_N2_10K_R2 |	0 |	5.079|
|MFSL_TGA_N2_10K_R3 | 0 | 4.836|

File: MFSL_TGA_N2_10K_R1.csv
Time (s),Temperature (K),Mass (mg)
0.0,293.3,4.944
33.0,293.4,4.943
66.6,293.8,4.938
140.9,297.2,4.904
308.9,309.1,4.785
476.9,314.9,4.701
644.9,315.9,4.662
812.9,315.1,4.649
980.9,314.1,4.644
1148.9,313.4,4.645
1316.9,313.1,4.636
1484.9,313.0,4.638
1652.9,313.0,4.641
1820.9,313.0,4.641
1899.9,313.0,4.645
1916.7,313.1,4.645
1933.5,313.2,4.644
1950.3,313.4,4.643
1967.1,313.9,4.644
1983.9,314.5,4.644
2000.7,315.4,4.645
2017.5,316.6,4.644
2034.3,318.1,4.644
2051.1,319.8,4.644
2067.9,321.9,4.645
2084.7,324.2,4.643
2101.5,326.9,4.642
2118.3,329.8,4.641
2135.1,332.9,4.640
2151.9,336.2,4.639
2168.7,339.6,4.639
2185.5,343.2,4.637
2202.3,346.9,4.635
2219.1,350.6,4.633
2235.9,354.3,4.630
2252.7,358.1,4.627
2269.5,361.9,4.624
2286.3,365.8,4.623
2303.1,369.6,4.621
2319.9,373.3,4.619
2336.7,377.1,4.619
2353.5,380.7,4.618
2370.3,384.4,4.618
2387.1,387.9,4.617
2403.9,391.5,4.617
2420.7,394.9,4.617
2437.5,398.4,4.617
2454.3,401.8,4.617
2471.1,405.2,4.616
2487.9,408.5,4.616
2504.7,411.8,4.616
2521.5,415.1,4.618
2538.3,418.4,4.618
2555.1,421.6,4.618
2571.9,424.8,4.615
2588.7,427.9,4.614
2605.5,431.0,4.612
2622.3,434.1,4.609
2639.1,437.2,4.607
2655.9,440.2,4.606
2672.7,443.2,4.603
2689.5,446.1,4.601
2706.3,449.1,4.597
2723.1,452.0,4.592
2739.9,454.9,4.585
2756.7,457.8,4.580
2773.5,460.6,4.574
2790.3,463.5,4.568
2807.1,466.4,4.561
2823.9,469.2,4.554
2840.7,472.0,4.545
2857.5,474.8,4.538
2874.3,477.7,4.530
2891.1,480.5,4.523
2907.9,483.3,4.514
2924.7,486.1,4.505
2941.5,488.8,4.496
2958.3,491.6,4.485
2975.1,494.4,4.475
2991.9,497.2,4.463
3008.7,500.0,4.452
3025.5,502.7,4.440
3042.3,505.5,4.425
3059.1,508.3,4.408
3075.9,511.0,4.392
3092.7,513.8,4.373
3109.5,516.6,4.354
3126.3,519.3,4.333
3143.1,522.1,4.309
3159.9,524.8,4.286
3176.7,527.6,4.262
3193.5,530.4,4.232
3210.3,533.1,4.202
3227.1,535.9,4.168
3243.9,538.6,4.135
3260.7,541.4,4.103
3277.5,544.2,4.069
3294.3,546.9,4.032
3311.1,549.7,3.993
3327.9,552.5,3.952
3344.7,555.2,3.915
3361.5,558.0,3.873
3378.3,560.7,3.831
3395.1,563.5,3.785
3411.9,566.2,3.743
3428.7,569.0,3.693
3445.5,571.8,3.642
3462.3,574.5,3.592
3479.1,577.3,3.538
3495.9,580.0,3.479
3512.7,582.8,3.418
3529.5,585.6,3.356
3546.3,588.3,3.287
3563.1,591.1,3.219
3579.9,593.9,3.138
3596.7,596.6,3.066
3613.5,599.4,2.981
3630.3,602.2,2.901
3647.1,604.9,2.824
3663.9,607.7,2.733
3680.7,610.5,2.642
3697.5,613.2,2.555
3714.3,616.0,2.465
3731.1,618.7,2.369
3747.9,621.5,2.270
3764.7,624.3,2.168
3781.5,627.0,2.061
3798.3,629.8,1.949
3815.1,632.6,1.835
3831.9,635.3,1.719
3848.7,638.1,1.608
3865.5,640.9,1.507
3882.3,643.6,1.428
3899.1,646.4,1.364
3915.9,649.2,1.315
3932.7,652.0,1.289
3949.5,654.8,1.270
3966.3,657.5,1.255
3983.1,660.3,1.246
3999.9,663.1,1.236
4016.7,665.9,1.225
4033.5,668.6,1.216
4050.3,671.4,1.209
4067.1,674.2,1.200
4083.9,677.0,1.192
4100.7,679.7,1.183
4117.5,682.5,1.175
4134.3,685.3,1.167
4151.1,688.1,1.158
4167.9,690.8,1.148
4184.7,693.6,1.139
4201.5,696.4,1.130
4218.3,699.2,1.121
4235.1,702.0,1.112
4251.9,704.7,1.103
4268.7,707.5,1.093
4285.5,710.3,1.084
4302.3,713.1,1.074
4319.1,715.9,1.065
4335.9,718.6,1.056
4352.7,721.4,1.047
4369.5,724.2,1.038
4386.3,727.0,1.028
4403.1,729.8,1.018
4419.9,732.6,1.008
4436.7,735.4,0.998
4453.5,738.2,0.990
4470.3,741.0,0.980
4487.1,743.7,0.970
4503.9,746.5,0.960
4520.7,749.3,0.951
4537.5,752.1,0.943
4554.3,754.9,0.933
4571.1,757.7,0.923
4587.9,760.5,0.912
4604.7,763.3,0.900
4621.5,766.0,0.890
4638.3,768.8,0.880
4655.1,771.6,0.868
4671.9,774.4,0.857
4688.7,777.2,0.848
4705.5,780.0,0.837
4722.3,782.8,0.825
4739.1,785.5,0.815
4755.9,788.3,0.804
4772.7,791.1,0.795
4789.5,793.9,0.783
4806.3,796.7,0.770
4823.1,799.5,0.758
4839.9,802.3,0.748
4856.7,805.1,0.737
4873.5,807.9,0.725
4890.3,810.6,0.715
4907.1,813.4,0.706
4923.9,816.2,0.695
4940.7,819.0,0.682
4957.5,821.8,0.671
4974.3,824.6,0.658
4991.1,827.4,0.648
5007.9,830.2,0.635
5024.7,833.0,0.624
5041.5,835.8,0.611
5058.3,838.6,0.599
5075.1,841.4,0.587
5091.9,844.2,0.576
5108.7,847.0,0.565
5125.5,849.8,0.553
5142.3,852.6,0.541
5159.1,855.4,0.531
5175.9,858.2,0.521
5192.7,861.0,0.509
5209.5,863.8,0.498
5226.3,866.6,0.486
5243.1,869.3,0.475
5259.9,872.2,0.462
5276.7,874.9,0.448
5293.5,877.7,0.437
5310.3,880.5,0.426
5327.1,883.3,0.415
5343.9,886.1,0.406
5360.7,888.9,0.396
5377.5,891.7,0.385
5394.3,894.6,0.375
5411.1,897.4,0.364
5427.9,900.2,0.353
5444.7,903.0,0.341
5461.5,905.8,0.332
5478.3,908.6,0.319
5495.1,911.4,0.308
5511.9,914.2,0.299
5528.7,917.0,0.289
5545.5,919.8,0.279
5562.3,922.6,0.271
5579.1,925.4,0.264
5595.9,928.2,0.255
5612.7,931.0,0.246
5629.5,933.8,0.235
5646.3,936.6,0.226
5663.1,939.4,0.216
5679.9,942.2,0.207
5696.7,945.0,0.197
5713.5,947.8,0.188
5730.3,950.6,0.180
5747.1,953.4,0.171
5763.9,956.3,0.164
5780.7,959.1,0.158
5797.5,961.9,0.150
5814.3,964.7,0.143
5831.1,967.5,0.137
5847.9,970.3,0.130
5864.7,973.1,0.123
5881.5,975.9,0.117
5898.3,978.7,0.111
5915.1,981.5,0.104
5931.9,984.3,0.099
5948.7,987.2,0.093
5965.5,989.9,0.088
5982.3,992.7,0.085
5999.1,995.6,0.083
6015.9,998.3,0.084
6032.7,1001.1,0.084
6049.5,1004.0,0.084
6066.3,1006.8,0.085
6083.1,1009.6,0.085
6099.9,1012.4,0.085
6116.7,1015.2,0.086
6133.5,1018.0,0.086
6150.3,1020.8,0.085
6167.1,1023.6,0.084
6183.9,1026.5,0.084
6200.7,1029.3,0.084
6217.5,1032.1,0.084
6234.3,1034.9,0.083
6251.1,1037.7,0.085
6267.9,1040.5,0.085
6284.7,1043.3,0.085
6301.5,1046.1,0.085
6318.3,1048.9,0.085
6335.1,1051.7,0.086
6351.9,1054.5,0.086
6368.7,1057.4,0.086
6385.5,1060.2,0.085
6402.3,1063.0,0.085
6419.1,1065.8,0.085
6435.9,1068.6,0.087
6477.0,1073.5,0.085
6645.0,1073.6,0.084
6813.0,1073.4,0.082
6981.0,1073.3,0.083
7149.0,1073.2,0.084
7317.0,1073.2,0.084
7341.0,1073.1,0.084

File: MFSL_TGA_N2_10K_R2.csv
Time(s),Temperature (K),Mass (mg)
0,291.311,5.079
33,291.377,5.0801
66,291.792,5.0791
134.9502,294.948,5.063
299.9502,307.276,4.9562
464.9502,313.999,4.8505
629.9502,315.674,4.7987
794.9502,315.202,4.7782
959.9502,314.241,4.7702
1124.95,313.507,4.7656
1289.95,313.107,4.7605
1454.95,312.985,4.7619
1619.95,312.943,4.7625
1784.95,312.988,4.7626
1896.05,313.026,4.7622
1912.55,313.059,4.7611
1929.05,313.139,4.7611
1945.55,313.341,4.7625
1962.05,313.708,4.7628
1978.55,314.282,4.7616
1995.05,315.084,4.7631
2011.55,316.139,4.7619
2028.05,317.494,4.7636
2044.55,319.116,4.7627
2061.05,321.03,4.7618
2077.55,323.221,4.7624
2094.05,325.696,4.7603
2110.55,328.407,4.7581
2127.05,331.372,4.7575
2143.55,334.519,4.7552
2160.05,337.823,4.7544
2176.55,341.278,4.7543
2193.05,344.833,4.7493
2209.55,348.466,4.748
2226.05,352.127,4.7459
2242.55,355.848,4.7432
2259.05,359.592,4.7408
2275.55,363.344,4.7387
2292.05,367.078,4.7351
2308.55,370.8,4.7341
2325.05,374.481,4.7323
2341.55,378.165,4.7318
2358.05,381.754,4.7309
2374.55,385.295,4.7282
2391.05,388.787,4.7265
2407.55,392.23,4.7265
2424.05,395.656,4.7264
2440.55,399.019,4.7286
2457.05,402.346,4.729
2473.55,405.664,4.7294
2490.05,408.916,4.7295
2506.55,412.169,4.7295
2523.05,415.392,4.7295
2539.55,418.584,4.7295
2556.05,421.74,4.7283
2572.55,424.845,4.7271
2589.05,427.935,4.7268
2605.55,430.99,4.7253
2622.05,434.008,4.723
2638.55,436.997,4.7201
2655.05,439.965,4.7177
2671.55,442.872,4.7169
2688.05,445.792,4.7132
2704.55,448.684,4.71
2721.05,451.54,4.7044
2737.55,454.403,4.6977
2754.05,457.242,4.6923
2770.55,460.059,4.6881
2787.05,462.87,4.6808
2803.55,465.671,4.6743
2820.05,468.455,4.6667
2836.55,471.249,4.6593
2853.05,474.019,4.6509
2869.55,476.787,4.6411
2886.05,479.529,4.6332
2902.55,482.281,4.6239
2919.05,485.018,4.6154
2935.55,487.764,4.6055
2952.05,490.492,4.5966
2968.55,493.213,4.5859
2985.05,495.945,4.5759
3001.55,498.671,4.5646
3018.05,501.38,4.5524
3034.55,504.097,4.5369
3051.05,506.824,4.5229
3067.55,509.545,4.5065
3084.05,512.261,4.489
3100.55,514.973,4.4715
3117.05,517.692,4.4515
3133.55,520.404,4.4301
3150.05,523.117,4.4076
3166.55,525.829,4.3829
3183.05,528.55,4.3583
3199.55,531.258,4.3276
3216.05,533.955,4.2957
3232.55,536.679,4.2625
3249.05,539.383,4.23
3265.55,542.089,4.1959
3282.05,544.806,4.1587
3298.55,547.5,4.1219
3315.05,550.216,4.0852
3331.55,552.916,4.0456
3348.05,555.623,3.9995
3364.55,558.348,3.9614
3381.05,561.067,3.913
3397.55,563.767,3.8696
3414.05,566.493,3.8217
3430.55,569.193,3.7745
3447.05,571.9,3.7266
3463.55,574.61,3.6761
3480.05,577.334,3.6213
3496.55,580.041,3.5654
3513.05,582.767,3.5045
3529.55,585.478,3.4407
3546.05,588.192,3.3745
3562.55,590.9,3.3027
3579.05,593.608,3.2296
3595.55,596.332,3.146
3612.05,599.054,3.0735
3628.55,601.767,2.9863
3645.05,604.475,2.8979
3661.55,607.198,2.8133
3678.05,609.922,2.729
3694.55,612.638,2.6435
3711.05,615.354,2.5515
3727.55,618.068,2.4546
3744.05,620.788,2.3583
3760.55,623.511,2.258
3777.05,626.217,2.1528
3793.55,628.94,2.0432
3810.05,631.668,1.9286
3826.55,634.382,1.8152
3843.05,637.105,1.702
3859.55,639.817,1.5927
3876.05,642.533,1.4946
3892.55,645.262,1.418
3909.05,647.991,1.3585
3925.55,650.716,1.3169
3942.05,653.454,1.288
3958.55,656.194,1.2719
3975.05,658.92,1.2597
3991.55,661.652,1.2493
4008.05,664.383,1.2387
4024.55,667.111,1.2299
4041.05,669.842,1.22
4057.55,672.565,1.2114
4074.05,675.306,1.2025
4090.55,678.04,1.1942
4107.05,680.766,1.1845
4123.55,683.504,1.1761
4140.05,686.219,1.1679
4156.55,688.961,1.159
4173.05,691.688,1.1519
4189.55,694.424,1.1436
4206.05,697.143,1.136
4222.55,699.866,1.1296
4239.05,702.599,1.1217
4255.55,705.311,1.1128
4272.05,708.043,1.1032
4288.55,710.779,1.0942
4305.05,713.521,1.0857
4321.55,716.251,1.0776
4338.05,718.997,1.0695
4354.55,721.741,1.0612
4371.05,724.478,1.0529
4387.55,727.209,1.045
4404.05,729.951,1.0374
4420.55,732.688,1.0275
4437.05,735.431,1.0188
4453.55,738.157,1.0092
4470.05,740.893,1.0016
4486.55,743.635,0.9939
4503.05,746.375,0.985
4519.55,749.107,0.9748
4536.05,751.837,0.9669
4552.55,754.567,0.9581
4569.05,757.313,0.95
4585.55,760.039,0.9423
4602.05,762.762,0.9349
4618.55,765.499,0.9272
4635.05,768.236,0.9174
4651.55,770.977,0.9073
4668.05,773.724,0.8976
4684.55,776.47,0.8905
4701.05,779.207,0.8812
4717.55,781.956,0.8697
4734.05,784.693,0.86
4750.55,787.443,0.8486
4767.05,790.188,0.8391
4783.55,792.93,0.8297
4800.05,795.668,0.8186
4816.55,798.419,0.8107
4833.05,801.149,0.8046
4849.55,803.882,0.7996
4866.05,806.612,0.7909
4882.55,809.357,0.7806
4899.05,812.094,0.7701
4915.55,814.836,0.7593
4932.05,817.587,0.7489
4948.55,820.328,0.738
4965.05,823.083,0.726
4981.55,825.836,0.7144
4998.05,828.573,0.7066
5014.55,831.316,0.6981
5031.05,834.062,0.6881
5047.55,836.796,0.678
5064.05,839.55,0.6698
5080.55,842.298,0.6609
5097.05,845.049,0.6508
5113.55,847.802,0.641
5130.05,850.553,0.6307
5146.55,853.303,0.6199
5163.05,856.062,0.6099
5179.55,858.801,0.6013
5196.05,861.558,0.5924
5212.55,864.294,0.5824
5229.05,867.035,0.5728
5245.55,869.779,0.5639
5262.05,872.52,0.5545
5278.55,875.276,0.5439
5295.05,878.027,0.5347
5311.55,880.789,0.5249
5328.05,883.535,0.5132
5344.55,886.293,0.5051
5361.05,889.07,0.4978
5377.55,891.808,0.4888
5394.05,894.566,0.4806
5410.55,897.308,0.4715
5427.05,900.073,0.4615
5443.55,902.818,0.4524
5460.05,905.581,0.4438
5476.55,908.328,0.4359
5493.05,911.096,0.4276
5509.55,913.833,0.4173
5526.05,916.587,0.4083
5542.55,919.356,0.3995
5559.05,922.107,0.3896
5575.55,924.868,0.3817
5592.05,927.625,0.3746
5608.55,930.385,0.3662
5625.05,933.135,0.3579
5641.55,935.887,0.3486
5658.05,938.658,0.3393
5674.55,941.415,0.3306
5691.05,944.177,0.3229
5707.55,946.918,0.3162
5724.05,949.665,0.3097
5740.55,952.422,0.302
5757.05,955.169,0.2945
5773.55,957.93,0.288
5790.05,960.672,0.2797
5806.55,963.42,0.2719
5823.05,966.178,0.266
5839.55,968.937,0.2586
5856.05,971.704,0.2514
5872.55,974.456,0.2435
5889.05,977.214,0.2361
5905.55,979.979,0.2281
5922.05,982.738,0.2175
5938.55,985.495,0.2096
5955.05,988.248,0.2027
5971.55,991.018,0.1952
5988.05,993.765,0.1897
6004.55,996.525,0.1857
6021.05,999.28,0.1809
6037.55,1002.03,0.1759
6054.05,1004.79,0.1721
6070.55,1007.538,0.1691
6087.05,1010.29,0.1658
6103.55,1013.05,0.1606
6120.05,1015.82,0.1577
6136.55,1018.57,0.1522
6153.05,1021.33,0.1469
6169.55,1024.1,0.1403
6186.05,1026.85,0.1331
6202.55,1029.6,0.1283
6219.05,1032.36,0.1219
6235.55,1035.12,0.117
6252.05,1037.87,0.1139
6268.55,1040.63,0.1069
6285.05,1043.39,0.1006
6301.55,1046.16,0.0952998
6318.05,1048.921,0.0898998
6334.55,1051.67,0.08739994
6351.05,1054.43,0.0862998
6367.55,1057.17,0.0850001
6384.05,1059.93,0.0823001
6400.55,1062.689,0.0788002
6417.05,1065.44,0.0743002
6433.55,1068.21,0.0712
6450.1,1070.97,0.06690008
6615.1,1073.62,0.0461001
6780.1,1073.48,0.0466999
6945.1,1073.3,0.0410002
7110.1,1073.2,0.0407001
7275.1,1073.163,0.04440011
7347.1,1073.14,0.0448999

File: MFSL_TGA_N2_10K_R3.csv
Time (s),Temperature (K),Mass (mg)
0,293.644,4.8355
33,293.722,4.8414
66,294.124,4.8374
134.85,297.187,4.8106
299.85,308.827,4.7066
464.85,314.801,4.6243
629.85,315.96,4.5847
794.85,315.267,4.5682
959.85,314.204,4.561
1124.85,313.457,4.5631
1289.85,313.088,4.559
1454.85,312.941,4.5625
1619.85,312.962,4.565
1784.85,313.026,4.5665
1895.95,313.057,4.5702
1912.45,313.072,4.571
1928.95,313.143,4.5705
1945.45,313.363,4.5718
1961.95,313.73,4.5714
1978.45,314.295,4.5717
1994.95,315.076,4.5722
2011.45,316.158,4.5721
2027.95,317.477,4.5743
2044.45,319.105,4.5716
2060.95,321.021,4.571
2077.45,323.191,4.5696
2093.95,325.685,4.57
2110.45,328.385,4.5683
2126.95,331.338,4.5683
2143.45,334.475,4.5673
2159.95,337.797,4.5656
2176.45,341.261,4.5654
2192.95,344.815,4.5617
2209.45,348.446,4.5606
2225.95,352.125,4.5577
2242.45,355.823,4.5554
2258.95,359.557,4.5538
2275.45,363.291,4.5517
2291.95,367.036,4.5501
2308.45,370.748,4.5501
2324.95,374.439,4.55
2341.45,378.09,4.5503
2357.95,381.696,4.5498
2374.45,385.25,4.5495
2390.95,388.748,4.5495
2407.45,392.183,4.5495
2423.95,395.626,4.5494
2440.45,398.988,4.5491
2456.95,402.344,4.5489
2473.45,405.656,4.5487
2489.95,408.942,4.5485
2506.45,412.195,4.5485
2522.95,415.416,4.5469
2539.45,418.613,4.5459
2555.95,421.766,4.5451
2572.45,424.894,4.5441
2588.95,427.975,4.5434
2605.45,431.035,4.5416
2621.95,434.069,4.5395
2638.45,437.071,4.538
2654.95,440.025,4.5364
2671.45,442.965,4.5333
2687.95,445.875,4.5306
2704.45,448.758,4.5286
2720.95,451.62,4.5237
2737.45,454.453,4.5171
2753.95,457.295,4.5124
2770.45,460.128,4.5069
2786.95,462.93,4.5018
2803.45,465.719,4.4948
2819.95,468.509,4.487
2836.45,471.297,4.4784
2852.95,474.063,4.469
2869.45,476.83,4.4582
2885.95,479.582,4.4504
2902.45,482.327,4.4445
2918.95,485.07,4.4368
2935.45,487.802,4.4304
2951.95,490.533,4.4214
2968.45,493.268,4.4111
2984.95,495.997,4.4004
3001.45,498.705,4.3898
3017.95,501.434,4.378
3034.45,504.158,4.364
3050.95,506.884,4.349
3067.45,509.586,4.3325
3083.95,512.305,4.3156
3100.45,515.036,4.2971
3116.95,517.749,4.2773
3133.45,520.467,4.2558
3149.95,523.179,4.2339
3166.45,525.895,4.2103
3182.95,528.607,4.1837
3199.45,531.317,4.1543
3215.95,534.022,4.1255
3232.45,536.734,4.0948
3248.95,539.449,4.0623
3265.45,542.15,4.0285
3281.95,544.858,3.9927
3298.45,547.575,3.9582
3314.95,550.283,3.9226
3331.45,552.99,3.883
3347.95,555.701,3.842
3364.45,558.406,3.7996
3380.95,561.137,3.7599
3397.45,563.837,3.7207
3413.95,566.546,3.6739
3430.45,569.273,3.6281
3446.95,571.98,3.5803
3463.45,574.683,3.532
3479.95,577.397,3.4812
3496.45,580.114,3.4258
3512.95,582.834,3.3672
3529.45,585.542,3.3062
3545.95,588.259,3.2404
3562.45,590.973,3.1737
3578.95,593.684,3.1071
3595.45,596.405,3.0366
3611.95,599.125,2.9545
3628.45,601.819,2.8819
3644.95,604.53,2.7979
3661.45,607.243,2.7134
3677.95,609.956,2.637
3694.45,612.673,2.5505
3710.95,615.377,2.4604
3727.45,618.095,2.371
3743.95,620.808,2.2791
3760.45,623.526,2.1857
3776.95,626.254,2.0866
3793.45,628.971,1.9842
3809.95,631.7,1.8812
3826.45,634.404,1.7731
3842.95,637.12,1.6656
3859.45,639.845,1.5626
3875.95,642.562,1.468
3892.45,645.281,1.386
3908.95,648.004,1.3236
3925.45,650.719,1.2767
3941.95,653.455,1.2429
3958.45,656.177,1.223
3974.95,658.923,1.2106
3991.45,661.661,1.2005
4007.95,664.386,1.1899
4024.45,667.109,1.1816
4040.95,669.84,1.1763
4057.45,672.565,1.1685
4073.95,675.282,1.1629
4090.45,678.01,1.1549
4106.95,680.739,1.1472
4123.45,683.471,1.1396
4139.95,686.195,1.1318
4156.45,688.924,1.1244
4172.95,691.66,1.116
4189.45,694.392,1.1085
4205.95,697.129,1.1024
4222.45,699.851,1.0949
4238.95,702.581,1.0895
4255.45,705.315,1.0816
4271.95,708.045,1.0747
4288.45,710.781,1.0673
4304.95,713.517,1.0607
4321.45,716.259,1.0554
4337.95,718.984,1.0486
4354.45,721.718,1.0411
4370.95,724.453,1.0335
4387.45,727.203,1.0262
4403.95,729.951,1.0204
4420.45,732.674,1.0133
4436.95,735.414,1.0053
4453.45,738.144,0.9981
4469.95,740.894,0.9918
4486.45,743.614,0.9872
4502.95,746.336,0.9791
4519.45,749.094,0.9701
4535.95,751.822,0.9618
4552.45,754.565,0.9556
4568.95,757.305,0.9537
4585.45,760.031,0.9468
4601.95,762.774,0.936
4618.45,765.5,0.9294
4634.95,768.238,0.9231
4651.45,770.978,0.9173
4667.95,773.7,0.9132
4684.45,776.44,0.9074
4700.95,779.184,0.8982
4717.45,781.919,0.8915
4733.95,784.664,0.8851
4750.45,787.388,0.8762
4766.95,790.143,0.87
4783.45,792.884,0.8656
4799.95,795.627,0.8554
4816.45,798.368,0.8504
4832.95,801.107,0.8407
4849.45,803.846,0.8358
4865.95,806.584,0.827
4882.45,809.333,0.8181
4898.95,812.069,0.8132
4915.45,814.804,0.8054
4931.95,817.552,0.7973
4948.45,820.305,0.7893
4964.95,823.033,0.7813
4981.45,825.795,0.7739
4997.95,828.521,0.7709
5014.45,831.263,0.764
5030.95,834.026,0.755
5047.45,836.761,0.7489
5063.95,839.496,0.7392
5080.45,842.242,0.7307
5096.95,844.998,0.723
5113.45,847.737,0.7154
5129.95,850.496,0.7093
5146.45,853.243,0.7031
5162.95,855.99,0.6967
5179.45,858.742,0.6911
5195.95,861.488,0.6861
5212.45,864.242,0.679
5228.95,866.982,0.6713
5245.45,869.744,0.6615
5261.95,872.489,0.6555
5278.45,875.239,0.646
5294.95,877.99,0.6393
5311.45,880.738,0.6314
5327.95,883.487,0.6238
5344.45,886.249,0.6189
5360.95,889.016,0.6117
5377.45,891.759,0.606
5393.95,894.522,0.601
5410.45,897.266,0.5968
5426.95,900.017,0.5935
5443.45,902.773,0.587
5459.95,905.522,0.5793
5476.45,908.278,0.5702
5492.95,911.048,0.5616999
5509.45,913.801,0.5549
5525.95,916.552,0.5474
5542.45,919.309,0.5423
5558.95,922.073,0.5378
5575.45,924.824,0.5334
5591.95,927.588,0.5271
5608.45,930.346,0.5225
5624.95,933.087,0.5171
5641.45,935.836,0.5114
5657.95,938.603,0.5052
5674.45,941.353,0.4982
5690.95,944.109,0.4897
5707.45,946.866,0.482
5723.95,949.633,0.4756
5740.45,952.383,0.4709
5756.95,955.139,0.4646
5773.45,957.886,0.4585
5789.95,960.647,0.4535
5806.45,963.412,0.4486
5822.95,966.176,0.4418
5839.45,968.937,0.4367
5855.95,971.689,0.4307
5872.45,974.438,0.4256
5888.95,977.211,0.4198
5905.45,979.959,0.4155
5921.95,982.711,0.4091
5938.45,985.456,0.4051
5954.95,988.217,0.3994
5971.45,991,0.3937
5987.95,993.763,0.3862
6004.45,996.511,0.3828
6020.95,999.259,0.3803
6037.45,1002.01,0.3776
6053.95,1004.77,0.3718
6070.45,1007.53,0.3677
6086.95,1010.3,0.3638
6103.45,1013.04,0.3579
6119.95,1015.8,0.3538
6136.45,1018.56,0.3508
6152.95,1021.32,0.3455
6169.45,1024.08,0.3398
6185.95,1026.835,0.3342
6202.45,1029.61,0.3303
6218.95,1032.36,0.3247
6235.45,1035.13,0.3197
6251.95,1037.87,0.3185
6268.45,1040.62,0.3149
6284.95,1043.38,0.3109
6301.45,1046.13,0.3053
6317.95,1048.9,0.2992
6334.45,1051.64,0.2964
6350.95,1054.42,0.2915
6367.45,1057.18,0.2883
6383.95,1059.926,0.2827
6400.45,1062.684,0.2771
6416.95,1065.44,0.2724
6433.45,1068.21,0.2697
6450,1070.96,0.2675
6615,1073.61,0.2254
6780,1073.46,0.1838
6945,1073.29,0.1535
7110,1073.2,0.1218
7275,1073.16,0.0954997
7347,1073.14,0.0928996