Folder: matl-db/Wood/Calibration_Data/NIST

Note: Wood/Calibration_Data/NIST/README.md
# README File for NIST
National Institute of Standards and Technology, Gaithersburg (United states of America).

### Molecular Composition / Formula
The elemental composition of virgin wood, gaseous pyrolyzates, and residual char (formed during anaerobic decomposition) is determined using a Thermo Fisher Flash 2000 organic elemental analyzer, which features two analytical channels for measuring either (1) carbon, nitrogen, hydrogen, and sulfur or (2) oxygen. Quantification of these species is achieved through gas chromatography thermal conductivity detection (GC-TCD). All tests are repeated in triplicate; average weight fractions (wt. %) and expanded uncertainties (95% confidence interval, _k_-factor = 2) are reported in the table below.

| Material | Carbon wt. % | Hydrogen wt. % | Nitrogen wt. % | Sulfur wt. % | Oxygen wt. % |
| --------- | :--------: | :---------: | :---------: | :---------: | :---------: |
| 'MaCFP Wood'| 48.85 ¬± 1.96   | 6.13 ¬± 0.25    | 0.05 ¬± 0.01    | 0       | 40.69 ¬± 2.81   |
| Residual Char |91.17 ¬± 3.93   | 2.28 ¬± 0.09    | 0.13 ¬± 0.01    | 0       | 3.65 ¬± 2.74    |
| Gaseous Volatiles| 22.32 ¬± 4.03   | 8.55 ¬± 0.41    | 0.00 ¬± 0.02    | 0       | 63.91 ¬± 4.89   |

A heated, non-stirred pressure vessel to determine the average molecular weight of gaseous pyrolyzates. In the pressure vessel, approximately 1 g samples of a material of interest is heated above its decomposition temperature in an inert atmosphere (UHP helium, to prevent combustion). The average molecular weight of the evolved gaseous pyrolyzates was calculated by applying the ideal gas law at steady state based on knowledge of: (1) system volume (assumed constant during heating), (2) system temperature and pressure rise, and (3) the initial and final (solid residue) sample mass. 

Calibration tests were first run by filling the vessel with UHP helium, heating it to steady state (400‚ó¶C), and ensuring a proportional rise in measured system pressure and average temperature (spatially resolved measurements obtained), thus confirming the assumption of ideality. Validation testing was performed prior to the analysis of MaCFP-Wood. Specifically, water (H2O) and naphthalene (C10H8), which boil or sublimate to produce volatiles of known composition and molecular weight were tested. Measured average molecular weights of these two substances showed excellent agreement with expected values, matching within 2.6% and 1.0%, respectively.

Average Molecular Weight of Gaseous Volatiles: 34.7 g/mol +/- 3.7 g/mol

Corresponding Average Molecular Formula of Gaseous Volatiles: ùê∂<sub>(0.64¬±0.01)</sub> ùêª<sub>(2.93¬±0.02)</sub> ùëÇ<sub>(1.39¬±0.01)</sub>

Further details regarding system calibration, validation, and quantification of measurement uncertainty is available in: [Tripi, A. , Greene, R. , Leventon, I. and McGrattan, K. (2025), Measurement of the Average Molecular Weights of Gaseous Pyrolyzates Produced by Combustible Solids, 16th International Co

File: NIST_Wood-char_MCC_O2-20_60K_R1.csv
Time (s),Temperature (K),HRR (W/g)
102.278,439,-1.7483
105.205,442,-1.3476
108.133,445,-1.0591
111.089,448,-0.9473
114.033,451,-0.3390
116.988,454,-0.1287
119.925,457,-0.0696
122.871,460,-0.0782
125.805,463,0.6018
128.743,466,0.0155
131.686,469,0.1853
134.628,472,1.5379
137.607,475,0.6685
140.550,478,0.5412
143.500,481,0.7872
146.441,484,1.1276
149.428,487,0.9380
152.404,490,1.4995
155.396,493,2.1140
158.341,496,2.3008
161.328,499,2.0788
164.318,502,2.5237
167.259,505,2.7740
170.262,508,3.1333
173.250,511,3.1340
176.235,514,3.7681
179.193,517,3.6676
182.187,520,4.1246
185.149,523,4.4203
188.153,526,4.3134
191.139,529,4.9040
194.135,532,5.2645
197.115,535,5.3588
200.094,538,5.8848
203.080,541,6.2464
206.076,544,6.9049
209.067,547,6.8212
212.086,550,7.5896
215.079,553,7.9923
218.027,556,8.9491
221.065,559,9.1533
224.032,562,9.6923
227.064,565,9.5728
230.055,568,11.1310
233.031,571,11.5224
236.051,574,11.5647
239.017,577,12.5704
242.006,580,13.0073
244.973,583,13.3816
247.999,586,14.4918
250.984,589,15.2513
253.976,592,15.7074
256.997,595,17.1324
259.973,598,18.1968
262.987,601,19.3488
265.979,604,20.3000
268.930,607,21.1886
271.933,610,22.5298
274.917,613,24.6243
277.899,616,25.7710
280.900,619,26.8900
283.872,622,29.6550
286.856,625,30.3048
289.823,628,32.7342
292.834,631,35.7606
295.800,634,38.2238
298.767,637,41.0143
301.744,640,44.4399
304.691,643,48.4744
307.657,646,53.3125
310.604,649,58.5705
313.556,652,64.4776
316.520,655,56.5516
319.488,658,84.3043
322.353,661,129.1570
325.189,664,301.6622
327.593,667,408.5611
329.747,670,428.6357
331.880,673,424.9772
334.117,676,414.6303
336.523,679,402.0921
339.187,682,381.8527
342.111,685,364.5163
345.222,688,340.7851
348.634,691,348.6050
352.204,694,355.8529
355.385,697,351.3717
358.612,700,360.8789
361.885,703,343.4367
365.064,706,317.5451
368.238,709,281.2468
371.459,712,251.7189
374.771,715,228.8750
378.110,718,271.2069
381.065,721,315.9346
383.904,724,330.3097
386.571,727,342.2606
389.483,730,311.6356
392.529,733,281.9146
395.759,736,252.9722
399.170,739,310.8472
402.051,742,303.4045
404.899,745,287.7807
407.909,748,245.3920
411.277,751,238.9353
414.249,754,235.2498
418.020,757,210.3421
421.143,760,182.3109
424.550,763,109.3617
428.264,766,17.5547
432.310,769,2.8445
435.905,772,2.1561
439.135,775,1.4588
442.275,778,1.4928
445.240,781,1.4630
448.157,784,1.1430
451.082,787,1.2024
453.987,790,1.2887
456.923,793,1.2474
459.861,796,0.6195
462.768,799,0.2413
465.710,802,0.2337
468.637,805,0.5069
471.609,808,0.1020
474.547,811,-0.2358
477.526,814,-0.4916
480.474,817,-0.5387
483.445,820,-0.5176
486.404,823,-0.6021
489.396,826,-0.5952
492.371,829,-0.4440
495.344,832,-0.3761
498.304,835,-0.5875
501.281,838,-0.5025
504.255,841,-0.6891
507.219,844,0.2418
510.179,847,-0.5450
513.190,850,0.1443
516.184,853,0.0373
519.130,856,-0.1888
522.102,859,-0.3424
525.102,862,-0.1837
528.070,865,0.1290
531.072,868,0.4935
534.073,871,0.0223
537.055,874,0.5226
540.022,877,0.1925
542.972,880,0.7108
545.997,883,0.3114
548.973,886,0.1525
551.956,889,0.2878
554.960,892,0.4052
557.978,895,0.0699
560.931,898,-0.1722
563.913,901,0.3188
566.914,904,0.6599
569.883,907,-0.1273
572.869,910,0.2670
575.888,913,0.5675
578.891,916,0.5114
581.879,919,0.1572
584.893,922,0.1192
587.845,925,0.0285
590.824,928,0.0170
593.808,931,0.2115
596.806,934,0.1962
599.775,937,0.0833
602.759,940,0.0619
605.753,943,0.3014
608.728,946,0.3478
611.717,949,0.1838
614.726,952,0.4933
617.718,955,0.1943
620.695,958,0.0461
623.679,961,0.0321
626.688,964,-0.0820
629.645,967,0.1307
632.626,970,-0.2961
635.615,973,-0.1905
638.622,976,0.0020
641.602,979,-0.1193
644.590,982,-0.2205
647.567,985,-0.1312
650.510,988,-0.0813
653.524,991,-0.2186
656.502,994,-0.2035
659.496,997,-0.1130
662.484,1000,-0.1541
665.446,1003,-0.1321
668.427,1006,-0.1364
671.415,1009,-0.4749
674.395,1012,-0.3089
677.362,1015,-0.2935
680.346,1018,-0.5191
683.364,1021,-0.2241
686.320,1024,-0.3387
689.273,1027,-0.1900
692.247,1030,-0.3018
695.232,1033,-0.2789
698.197,1036,-0.1996
701.186,1039,-0.0315
704.194,1042,-0.4636
707.116,1045,-0.1985
710.107,1048,-0.2908
713.109,1051,0.1578
716.069,1054,0.1950
719.050,1057,-0.3425
722.018,1060,-0.1007
724.982,1063,0.0234
727.908,1066,-0.0013
730.907,1069,0.4243
733.840,1072,0.5189
736.877,1075,0.3971
739.826,1078,-0.0754
742.809,1081,0.2659
745.814,1084,-0.4832
748.775,1087,-0.0446
751.748,1090,0.5644
754.764,1093,0.1104
757.752,1096,-0.0743
760.719,1099,-0.3579
763.702,1102,0.0047
766.681,1105,0.1114
769.663,1108,-0.2001
772.683,1111,-0.1815
775.667,1114,0.2153
778.645,1117,-0.3736
781.648,1120,0.1162
784.584,1123,0.7364
787.570,1126,0.3695
790.534,1129,0.5169
793.563,1132,-0.3133
796.613,1135,0.3477
799.617,1138,-0.0136
802.527,1141,0.0549
805.418,1144,0.4252
808.451,1147,0.3666
811.528,1150,0.5092
814.493,1153,0.6704
817.434,1156,0.1253
820.473,1159,0.3707
823.457,1162,0.3153
826.427,1165,-0.0920
829.462,1168,0.1433
832.404,1171,-0.2272
835.392,1174,-0.0426
838.349,1177,-0.0792
841.269,1180,0.2381
844.262,1183,0.2401
847.256,1186,0.4592
850.215,1189,0.5725
853.090,1192,0.6262
856.096,1195,0.1183
859.153,1198,-0.0218
862.084,1201,-0.0411
865.072,1204,-0.4557
868.072,1207,-0.7463
871.082,1210,-0.2052
874.002,1213,-0.4686
876.992,1216,-0.5590
879.961,1219,-0.4254
883.037,1222,-0.2657
886.194,1225,-0.3802
889.395,1228,-0.4629
892.700,1231,-0.8043
896.139,1234,-0.0417
899.767,1237,-0.1626
903.556,1240,0.3254
907.528,1243,0.2691
909.614,1244.5,0.5456

File: NIST_Wood-char_MCC_O2-20_60K_R2.csv
Time (s),Temperature (K),HRR (W/g)
101.880,438,-0.3763
103.856,440,-0.3644
105.826,442,-0.9727
107.785,444,-0.6666
109.757,446,-0.2278
111.724,448,0.0681
113.709,450,0.3003
115.644,452,0.3469
117.625,454,0.2090
119.576,456,0.0131
121.564,458,-0.0539
123.524,460,-0.1844
125.460,462,0.0355
127.423,464,-0.0777
129.420,466,0.5482
131.389,468,0.4527
133.369,470,0.1743
135.335,472,0.4928
137.300,474,0.3689
139.249,476,0.3707
141.220,478,0.2153
143.200,480,0.1388
145.150,482,-0.0912
147.155,484,0.2295
149.105,486,0.0207
151.117,488,0.1180
153.111,490,0.1365
155.094,492,0.4388
157.051,494,0.3140
159.019,496,0.2650
161.000,498,0.8034
163.029,500,0.4825
164.975,502,0.6985
166.976,504,0.9054
168.938,506,1.0262
170.951,508,1.4109
172.951,510,1.2256
174.926,512,1.5634
176.909,514,1.6458
178.918,516,1.3268
180.902,518,1.5181
182.901,520,1.5490
184.883,522,1.8971
186.872,524,2.0476
188.898,526,2.2036
190.884,528,2.4470
192.874,530,2.2147
194.885,532,1.9949
196.871,534,2.3540
198.842,536,2.8144
200.854,538,3.1883
202.855,540,3.8283
204.839,542,3.7204
206.844,544,4.0291
208.824,546,4.1758
210.829,548,4.3898
212.837,550,5.0252
214.838,552,5.4122
216.838,554,5.3743
218.846,556,6.0511
220.806,558,6.2412
222.781,560,6.5029
224.796,562,6.5682
226.790,564,6.9870
228.783,566,7.2497
230.784,568,7.3050
232.767,570,8.0330
234.778,572,8.3153
236.784,574,8.7484
238.776,576,9.6478
240.779,578,9.3803
242.748,580,9.7218
244.740,582,10.5546
246.750,584,10.7653
248.739,586,11.7100
250.725,588,12.3516
252.733,590,12.6863
254.728,592,13.4806
256.751,594,14.4189
258.722,596,14.6863
260.709,598,15.1446
262.715,600,15.8125
264.704,602,16.7927
266.705,604,17.8495
268.696,606,18.5152
270.676,608,19.3786
272.683,610,19.9000
274.687,612,20.9732
276.673,614,22.1840
278.664,616,24.4837
280.651,618,24.1502
282.624,620,24.8641
284.604,622,26.7281
286.606,624,28.1619
288.604,626,29.6601
290.559,628,31.2428
292.538,630,32.4128
294.555,632,34.8098
296.555,634,36.6923
298.498,636,39.2862
300.511,638,41.5221
302.481,640,44.2435
304.439,642,47.5173
306.420,644,50.7483
308.409,646,55.6324
310.368,648,53.5333
312.325,650,45.4131
314.298,652,62.0106
316.253,654,82.1828
318.210,656,118.1336
320.107,658,228.0046
321.962,660,372.3925
323.506,662,439.3966
325.001,664,464.0409
326.390,666,469.5206
327.784,668,468.0287
329.179,670,463.4169
330.683,672,457.9958
332.262,674,451.6608
333.909,676,443.1086
335.703,678,431.1451
337.576,680,419.7155
339.541,682,404.9123
341.624,684,387.9769
343.794,686,382.7012
346.076,688,388.9133
348.500,690,388.5276
350.833,692,393.7533
353.039,694,397.8200
355.134,696,405.1757
357.121,698,396.2769
359.121,700,371.1779
361.113,702,348.3280
363.223,704,319.8777
365.440,706,301.4480
367.699,708,320.5838
369.931,710,331.6224
372.137,712,327.0182
374.254,714,327.6451
376.370,716,346.3040
378.677,718,357.1787
380.657,720,347.9453
382.580,722,333.9377
384.447,724,318.0118
386.353,726,299.5319
388.488,728,298.6506
390.567,730,320.5517
392.642,732,316.1334
394.627,734,299.8207
396.786,736,274.9470
399.093,738,236.3784
401.339,740,235.4939
403.312,742,248.4395
405.001,744,218.4321
407.492,746,126.2076
410.338,748,32.9909
413.218,750,7.4004
415.962,752,3.3833
418.424,754,2.6987
420.747,756,2.4868
422.892,758,2.4910
425.020,760,1.8623
426.999,762,1.8171
429.021,764,2.2198
431.015,766,2.3669
432.938,768,2.1365
434.912,770,1.9087
436.840,772,1.9246
438.782,774,2.0147
440.746,776,1.7752
442.711,778,1.3159
444.651,780,1.2677
446.568,782,0.8982
448.525,784,0.9742
450.488,786,0.9297
452.449,788,0.4266
454.406,790,0.6002
456.379,792,0.4413
458.344,794,0.3252
460.335,796,0.1507
462.273,798,0.2709
464.246,800,0.0334
466.218,802,-0.3101
468.212,804,-0.5101
470.172,806,-0.6701
472.164,808,-0.6522
474.111,810,-0.6924
476.123,812,-0.7108
478.101,814,-0.2014
480.078,816,-0.4159
482.064,818,-0.5235
484.033,820,-0.3852
486.009,822,-0.4030
487.982,824,-0.2962
489.935,826,-0.6432
491.988,828,-0.2380
493.957,830,0.0489
495.923,832,-0.0654
497.952,834,-0.3000
499.951,836,-0.1728
501.923,838,0.2105
503.920,840,0.2709
505.897,842,0.2090
507.909,844,0.2156
509.879,846,-0.0413
511.858,848,0.1195
513.847,850,0.3059
515.843,852,0.5746
517.833,854,0.6242
519.844,856,0.6878
521.853,858,0.1988
523.812,860,0.1845
525.793,862,0.5829
527.789,864,0.3232
529.798,866,0.6082
531.776,868,0.4549
533.777,870,0.4549
535.761,872,0.6300
537.771,874,0.4367
539.761,876,0.5594
541.753,878,0.2326
543.752,880,-0.0858
545.736,882,0.3376
547.709,884,0.4994
549.710,886,0.2366
551.700,888,0.4036
553.687,890,-0.1339
555.676,892,0.2396
557.668,894,0.1126
559.704,896,0.0716
561.641,898,0.0194
563.648,900,-0.0190
565.642,902,-0.2422
567.638,904,-0.0535
569.627,906,-0.1468
571.621,908,0.2181
573.568,910,0.2807
575.597,912,0.0403
577.592,914,0.3581
579.617,916,0.0572
581.634,918,-0.0446
583.576,920,-0.2902
585.524,922,-0.5715
587.567,924,-0.3714
589.553,926,0.0081
591.539,928,-0.3939
593.564,930,-0.4079
595.519,932,-0.8161
597.536,934,-0.4618
599.458,936,-0.5931

File: NIST_Wood-char_MCC_O2-20_60K_R3.csv
Time (s),Temperature (K),HRR (W/g)
90.050,426.5,-0.6310
91.978,428.5,-0.7563
93.901,430.5,-0.2426
95.868,432.5,0.2103
97.819,434.5,-0.0520
99.763,436.5,0.0283
101.714,438.5,0.1582
103.661,440.5,-0.0093
105.613,442.5,-0.0229
107.609,444.5,-0.1416
109.591,446.5,0.3318
111.519,448.5,0.0976
113.500,450.5,-0.4963
115.422,452.5,-0.7668
117.408,454.5,-0.0874
119.347,456.5,0.4694
121.302,458.5,0.3853
123.275,460.5,0.3643
125.256,462.5,0.1109
127.213,464.5,-0.0622
129.170,466.5,0.0049
131.160,468.5,0.3998
133.119,470.5,0.1179
135.071,472.5,0.2590
137.030,474.5,0.3348
139.010,476.5,0.4452
140.959,478.5,0.8612
142.930,480.5,0.2435
144.891,482.5,0.8719
146.895,484.5,0.9125
148.865,486.5,1.0245
150.870,488.5,0.6050
152.855,490.5,0.9374
154.822,492.5,0.9766
156.809,494.5,1.0924
158.747,496.5,1.2474
160.746,498.5,0.8410
162.724,500.5,1.1055
164.707,502.5,1.1435
166.702,504.5,0.7254
168.670,506.5,1.3805
170.673,508.5,1.7951
172.635,510.5,2.1100
174.651,512.5,2.0128
176.631,514.5,1.9290
178.618,516.5,2.0050
180.582,518.5,2.5903
182.569,520.5,2.5316
184.553,522.5,2.9416
186.550,524.5,2.8859
188.558,526.5,2.7186
190.577,528.5,2.9743
192.539,530.5,3.3797
194.536,532.5,3.3310
196.502,534.5,3.7298
198.522,536.5,3.7416
200.514,538.5,3.9685
202.488,540.5,3.8568
204.499,542.5,4.1694
206.499,544.5,4.1571
208.505,546.5,4.6877
210.473,548.5,5.6802
212.492,550.5,5.6463
214.475,552.5,5.5272
216.493,554.5,5.6428
218.468,556.5,6.0489
220.440,558.5,6.2976
222.458,560.5,6.7379
224.444,562.5,7.0213
226.458,564.5,7.3451
228.428,566.5,7.6873
230.439,568.5,7.9141
232.413,570.5,8.3760
234.420,572.5,8.6161
236.416,574.5,8.8777
238.397,576.5,9.3928
240.383,578.5,9.7730
242.380,580.5,10.5331
244.427,582.5,10.8616
246.375,584.5,10.7305
248.385,586.5,11.3407
250.363,588.5,12.0834
252.349,590.5,12.7364
254.376,592.5,12.9862
256.369,594.5,13.3471
258.354,596.5,14.3310
260.344,598.5,14.7436
262.333,600.5,15.6481
264.344,602.5,16.0746
266.336,604.5,16.6601
268.335,606.5,17.9161
270.330,608.5,19.0014
272.313,610.5,19.7187
274.333,612.5,20.2628
276.295,614.5,21.3052
278.305,616.5,22.2154
280.282,618.5,22.7738
282.258,620.5,23.7506
284.252,622.5,25.0986
286.263,624.5,26.3693
288.241,626.5,27.5909
290.250,628.5,28.8921
292.227,630.5,30.4172
294.240,632.5,31.8574
296.205,634.5,33.4402
298.181,636.5,35.0783
300.165,638.5,37.1635
302.172,640.5,39.2797
304.132,642.5,41.1780
306.109,644.5,43.4393
308.093,646.5,46.3566
310.064,648.5,49.0585
312.014,650.5,52.0519
313.988,652.5,55.4031
315.982,654.5,59.2140
317.935,656.5,63.8660
319.913,658.5,69.1498
321.838,660.5,74.5058
323.797,662.5,76.0478
325.761,664.5,76.4018
327.694,666.5,92.9927
329.624,668.5,115.2927
331.532,670.5,150.9142
333.437,672.5,233.8436
335.204,674.5,333.2006
336.777,676.5,384.3906
338.258,678.5,400.8529
339.708,680.5,401.6589
341.177,682.5,397.5097
342.697,684.5,393.2846
344.323,686.5,390.1394
346.073,688.5,388.0051
347.891,690.5,387.7753
349.845,692.5,387.2413
351.864,694.5,385.8018
353.896,696.5,385.5450
355.976,698.5,389.0506
358.108,700.5,389.5166
360.209,702.5,389.8569
362.333,704.5,388.3797
364.487,706.5,381.2892
366.550,708.5,375.3287
368.671,710.5,368.2696
370.852,712.5,366.0426
373.023,714.5,365.2986
375.143,716.5,363.0156
377.228,718.5,358.9053
379.327,720.5,345.0491
381.399,722.5,325.4793
383.456,724.5,310.1312
385.665,726.5,299.1199
387.920,728.5,308.5045
390.159,730.5,343.6032
392.237,732.5,374.6199
394.112,734.5,384.4531
395.963,736.5,381.4187
397.807,738.5,366.4011
399.677,740.5,347.6930
401.650,742.5,322.4082
403.762,744.5,300.8969
406.170,746.5,276.2766
408.430,748.5,244.9587
410.788,750.5,251.9141
412.730,752.5,277.7787
414.714,754.5,262.0001
417.104,756.5,212.3052
419.424,758.5,167.4401
421.618,760.5,117.4257
424.226,762.5,38.4422
427.173,764.5,6.1913
429.860,766.5,1.9225
432.278,768.5,0.6252
434.525,770.5,0.4803
436.690,772.5,0.4203
438.758,774.5,0.0683
440.827,776.5,0.0356
442.784,778.5,0.0702
444.735,780.5,0.1456
446.671,782.5,0.0726
448.598,784.5,0.1107
450.533,786.5,-0.1385
452.495,788.5,-0.1979
454.435,790.5,-0.1492
456.377,792.5,-0.1656
458.327,794.5,-0.1335
460.285,796.5,-0.0687
462.238,798.5,-0.4497
464.164,800.5,-0.1897
466.113,802.5,-0.4469
468.118,804.5,0.1948
470.047,806.5,-0.3457
472.017,808.5,-0.5367
473.997,810.5,-0.1091
475.986,812.5,-0.1783
477.917,814.5,-0.3642
479.928,816.5,-0.2514
481.895,818.5,-0.3001
483.873,820.5,-0.6073
485.851,822.5,-0.4081
487.820,824.5,-0.5637
489.791,826.5,-0.2829
491.799,828.5,-0.6382
493.759,830.5,-0.4264
495.761,832.5,-0.2374
497.734,834.5,-0.3769
499.716,836.5,0.1651
501.702,838.5,0.0453
503.692,840.5,-0.1316
505.668,842.5,0.1845
507.653,844.5,-0.0163
509.603,846.5,-0.2409
511.595,848.5,-0.1301
513.612,850.5,-0.1158
515.574,852.5,0.0631
517.561,854.5,0.3038
519.575,856.5,0.4808
521.563,858.5,0.4070
523.532,860.5,0.7176
525.512,862.5,0.1167
527.475,864.5,0.0354
529.475,866.5,0.5929
531.490,868.5,0.4932
533.495,870.5,0.0933
535.475,872.5,0.1733
537.468,874.5,0.4426
539.453,876.5,0.7464
541.441,878.5,0.7714
543.470,880.5,0.8175
545.469,882.5,0.5292
547.427,884.5,0.3124
549.411,886.5,0.2479
551.390,888.5,0.2074
553.409,890.5,0.3498
555.366,892.5,0.2847
557.360,894.5,0.4850
559.342,896.5,0.1563
561.331,898.5,0.1298
563.322,900.5,0.1865
565.320,902.5,0.1581
567.305,904.5,0.0404
569.315,906.5,-0.1327
571.281,908.5,-0.1776
573.287,910.5,0.0709
575.293,912.5,-0.2510
577.280,914.5,-0.1747
579.287,916.5,-0.1058
581.242,918.5,-0.1480
583.245,920.5,0.0068
585.232,922.5,-0.3416
587.246,924.5,-0.5138
589.211,926.5,-0.4770
591.220,928.5,-0.3149
593.219,930.5,-0.2595
595.212,932.5,-0.4184
597.191,934.5,-0.6723
598.695,936,-0.8018

File: NIST_Wood_MCC_N2_60K_R1.csv
Time (s),Temperature (K),HRR (W/g)
73.349,409,-0.0254
76.199,412,0.0371
79.022,415,-0.0387
81.917,418,-0.0469
84.762,421,0.0110
87.670,424,0.0131
90.554,427,0.0953
93.457,430,0.1798
96.357,433,0.2004
99.316,436,0.4516
102.203,439,0.4991
105.183,442,0.7723
108.120,445,0.9171
111.063,448,1.1250
113.972,451,1.3452
116.924,454,1.5286
119.861,457,1.7621
122.792,460,2.0489
125.776,463,2.3829
128.731,466,2.6949
131.681,469,2.9934
134.606,472,3.3828
137.603,475,3.8085
140.525,478,4.2627
143.514,481,4.8618
146.475,484,5.3704
149.462,487,5.9978
152.462,490,6.6254
155.414,493,7.3068
158.413,496,8.0434
161.351,499,8.7601
164.323,502,9.5855
167.325,505,10.4471
170.295,508,11.2245
173.315,511,12.0667
176.290,514,12.8075
179.273,517,13.4405
182.247,520,13.8575
185.240,523,14.3318
188.263,526,14.6310
191.240,529,14.9100
194.247,532,15.1644
197.200,535,15.5110
200.202,538,15.9189
203.198,541,16.3772
206.151,544,16.9285
209.169,547,17.4520
212.180,550,18.2307
215.163,553,19.0620
218.186,556,20.1766
221.143,559,21.3541
224.151,562,22.7502
227.120,565,24.2143
230.145,568,25.9152
233.184,571,27.6785
236.200,574,29.5599
239.153,577,31.6334
242.147,580,33.9206
245.177,583,36.3168
248.174,586,38.9655
251.160,589,41.7440
254.167,592,44.7597
257.221,595,47.9447
260.188,598,51.1529
263.204,601,54.6322
266.191,604,58.1196
269.183,607,61.7092
272.193,610,65.3276
275.213,613,68.7909
278.234,616,72.2281
281.231,619,75.5784
284.239,622,78.8695
287.238,625,81.9417
290.247,628,84.9310
293.274,631,87.8122
296.255,634,90.7843
299.271,637,93.9120
302.283,640,97.1291
305.247,643,100.7598
308.263,646,104.8717
311.299,649,109.6728
314.337,652,114.9637
317.344,655,120.6653
320.362,658,126.5150
323.387,661,132.0571
326.389,664,136.5600
329.399,667,139.3530
332.456,670,139.1428
335.459,673,135.0132
338.440,676,125.9224
341.453,679,111.4379
344.388,682,93.0655
347.338,685,72.8772
350.279,688,54.4971
353.238,691,40.4515
356.179,694,31.2435
359.103,697,25.8631
362.070,700,22.5841
365.053,703,20.3676
368.024,706,18.4520
371.071,709,16.8439
374.084,712,15.4611
377.095,715,14.2879
380.106,718,13.2633
383.104,721,12.3655
386.118,724,11.5134
389.108,727,10.7058
392.145,730,10.0036
395.168,733,9.2809
398.180,736,8.5410
401.172,739,7.8433
404.194,742,7.1702
407.177,745,6.5502
410.217,748,6.0004
413.223,751,5.4789
416.257,754,4.8058
419.256,757,4.4084
422.262,760,3.9600
425.267,763,3.6308
428.293,766,3.2445
431.324,769,2.9567
434.351,772,2.5969
437.365,775,2.3822
440.368,778,2.2002
443.379,781,1.8802
446.377,784,1.6884
449.322,787,1.5400
452.333,790,1.3327
455.350,793,1.2076
458.339,796,1.0859
461.369,799,0.8871
464.356,802,0.8618
467.358,805,0.7927
470.345,808,0.7329
473.395,811,0.6358
476.414,814,0.5468
479.396,817,0.5199
482.418,820,0.4676
485.425,823,0.3391
488.425,826,0.2814
491.442,829,0.3547
494.417,832,0.3809
497.461,835,0.2949
500.449,838,0.2429
503.438,841,0.2248
506.424,844,0.1608
509.446,847,0.0914
512.420,850,0.1409
515.442,853,0.0570
518.460,856,0.0543
521.458,859,0.0141
524.467,862,0.0797
527.488,865,-0.0354
530.481,868,-0.0693
533.452,871,-0.0751
536.450,874,-0.1148
539.442,877,-0.1023
542.424,880,-0.1471
545.420,883,-0.1638
548.429,886,-0.1138
551.423,889,-0.1474
554.446,892,-0.1614
557.416,895,-0.1364
560.416,898,-0.1613
563.397,901,-0.1946
566.403,904,-0.2368
569.373,907,-0.1730
572.368,910,-0.1181
575.402,913,-0.2311
578.386,916,-0.2787
581.347,919,-0.1846
584.324,922,-0.1068
587.340,925,-0.1730
590.305,928,-0.1595
593.299,931,-0.1353
596.304,934,-0.1458
599.274,937,-0.1517
602.262,940,-0.1706
605.234,943,-0.1812
608.236,946,-0.1920
611.219,949,-0.2391
614.221,952,-0.2114
617.209,955,-0.2382
620.174,958,-0.2430
623.162,961,-0.1955
626.126,964,-0.1960
629.076,967,-0.2311
632.098,970,-0.2115
635.071,973,-0.0977
638.004,976,-0.1067
641.040,979,-0.0216
644.041,982,-0.0057
647.028,985,-0.0388
650.016,988,-0.0013
652.966,991,0.0028
655.956,994,-0.0620
658.962,997,0.0097
661.888,1000,-0.0435
664.930,1003,0.1084
667.883,1006,-0.0534
670.835,1009,0.0325
673.812,1012,0.0189
676.806,1015,0.0344
679.782,1018,0.0647
682.749,1021,0.0275
685.726,1024,0.1051
688.730,1027,0.0652
691.711,1030,0.0756
694.670,1033,0.0501
697.635,1036,0.1459
700.654,1039,0.1468
703.628,1042,0.1593
706.590,1045,0.1383
709.563,1048,0.1766
712.543,1051,0.1554
715.559,1054,0.1829
718.577,1057,0.1956
721.539,1060,0.1759
724.501,1063,0.1857
727.435,1066,0.1592
730.467,1069,0.1999
733.450,1072,0.1457
736.476,1075,0.1526
739.458,1078,0.1193
742.444,1081,0.1536
745.396,1084,0.1063
748.396,1087,0.1422
751.356,1090,0.1049
754.335,1093,0.1227
757.336,1096,0.0628
760.360,1099,0.0797
763.337,1102,0.0373
766.353,1105,0.0766
769.368,1108,0.0412
772.347,1111,0.0173
775.313,1114,0.0112
778.302,1117,0.0326
781.334,1120,0.0339
784.266,1123,-0.0562
787.273,1126,-0.0181
790.288,1129,0.0071
793.215,1132,-0.0021
796.239,1135,-0.0199
799.196,1138,-0.0205
802.204,1141,0.0113
805.187,1144,-0.0118
808.173,1147,-0.0299
811.167,1150,-0.0562
814.119,1153,-0.0215
817.135,1156,-0.0341
820.137,1159,0.0159
823.046,1162,0.0781
826.042,1165,0.0580
828.978,1168,-0.0193
831.964,1171,-0.0245
834.864,1174,-0.0298
837.890,1177,-0.0141
840.839,1180,-0.0111
843.858,1183,-0.0542
846.830,1186,-0.0325
849.781,1189,-0.0509
852.699,1192,-0.0765
855.702,1195,-0.0491
858.612,1198,0.0340
861.573,1201,-0.0038
864.480,1204,-0.0332
867.534,1207,-0.0484
870.479,1210,-0.0540
873.453,1213,0.0115
876.371,1216,0.0272
879.358,1219,0.0421
882.426,1222,-0.0846
885.489,1225,0.0065
888.710,1228,-0.0249
892.087,1231,0.0182
895.493,1234,-0.1524
899.076,1237,-0.0582
902.903,1240,-0.1080
907.052,1243,-0.0701
910.591,1245.5,-0.0765