Folder: matl-db/Wood/Calibration_Data/NIST (part 4)

File: NIST_Wood_MCC_N2_60K_R10.csv
Time (s),Temperature (K),HRR (W/g)
56.260,391.5,0.1838
58.106,393.5,0.0314
59.956,395.5,-0.1052
61.779,397.5,-0.0264
63.692,399.5,0.1383
65.538,401.5,0.1728
67.445,403.5,0.1403
69.313,405.5,0.1336
71.219,407.5,-0.0544
73.090,409.5,0.0217
75.004,411.5,-0.2070
76.860,413.5,-0.2465
78.783,415.5,-0.1119
80.692,417.5,-0.0282
82.609,419.5,-0.1154
84.536,421.5,-0.0442
86.482,423.5,0.1738
88.439,425.5,0.0891
90.358,427.5,-0.1336
92.314,429.5,0.2836
94.228,431.5,-0.0953
96.186,433.5,0.0431
98.106,435.5,0.1603
100.078,437.5,0.3218
102.055,439.5,0.7826
104.009,441.5,0.8051
105.995,443.5,1.1418
107.968,445.5,1.3535
109.920,447.5,1.6971
111.871,449.5,1.9444
113.835,451.5,2.0997
115.779,453.5,2.4397
117.754,455.5,2.6267
119.706,457.5,3.0887
121.663,459.5,3.4626
123.625,461.5,3.9978
125.616,463.5,4.4466
127.602,465.5,4.8378
129.545,467.5,5.4188
131.532,469.5,5.7908
133.456,471.5,6.3206
135.445,473.5,6.9180
137.423,475.5,7.2376
139.360,477.5,7.9328
141.357,479.5,8.5215
143.316,481.5,9.0036
145.298,483.5,9.5649
147.281,485.5,10.0846
149.262,487.5,10.8201
151.254,489.5,11.3148
153.230,491.5,11.8948
155.226,493.5,12.2859
157.208,495.5,12.5282
159.168,497.5,12.8263
161.165,499.5,13.0652
163.145,501.5,13.1457
165.126,503.5,13.2494
167.117,505.5,13.1912
169.089,507.5,13.2220
171.104,509.5,12.9873
173.050,511.5,13.1436
175.098,513.5,13.2116
177.055,515.5,13.1217
179.039,517.5,13.4110
181.095,519.5,13.4489
183.036,521.5,13.4099
185.018,523.5,13.9170
187.032,525.5,14.1998
189.003,527.5,14.6687
191.027,529.5,15.1455
193.033,531.5,15.7499
194.961,533.5,16.4449
197.014,535.5,17.2033
199.015,537.5,17.9392
200.994,539.5,18.6508
202.991,541.5,19.3174
205.010,543.5,20.1208
206.973,545.5,20.7094
209.008,547.5,22.0548
211.027,549.5,22.6118
212.997,551.5,23.3502
214.989,553.5,24.3386
216.996,555.5,25.4341
218.961,557.5,26.4299
220.986,559.5,27.5613
222.972,561.5,28.5687
224.991,563.5,29.4485
226.959,565.5,30.7149
228.977,567.5,32.0342
230.985,569.5,33.2237
233.000,571.5,34.4797
234.987,573.5,35.8130
237.004,575.5,36.9239
238.984,577.5,38.1623
240.968,579.5,39.5415
242.998,581.5,40.9502
244.977,583.5,42.4452
246.965,585.5,44.1010
249.018,587.5,45.5061
251.009,589.5,47.1358
253.000,591.5,48.7709
255.008,593.5,50.6296
256.995,595.5,52.4612
259.010,597.5,54.6330
260.975,599.5,56.6207
262.983,601.5,58.5333
265.026,603.5,60.7227
267.005,605.5,62.7910
268.982,607.5,65.2782
270.992,609.5,67.7991
273.022,611.5,70.1424
275.018,613.5,72.3163
277.015,615.5,74.4268
278.994,617.5,76.8043
281.011,619.5,79.0050
283.009,621.5,81.1822
285.010,623.5,83.3495
287.014,625.5,85.2323
289.019,627.5,87.4733
291.021,629.5,89.5902
293.029,631.5,91.5160
295.040,633.5,93.5592
297.067,635.5,95.8502
299.050,637.5,98.0294
301.042,639.5,100.4442
303.046,641.5,103.1374
305.064,643.5,105.7620
307.067,645.5,108.7008
309.089,647.5,112.1356
311.084,649.5,115.9338
313.080,651.5,119.8019
315.127,653.5,124.1942
317.133,655.5,128.5474
319.125,657.5,133.1331
321.145,659.5,137.4344
323.126,661.5,141.5142
325.159,663.5,144.8943
327.173,665.5,147.0968
329.174,667.5,148.0432
331.176,669.5,146.7209
333.174,671.5,142.9529
335.185,673.5,136.3007
337.189,675.5,126.8748
339.182,677.5,114.6508
341.188,679.5,100.2636
343.170,681.5,84.7238
345.146,683.5,69.5125
347.133,685.5,55.8024
349.124,687.5,44.4628
351.117,689.5,35.2353
353.086,691.5,28.6807
355.095,693.5,24.0803
357.073,695.5,21.1228
359.041,697.5,19.1709
361.047,699.5,17.6016
363.055,701.5,16.5349
365.062,703.5,15.4675
367.062,705.5,14.7843
369.049,707.5,14.0474
371.059,709.5,13.6990
373.057,711.5,12.7945
375.069,713.5,12.1741
377.061,715.5,11.5581
379.087,717.5,11.2504
381.051,719.5,10.9952
383.086,721.5,10.5330
385.118,723.5,10.0097
387.101,725.5,9.6831
389.093,727.5,9.2660
391.096,729.5,8.8845
393.119,731.5,8.4626
395.143,733.5,7.8989
397.131,735.5,7.6198
399.147,737.5,7.1747
401.154,739.5,6.7747
403.178,741.5,6.3061
405.167,743.5,5.9283
407.134,745.5,5.4237
409.133,747.5,5.2358
411.159,749.5,4.7222
413.170,751.5,4.3451
415.188,753.5,4.0903
417.173,755.5,3.7843
419.216,757.5,3.4228
421.202,759.5,3.1776
423.208,761.5,2.9637
425.223,763.5,2.8033
427.224,765.5,2.5359
429.227,767.5,2.2609
431.224,769.5,2.1677
433.236,771.5,2.1315
435.260,773.5,1.9441
437.237,775.5,1.8191
439.275,777.5,1.6853
441.272,779.5,1.4714
443.281,781.5,1.3331
445.280,783.5,1.2440
447.268,785.5,1.0876
449.273,787.5,0.9872
451.284,789.5,1.0221
453.284,791.5,1.0242
455.301,793.5,0.8452
457.306,795.5,0.7692
459.314,797.5,0.5449
461.308,799.5,0.5556
463.276,801.5,0.4977
465.296,803.5,0.6180
467.298,805.5,0.5773
469.333,807.5,0.5122
471.313,809.5,0.4369
473.328,811.5,0.2900
475.341,813.5,0.1035
477.329,815.5,0.2343
479.345,817.5,0.1113
481.345,819.5,0.2374
483.356,821.5,0.2524
485.361,823.5,0.1098
487.348,825.5,-0.0464
489.362,827.5,-0.0963
491.350,829.5,-0.1551
493.360,831.5,-0.0157
495.376,833.5,0.1617
497.359,835.5,0.0268
499.362,837.5,0.0195
501.395,839.5,0.1246
503.372,841.5,-0.0538
505.351,843.5,-0.0375
507.380,845.5,0.0094
509.373,847.5,0.0804
511.351,849.5,0.0107
513.336,851.5,0.0586
515.360,853.5,0.0646
517.353,855.5,-0.0167
519.347,857.5,-0.0885
521.343,859.5,0.0210
523.364,861.5,-0.1120
525.337,863.5,0.0221
527.359,865.5,-0.0851
529.382,867.5,0.0158
531.345,869.5,-0.0733
533.344,871.5,-0.0967
535.350,873.5,-0.0778
537.347,875.5,-0.0126
539.352,877.5,-0.1378
541.348,879.5,-0.0575
543.368,881.5,-0.0898
545.333,883.5,-0.1374
547.351,885.5,-0.0836
549.333,887.5,-0.0480
551.346,889.5,0.0502
553.353,891.5,-0.0316
555.351,893.5,-0.2285
557.369,895.5,-0.2432
559.359,897.5,-0.0494
561.324,899.5,0.0119
563.310,901.5,0.0868
565.306,903.5,-0.0904
567.287,905.5,-0.0604
569.275,907.5,0.1726
571.285,909.5,0.0032
573.269,911.5,-0.1501
575.282,913.5,-0.0678
577.302,915.5,0.1085
579.290,917.5,0.0808
581.257,919.5,0.0242
583.280,921.5,0.0234
585.275,923.5,0.0851
587.246,925.5,0.1562
589.253,927.5,0.1607
591.232,929.5,0.0909
593.225,931.5,0.0648
595.233,933.5,0.0380
597.224,935.5,-0.0102
597.733,936,0.0182

File: NIST_Wood_MCC_N2_60K_R11.csv
Time (s),Temperature (K),HRR (W/g)
57.457,392,0.0977
59.283,394,-0.0390
61.140,396,-0.0338
63.000,398,0.0340
64.849,400,0.0366
66.749,402,0.0955
68.637,404,0.1550
70.531,406,-0.0011
72.412,408,-0.0685
74.282,410,-0.1367
76.174,412,-0.0877
78.101,414,0.0262
80.023,416,-0.1106
81.929,418,-0.1206
83.845,420,0.0267
85.781,422,-0.0490
87.715,424,-0.0054
89.673,426,0.0652
91.589,428,0.1899
93.574,430,0.1494
95.459,432,0.4425
97.439,434,0.6963
99.398,436,0.5965
101.358,438,0.8057
103.326,440,1.0336
105.275,442,1.2585
107.244,444,1.3893
109.229,446,1.6138
111.187,448,1.6369
113.139,450,1.7535
115.086,452,1.9898
117.058,454,2.2427
119.017,456,2.4483
120.954,458,2.6864
122.931,460,2.9445
124.882,462,3.3021
126.886,464,3.8043
128.820,466,4.1687
130.804,468,4.5581
132.778,470,4.9288
134.731,472,5.3096
136.690,474,5.7744
138.665,476,6.3099
140.646,478,6.7821
142.623,480,7.3222
144.617,482,7.8175
146.601,484,8.3759
148.549,486,8.9690
150.516,488,9.3677
152.513,490,9.7365
154.485,492,10.3364
156.507,494,10.6693
158.472,496,10.8661
160.466,498,11.0834
162.442,500,11.3220
164.431,502,11.3437
166.397,504,11.5194
168.379,506,11.6239
170.363,508,11.6173
172.352,510,11.7089
174.342,512,11.7549
176.322,514,11.9162
178.313,516,12.1460
180.314,518,12.0985
182.310,520,12.2248
184.299,522,12.3969
186.284,524,13.0335
188.271,526,13.5672
190.260,528,13.9031
192.267,530,14.4756
194.271,532,15.0707
196.255,534,15.8072
198.237,536,16.5474
200.226,538,17.2266
202.231,540,18.0013
204.219,542,18.5538
206.210,544,19.4261
208.215,546,20.3387
210.207,548,21.3126
212.229,550,22.4028
214.254,552,23.1220
216.233,554,23.8424
218.234,556,24.8716
220.199,558,25.9619
222.206,560,27.2199
224.195,562,28.2270
226.197,564,29.3513
228.202,566,30.4127
230.194,568,31.7845
232.196,570,32.9360
234.219,572,34.2311
236.209,574,35.5080
238.203,576,36.6359
240.203,578,37.9106
242.202,580,39.4151
244.178,582,40.8695
246.188,584,42.4537
248.188,586,43.8963
250.191,588,45.5872
252.180,590,47.1442
254.208,592,48.9391
256.207,594,50.8198
258.190,596,52.5264
260.195,598,54.4669
262.208,600,56.5551
264.203,602,58.7540
266.190,604,61.0434
268.226,606,63.1014
270.204,608,65.2261
272.216,610,67.7394
274.213,612,70.0991
276.226,614,72.1957
278.234,616,74.4228
280.220,618,76.7224
282.241,620,79.0687
284.246,622,81.2608
286.226,624,83.3119
288.210,626,85.1641
290.241,628,87.3421
292.242,630,89.6508
294.236,632,91.5094
296.256,634,93.5914
298.277,636,95.6535
300.263,638,98.1255
302.260,640,100.4638
304.292,642,103.1557
306.272,644,105.9027
308.292,646,109.1853
310.285,648,112.6006
312.279,650,116.2406
314.322,652,120.3249
316.312,654,124.4225
318.325,656,128.6089
320.337,658,133.0450
322.329,660,137.0791
324.339,662,140.6199
326.340,664,143.4617
328.357,666,145.2093
330.352,668,145.0303
332.376,670,142.9541
334.360,672,138.6603
336.374,674,131.4548
338.387,676,121.4225
340.383,678,108.9991
342.366,680,95.0901
344.376,682,80.0202
346.360,684,65.6229
348.343,686,52.8423
350.328,688,42.2027
352.274,690,33.8179
354.265,692,27.4694
356.255,694,22.9612
358.238,696,20.0443
360.248,698,18.0113
362.236,700,16.5999
364.226,702,15.6314
366.239,704,14.7251
368.256,706,13.9139
370.265,708,13.1943
372.254,710,12.5716
374.261,712,11.7856
376.284,714,11.4805
378.301,716,11.2135
380.296,718,10.6644
382.295,720,10.1486
384.310,722,9.8901
386.288,724,9.3867
388.282,726,9.0033
390.320,728,8.5887
392.300,730,8.2325
394.320,732,7.9242
396.356,734,7.5105
398.360,736,7.1057
400.368,738,6.6685
402.357,740,6.4853
404.354,742,5.7160
406.353,744,5.3899
408.386,746,5.2257
410.390,748,4.7661
412.415,750,4.3593
414.406,752,4.0654
416.408,754,3.7115
418.411,756,3.4954
420.420,758,3.1456
422.402,760,3.0672
424.427,762,2.8940
426.438,764,2.6482
428.427,766,2.3541
430.423,768,2.2592
432.440,770,2.0509
434.461,772,1.9156
436.496,774,1.6275
438.497,776,1.3485
440.519,778,1.4691
442.511,780,1.3098
444.495,782,1.2019
446.502,784,0.9424
448.499,786,0.7396
450.486,788,0.8189
452.503,790,0.7816
454.496,792,0.6198
456.488,794,0.4756
458.503,796,0.4605
460.508,798,0.5298
462.504,800,0.5815
464.498,802,0.4661
466.491,804,0.4590
468.471,806,0.0583
470.492,808,0.1366
472.534,810,0.2289
474.534,812,0.0623
476.501,814,0.0409
478.517,816,0.0815
480.538,818,0.0873
482.534,820,0.0171
484.518,822,-0.0435
486.522,824,-0.0825
488.522,826,-0.0325
490.569,828,-0.0325
492.518,830,0.2119
494.529,832,0.1231
496.533,834,-0.1594
498.553,836,-0.0463
500.554,838,0.1176
502.544,840,0.0711
504.549,842,0.1069
506.549,844,-0.0081
508.555,846,-0.1409
510.525,848,-0.3976
512.505,850,0.0376
514.529,852,-0.0950
516.541,854,-0.0373
518.559,856,-0.1936
520.523,858,-0.0662
522.533,860,-0.1191
524.536,862,-0.1874
526.506,864,-0.2652
528.524,866,-0.0116
530.508,868,0.0732
532.502,870,0.0607
534.511,872,0.0333
536.469,874,-0.0780
538.510,876,-0.0196
540.524,878,-0.0586
542.481,880,0.0446
544.493,882,0.0248
546.496,884,0.0674
548.514,886,0.0120
550.469,888,0.0457
552.500,890,-0.0902
554.496,892,0.1191
556.490,894,0.2002
558.468,896,0.1649
560.503,898,-0.0717
562.455,900,0.0619
564.408,902,-0.0174
566.464,904,0.0370
568.453,906,0.0353
570.471,908,0.0940
572.465,910,-0.0082
574.451,912,0.1883
576.464,914,0.2900
578.437,916,0.2690
580.457,918,0.0511
582.419,920,-0.1665
584.420,922,-0.0782
586.407,924,-0.0477
588.408,926,-0.0664
590.395,928,-0.0899
592.402,930,-0.1480
594.383,932,-0.0434
596.388,934,-0.0237
598.366,936,0.1000

File: NIST_Wood_MCC_N2_60K_R12.csv
Time (s),Temperature (K),HRR (W/g)
58.199,393,0.0444
60.057,395,-0.1732
61.910,397,-0.0808
63.760,399,0.1280
65.618,401,0.2108
67.507,403,0.0529
69.413,405,-0.0026
71.262,407,0.0320
73.157,409,-0.0192
75.057,411,-0.0836
76.944,413,-0.0714
78.870,415,-0.1321
80.766,417,-0.0350
82.669,419,-0.0528
84.610,421,-0.0333
86.536,423,0.2383
88.447,425,0.4895
90.396,427,0.3102
92.354,429,0.3632
94.315,431,0.4613
96.239,433,0.6177
98.204,435,0.7521
100.169,437,0.9527
102.118,439,1.0525
104.048,441,1.3267
106.037,443,1.5740
108.014,445,1.6212
109.984,447,1.8413
111.920,449,1.8402
113.910,451,2.0224
115.859,453,2.4447
117.828,455,2.6641
119.771,457,2.6713
121.727,459,2.9528
123.715,461,3.3829
125.669,463,3.7098
127.640,465,4.2538
129.634,467,4.4240
131.581,469,4.8935
133.566,471,5.3369
135.509,473,5.7597
137.496,475,6.2818
139.466,477,6.8456
141.451,479,7.2225
143.393,481,7.8102
145.369,483,8.3206
147.356,485,8.8993
149.327,487,9.3731
151.315,489,9.8097
153.283,491,10.3019
155.263,493,10.6996
157.234,495,11.2486
159.227,497,11.4344
161.221,499,11.7384
163.204,501,11.7909
165.171,503,11.9301
167.167,505,12.1091
169.159,507,12.0460
171.163,509,12.0213
173.158,511,12.1810
175.129,513,12.3857
177.123,515,12.3871
179.124,517,12.5513
181.116,519,12.7811
183.101,521,12.9079
185.063,523,13.0383
187.084,525,13.5985
189.069,527,14.1965
191.077,529,14.6429
193.098,531,15.1705
195.041,533,15.6086
197.063,535,16.5291
199.053,537,17.2495
201.029,539,17.8848
203.042,541,18.5585
205.035,543,19.3416
207.008,545,20.1215
209.027,547,21.0130
211.017,549,21.8373
213.038,551,22.8232
215.053,553,23.7116
217.026,555,24.4678
219.018,557,25.6054
221.009,559,26.6077
223.021,561,27.7753
225.026,563,29.0083
227.014,565,30.1537
229.013,567,31.2285
230.997,569,32.5044
233.033,571,33.6715
235.012,573,34.7856
237.006,575,36.0638
238.994,577,37.4480
241.019,579,38.9625
243.003,581,40.2271
245.046,583,41.6499
247.007,585,43.2370
249.010,587,44.7543
250.999,589,46.4567
253.005,591,47.8746
255.006,593,49.5749
257.025,595,51.3079
259.012,597,53.1795
261.026,599,55.2777
263.013,601,57.4529
265.007,603,59.5680
267.023,605,61.8906
269.004,607,63.9936
270.975,609,66.2105
273.034,611,68.7296
275.014,613,71.0602
276.994,615,73.3601
279.012,617,75.8312
281.012,619,77.9409
283.014,621,80.0938
284.997,623,82.4207
287.011,625,84.4866
289.011,627,86.5600
291.011,629,88.6146
293.041,631,90.8297
295.041,633,92.8913
297.051,635,95.0429
299.054,637,97.0398
301.039,639,99.3520
303.056,641,101.8819
305.043,643,104.6932
307.070,645,107.5970
309.051,647,110.7048
311.053,649,114.1015
313.038,651,118.0345
315.071,653,122.2177
317.086,655,126.4850
319.053,657,130.9572
321.075,659,135.6810
323.104,661,140.0361
325.097,663,143.6543
327.119,665,146.5708
329.155,667,148.2368
331.127,669,147.8020
333.127,671,145.5622
335.165,673,140.3018
337.167,675,132.0109
339.163,677,121.0637
341.131,679,107.7872
343.141,681,92.3956
345.139,683,76.4991
347.107,685,61.8054
349.082,687,49.0843
351.055,689,38.9577
353.034,691,31.4101
355.040,693,25.9694
357.023,695,22.3237
359.010,697,19.9060
361.018,699,18.0800
362.998,701,16.8048
365.009,703,15.7740
367.023,705,15.1243
369.033,707,14.4809
370.999,709,13.8481
373.031,711,13.2492
375.077,713,12.7026
377.038,715,12.1495
379.025,717,11.7100
381.054,719,11.0816
383.026,721,10.6459
385.020,723,10.3702
387.051,725,9.9375
389.055,727,9.4089
391.083,729,9.1923
393.108,731,8.7878
395.112,733,8.3871
397.116,735,7.9977
399.119,737,7.6378
401.115,739,7.2753
403.144,741,6.7549
405.123,743,6.4512
407.130,745,5.9712
409.138,747,5.4709
411.127,749,5.1852
413.140,751,4.9027
415.166,753,4.6205
417.203,755,4.2291
419.201,757,3.7833
421.201,759,3.5590
423.172,761,3.2238
425.213,763,2.9941
427.222,765,2.7233
429.209,767,2.5245
431.201,769,2.4188
433.230,771,2.2582
435.231,773,2.0515
437.257,775,1.8777
439.274,777,1.6820
441.281,779,1.4492
443.275,781,1.4199
445.261,783,1.3989
447.284,785,1.2250
449.251,787,1.1034
451.267,789,1.0198
453.255,791,1.0235
455.256,793,0.9078
457.297,795,0.7912
459.274,797,0.7121
461.286,799,0.5039
463.298,801,0.5044
465.290,803,0.3568
467.296,805,0.4616
469.286,807,0.2966
471.276,809,0.3037
473.286,811,0.4942
475.301,813,0.3316
477.311,815,0.1803
479.298,817,0.1469
481.309,819,0.0519
483.286,821,0.0483
485.291,823,0.0989
487.322,825,-0.0002
489.301,827,0.0545
491.302,829,0.0117
493.309,831,-0.0261
495.304,833,0.0999
497.283,835,0.0636
499.285,837,-0.0934
501.298,839,-0.0231
503.297,841,0.0641
505.296,843,-0.0685
507.285,845,-0.1457
509.287,847,-0.0325
511.271,849,-0.0131
513.275,851,0.0050
515.280,853,0.0292
517.288,855,0.1401
519.273,857,0.0388
521.272,859,-0.0341
523.293,861,-0.0959
525.270,863,-0.1087
527.279,865,0.0293
529.267,867,0.0648
531.275,869,0.0357
533.269,871,-0.0686
535.254,873,-0.0948
537.278,875,0.0147
539.267,877,-0.0149
541.250,879,-0.0238
543.292,881,0.0148
545.256,883,-0.0249
547.267,885,-0.0499
549.252,887,-0.0145
551.234,889,0.0363
553.258,891,0.0269
555.244,893,0.0775
557.248,895,0.0669
559.243,897,0.0220
561.249,899,0.1034
563.234,901,0.0855
565.238,903,-0.0162
567.228,905,-0.0035
569.237,907,-0.0820
571.189,909,-0.0520
573.173,911,-0.0581
575.195,913,-0.0239
577.188,915,-0.0478
579.180,917,-0.0671
581.171,919,-0.0410
583.184,921,-0.0129
585.157,923,0.0959
587.173,925,-0.0263
589.154,927,0.0020
591.155,929,0.0006
593.144,931,0.1084
595.181,933,0.0679
597.138,935,0.0343
598.149,936,0.0725

File: NIST_Wood_MCC_O2-20_60K_R1.csv
Time (s),Temperature (K),HRR (W/g)
54.911,389.5,0.2424
57.209,392,0.0067
59.517,394.5,-0.1090
61.814,397,-0.0164
64.152,399.5,-0.4702
66.528,402,-0.3497
68.839,404.5,-0.4355
71.190,407,-0.4559
73.567,409.5,-0.5628
75.920,412,-0.6664
78.287,414.5,-0.8059
80.650,417,-0.8039
83.016,419.5,-0.7584
85.469,422,-0.6087
87.884,424.5,-0.4515
90.298,427,-0.5157
92.708,429.5,-0.4723
95.148,432,-0.5203
97.572,434.5,-0.2712
99.992,437,-0.1513
102.428,439.5,0.2573
104.905,442,0.3652
107.356,444.5,0.4287
109.804,447,0.7209
112.243,449.5,1.1080
114.689,452,1.3984
117.158,454.5,1.7796
119.599,457,2.0758
122.045,459.5,2.2006
124.477,462,2.7632
126.952,464.5,2.9699
129.416,467,3.4105
131.881,469.5,3.8697
134.330,472,4.2616
136.777,474.5,4.8701
139.206,477,5.3688
141.696,479.5,5.9284
144.154,482,6.4415
146.619,484.5,7.1145
149.128,487,7.9724
151.602,489.5,8.3623
154.069,492,8.9100
156.536,494.5,9.2618
159.032,497,9.2560
161.496,499.5,9.4933
163.956,502,9.6158
166.450,504.5,9.9129
168.933,507,10.1144
171.421,509.5,10.3014
173.890,512,10.7236
176.369,514.5,11.0824
178.845,517,11.4518
181.351,519.5,12.1089
183.830,522,12.7947
186.311,524.5,13.5610
188.813,527,14.4059
191.280,529.5,15.5095
193.790,532,16.7045
196.258,534.5,17.9335
198.737,537,19.3277
201.222,539.5,20.8031
203.718,542,22.2655
206.199,544.5,23.7415
208.674,547,25.3403
211.150,549.5,27.0533
213.670,552,28.8641
216.153,554.5,31.0062
218.614,557,32.9487
221.095,559.5,34.7515
223.585,562,36.9371
226.072,564.5,39.3894
228.528,567,41.6161
231.048,569.5,44.1948
233.523,572,46.8080
235.999,574.5,49.4974
238.470,577,52.2332
240.963,579.5,55.4135
243.435,582,58.7844
245.924,584.5,62.2713
248.377,587,65.9488
250.843,589.5,70.2036
253.318,592,74.8459
255.804,594.5,79.7506
258.276,597,84.8761
260.730,599.5,90.4886
263.188,602,96.3503
265.667,604.5,102.5183
268.118,607,109.0579
270.599,609.5,116.5765
273.075,612,125.5095
275.566,614.5,136.1417
278.022,617,149.4488
280.485,619.5,164.5054
282.927,622,179.9275
285.407,624.5,193.7620
287.857,627,203.1735
290.322,629.5,206.4227
292.761,632,201.4737
295.190,634.5,188.0160
297.595,637,167.2936
299.966,639.5,143.2520
302.372,642,119.8165
304.744,644.5,100.5907
307.150,647,85.4612
309.535,649.5,74.9690
312.018,652,67.3130
314.521,654.5,61.9490
317.072,657,57.8237
319.629,659.5,54.4337
322.226,662,51.4689
324.857,664.5,49.1058
327.470,667,46.9663
330.117,669.5,45.1274
332.700,672,43.5707
335.326,674.5,42.4879
337.909,677,41.6206
340.460,679.5,40.8755
343.005,682,40.2044
345.559,684.5,39.7693
348.079,687,39.4104
350.602,689.5,39.1292
353.138,692,39.0301
355.651,694.5,39.7290
358.149,697,39.8630
360.602,699.5,40.5003
363.110,702,41.4536
365.565,704.5,42.9947
368.040,707,44.7399
370.519,709.5,47.3145
372.990,712,45.3527
375.415,714.5,43.4387
377.863,717,53.2004
380.288,719.5,62.9846
382.701,722,103.4111
384.800,724.5,145.1055
386.863,727,159.8438
388.853,729.5,160.2919
390.849,732,156.8722
392.918,734.5,154.5551
395.139,737,149.6921
397.700,739.5,140.5359
400.225,742,132.1066
402.635,744.5,118.1006
405.671,747,94.2194
408.844,749.5,65.9209
411.979,752,22.0477
415.856,754.5,1.6562
419.452,757,-0.0353
422.545,759.5,-0.3776
425.391,762,-0.4668
428.046,764.5,-0.2980
430.611,767,-0.2608
433.090,769.5,-0.2361
435.577,772,-0.4059
438.041,774.5,-0.2078
440.488,777,-0.4129
442.896,779.5,-0.3993
445.341,782,-0.3690
447.768,784.5,-0.5367
450.202,787,-0.4624
452.669,789.5,-0.3836
455.113,792,-0.6632
457.568,794.5,-0.5723
460.050,797,-0.7071
462.487,799.5,-0.6991
464.972,802,-0.8114
467.461,804.5,-0.6831
469.893,807,-0.8778
472.432,809.5,-0.8614
474.876,812,-0.7951
477.362,814.5,-0.8147
479.852,817,-0.8671
482.331,819.5,-0.8036
484.804,822,-0.7210
487.282,824.5,-0.5126
489.758,827,-0.5638
492.222,829.5,-0.6614
494.744,832,-0.5327
497.223,834.5,-0.5421
499.704,837,-0.5076
502.179,839.5,-0.4827
504.668,842,-0.4210
507.167,844.5,-0.4105
509.646,847,-0.2302
512.127,849.5,-0.3628
514.600,852,-0.1075
517.112,854.5,-0.0021
519.615,857,0.0565
522.075,859.5,-0.0520
524.567,862,0.0248
527.052,864.5,0.0513
529.551,867,0.1802
532.052,869.5,0.0732
534.545,872,0.0434
537.027,874.5,0.0843
539.524,877,0.2178
541.976,879.5,0.2401
544.486,882,0.2812
546.980,884.5,0.2687
549.467,887,0.2777
551.935,889.5,0.3449
554.444,892,0.3374
556.952,894.5,0.4386
559.456,897,0.4162
561.938,899.5,0.4427
564.412,902,0.4960
566.894,904.5,0.4468
569.408,907,0.5810
571.870,909.5,0.4814
574.350,912,0.5239
576.842,914.5,0.5703
579.321,917,0.5802
581.822,919.5,0.5329
584.311,922,0.5497
586.813,924.5,0.4620
589.275,927,0.5111
591.779,929.5,0.4962
594.281,932,0.3315
596.750,934.5,0.2875
599.281,937,0.6113
601.750,939.5,0.4643
604.247,942,0.5063
606.725,944.5,0.3728
609.211,947,0.3523
611.704,949.5,0.3291
614.175,952,0.3256
616.693,954.5,0.3087
619.198,957,0.4311
621.664,959.5,0.4133
624.156,962,0.2684
626.632,964.5,0.2851
629.113,967,0.2238
631.604,969.5,0.2742
634.101,972,0.2318
636.627,974.5,0.2155
639.104,977,0.1354
641.567,979.5,0.1544
644.061,982,0.1110
646.564,984.5,0.0657
649.031,987,-0.0085
651.518,989.5,-0.0380
653.982,992,-0.0193
656.456,994.5,0.1125
658.983,997,-0.0476
661.466,999.5,-0.1235
663.955,1002,-0.1198
666.465,1004.5,-0.0595
668.903,1007,-0.2799
671.410,1009.5,-0.3308
673.872,1012,-0.3413
676.358,1014.5,-0.3351
678.842,1017,-0.3352
681.322,1019.5,-0.4622
683.795,1022,-0.4813
686.294,1024.5,-0.6695
688.738,1027,-0.4790
691.223,1029.5,-0.5541
693.724,1032,-0.6959
696.210,1034.5,-0.9070
697.700,1036,-0.8479