Folder: matl-db/Wood/Calibration_Data/NIST (part 3)

File: NIST_Wood_MCC_N2_60K_R6.csv
Time (s),Temperature (K),HRR (W/g)
73.488,409,0.0409
75.393,411,0.0495
77.277,413,-0.1182
79.154,415,-0.0760
81.042,417,-0.0022
82.980,419,-0.0528
84.887,421,-0.0473
86.828,423,0.0428
88.767,425,0.0031
90.690,427,-0.0170
92.628,429,0.0803
94.583,431,0.0916
96.490,433,0.1456
98.462,435,0.2311
100.421,437,0.3105
102.352,439,0.4543
104.293,441,0.5254
106.261,443,0.6614
108.221,445,0.6976
110.184,447,0.8166
112.125,449,0.8943
114.122,451,0.9589
116.061,453,1.1544
118.022,455,1.2928
119.992,457,1.3705
121.925,459,1.5707
123.941,461,1.8039
125.901,463,1.9751
127.871,465,2.1853
129.857,467,2.3573
131.812,469,2.5870
133.767,471,2.8216
135.720,473,3.1344
137.693,475,3.4817
139.667,477,3.8124
141.649,479,4.0799
143.648,481,4.4770
145.636,483,4.8004
147.592,485,5.2184
149.572,487,5.6125
151.542,489,6.0928
153.528,491,6.6251
155.539,493,7.0803
157.515,495,7.5611
159.462,497,8.0536
161.462,499,8.5606
163.437,501,9.1646
165.436,503,9.6413
167.417,505,10.0942
169.409,507,10.7226
171.438,509,11.2047
173.407,511,11.6540
175.397,513,12.1191
177.383,515,12.5151
179.371,517,12.9212
181.377,519,13.1059
183.372,521,13.2769
185.343,523,13.3982
187.345,525,13.5654
189.339,527,13.7680
191.344,529,14.0012
193.363,531,14.1304
195.346,533,14.2765
197.323,535,14.5317
199.312,537,14.8032
201.304,539,15.0863
203.284,541,15.4031
205.293,543,15.7945
207.277,545,16.1797
209.275,547,16.6713
211.276,549,17.2164
213.282,551,17.7107
215.281,553,18.3534
217.241,555,19.1218
219.244,557,19.8657
221.257,559,20.6626
223.246,561,21.5752
225.229,563,22.4785
227.247,565,23.5449
229.254,567,24.6517
231.248,569,25.7400
233.226,571,26.9827
235.263,573,28.2601
237.271,575,29.5527
239.249,577,30.9339
241.227,579,32.4033
243.239,581,34.0170
245.246,583,35.6771
247.258,585,37.4171
249.260,587,39.2212
251.271,589,41.1501
253.253,591,43.0309
255.261,593,45.1284
257.263,595,47.2360
259.274,597,49.3209
261.269,599,51.6080
263.283,601,53.8480
265.279,603,56.1411
267.284,605,58.4837
269.310,607,60.8280
271.291,609,63.1147
273.287,611,65.5224
275.295,613,67.7928
277.277,615,70.0746
279.289,617,72.3163
281.286,619,74.3976
283.302,621,76.4937
285.306,623,78.5666
287.282,625,80.5892
289.307,627,82.5977
291.299,629,84.4908
293.313,631,86.4155
295.328,633,88.4466
297.310,635,90.4127
299.300,637,92.5550
301.332,639,94.7467
303.319,641,97.1432
305.306,643,99.7913
307.321,645,102.6188
309.339,647,105.7220
311.329,649,109.0728
313.347,651,112.7331
315.365,653,116.6619
317.396,655,120.5913
319.400,657,124.4709
321.407,659,128.3105
323.428,661,131.8387
325.431,663,134.6902
327.446,665,136.7229
329.458,667,137.6000
331.472,669,137.0188
333.488,671,134.5661
335.517,673,129.8912
337.525,675,123.0603
339.506,677,113.8823
341.478,679,102.5301
343.446,681,89.5463
345.391,683,76.1412
347.383,685,62.8263
349.334,687,51.2338
351.291,689,41.8020
353.260,691,34.5063
355.196,693,29.4505
357.182,695,25.8123
359.145,697,23.3060
361.133,699,21.3958
363.115,701,19.8845
365.133,703,18.4660
367.115,705,17.1806
369.112,707,16.0910
371.119,709,15.1278
373.139,711,14.2510
375.144,713,13.5048
377.153,715,12.8781
379.142,717,12.2623
381.159,719,11.6313
383.170,721,11.1118
385.164,723,10.6110
387.182,725,10.0909
389.173,727,9.5859
391.190,729,9.1003
393.172,731,8.6398
395.199,733,8.1735
397.215,735,7.7161
399.223,737,7.2318
401.213,739,6.8412
403.236,741,6.4106
405.210,743,6.0011
407.248,745,5.4905
409.260,747,5.2270
411.264,749,4.8778
413.263,751,4.5014
415.263,753,4.0652
417.260,755,3.8292
419.273,757,3.5937
421.272,759,3.3145
423.300,761,3.0833
425.305,763,2.8444
427.305,765,2.6205
429.300,767,2.4285
431.312,769,2.2382
433.312,771,2.1449
435.337,773,1.9584
437.360,775,1.8351
439.358,777,1.6986
441.375,779,1.5823
443.359,781,1.4449
445.347,783,1.3228
447.355,785,1.1974
449.358,787,1.1743
451.337,789,1.0566
453.327,791,1.0097
455.342,793,0.9157
457.335,795,0.8594
459.357,797,0.7685
461.336,799,0.6851
463.356,801,0.7123
465.362,803,0.6461
467.328,805,0.5849
469.360,807,0.5540
471.345,809,0.5389
473.368,811,0.4911
475.350,813,0.4111
477.396,815,0.3859
479.387,817,0.4160
481.376,819,0.4280
483.364,821,0.4385
485.404,823,0.3761
487.377,825,0.2934
489.376,827,0.2785
491.387,829,0.2524
493.352,831,0.2839
495.389,833,0.3009
497.402,835,0.2673
499.394,837,0.2256
501.407,839,0.1983
503.370,841,0.1284
505.376,843,0.1579
507.390,845,0.1242
509.368,847,0.1239
511.371,849,0.1403
513.374,851,0.1304
515.376,853,0.0375
517.366,855,-0.0016
519.457,857,0.0354
521.377,859,-0.0181
523.398,861,0.0036
525.397,863,-0.0509
527.404,865,-0.0483
529.372,867,-0.0410
531.398,869,-0.0717
533.403,871,-0.0267
535.391,873,-0.0060
537.400,875,0.0608
539.374,877,-0.0064
541.377,879,-0.0678
543.382,881,-0.0299
545.383,883,-0.0281
547.370,885,-0.0030
549.380,887,-0.0207
551.370,889,-0.0191
553.352,891,0.0546
555.362,893,0.0551
557.370,895,-0.0397
559.368,897,-0.0545
561.329,899,-0.0136
563.335,901,0.0656
565.333,903,0.0073
567.366,905,-0.0578
569.342,907,0.0320
571.328,909,0.0354
573.354,911,0.0333
575.313,913,0.0607
577.339,915,0.0246
579.323,917,0.0652
581.308,919,0.0418
583.316,921,0.0202
585.338,923,0.0437
587.293,925,-0.0031
589.274,927,0.0093
591.282,929,-0.0070
593.255,931,-0.0574
595.252,933,-0.0303
597.244,935,-0.0588
598.255,936,-0.0226

File: NIST_Wood_MCC_N2_60K_R7.csv
Time (s),Temperature (K),HRR (W/g)
72.134,408,0.0736
74.000,410,0.0587
75.905,412,0.0135
77.800,414,-0.0003
79.710,416,-0.0484
81.625,418,-0.0546
83.524,420,-0.0765
85.469,422,-0.0844
87.379,424,-0.0271
89.332,426,-0.0417
91.263,428,-0.0712
93.169,430,-0.0627
95.138,432,-0.0867
97.056,434,-0.0255
99.003,436,0.1028
100.965,438,0.1393
102.908,440,0.1399
104.896,442,0.1953
106.848,444,0.1985
108.788,446,0.2391
110.731,448,0.3426
112.727,450,0.3783
114.674,452,0.4284
116.638,454,0.5727
118.595,456,0.6693
120.574,458,0.8093
122.554,460,0.9296
124.525,462,1.1419
126.478,464,1.3598
128.425,466,1.4465
130.428,468,1.6577
132.370,470,1.8603
134.341,472,2.1530
136.295,474,2.3944
138.285,476,2.6964
140.232,478,3.0390
142.234,480,3.2988
144.199,482,3.6206
146.196,484,4.0400
148.159,486,4.4631
150.140,488,4.9191
152.162,490,5.3377
154.125,492,5.7307
156.101,494,6.2518
158.047,496,6.7313
160.022,498,7.2145
162.032,500,7.8175
164.038,502,8.3119
166.029,504,8.7840
168.007,506,9.3322
169.970,508,9.8963
171.959,510,10.2787
173.978,512,10.7315
175.969,514,11.1431
177.944,516,11.3550
179.932,518,11.6587
181.940,520,11.8775
183.923,522,12.1030
185.916,524,12.1960
187.912,526,12.2783
189.910,528,12.3868
191.889,530,12.5700
193.860,532,12.7128
195.864,534,12.9248
197.843,536,13.2223
199.854,538,13.5725
201.846,540,13.8896
203.835,542,14.2551
205.821,544,14.7153
207.846,546,15.1780
209.824,548,15.6740
211.836,550,16.1798
213.854,552,16.8514
215.855,554,17.6059
217.833,556,18.3547
219.790,558,19.1986
221.819,560,20.1097
223.791,562,20.9854
225.780,564,22.0375
227.784,566,23.1076
229.804,568,24.2812
231.817,570,25.5240
233.818,572,26.7422
235.816,574,27.9537
237.810,576,29.3775
239.803,578,30.8324
241.775,580,32.3314
243.765,582,33.8844
245.808,584,35.5962
247.774,586,37.3215
249.787,588,39.1970
251.794,590,41.1560
253.794,592,43.1848
255.810,594,45.3541
257.774,596,47.4131
259.789,598,49.6266
261.800,600,51.8310
263.797,602,54.0996
265.793,604,56.4093
267.783,606,58.6998
269.783,608,60.9864
271.809,610,63.3133
273.822,612,65.6107
275.809,614,67.8245
277.825,616,70.0209
279.821,618,72.2077
281.827,620,74.2769
283.806,622,76.3609
285.798,624,78.3133
287.813,626,80.2405
289.815,628,82.1127
291.829,630,84.1100
293.835,632,85.9970
295.848,634,87.9778
297.853,636,90.0334
299.860,638,92.1672
301.828,640,94.5141
303.845,642,96.9757
305.844,644,99.5990
307.874,646,102.5719
309.863,648,105.6010
311.858,650,109.0157
313.879,652,112.7619
315.912,654,116.6281
317.915,656,120.3870
319.952,658,124.2490
321.955,660,127.8983
323.973,662,131.0507
325.984,664,133.4498
327.975,666,134.9554
330.012,668,135.2958
332.024,670,133.9336
334.015,672,130.7650
336.016,674,125.3306
337.998,676,117.7108
339.985,678,107.9068
342.005,680,95.7589
343.959,682,82.7564
345.917,684,69.4970
347.884,686,57.0078
349.828,688,46.3604
351.811,690,37.6929
353.760,692,31.2851
355.710,694,26.7383
357.683,696,23.6234
359.653,698,21.4862
361.641,700,19.8170
363.619,702,18.3411
365.641,704,16.9239
367.626,706,15.7997
369.611,708,14.8533
371.616,710,14.0435
373.637,712,13.1901
375.648,714,12.4514
377.643,716,11.8068
379.645,718,11.2248
381.642,720,10.6267
383.658,722,10.1126
385.651,724,9.5960
387.673,726,9.1176
389.680,728,8.5985
391.676,730,8.0945
393.695,732,7.6376
395.699,734,7.1353
397.704,736,6.7692
399.712,738,6.3094
401.725,740,5.8609
403.731,742,5.4829
405.728,744,5.0911
407.746,746,4.7512
409.769,748,4.4134
411.763,750,3.9963
413.768,752,3.7131
415.794,754,3.4342
417.800,756,3.2223
419.793,758,2.9015
421.806,760,2.6395
423.812,762,2.3317
425.832,764,2.1624
427.832,766,1.9989
429.834,768,1.8834
431.853,770,1.7083
433.848,772,1.5324
435.850,774,1.4326
437.870,776,1.3194
439.882,778,1.1809
441.891,780,1.0270
443.840,782,0.9509
445.856,784,0.8399
447.876,786,0.7768
449.862,788,0.6978
451.891,790,0.6523
453.866,792,0.5534
455.876,794,0.5319
457.871,796,0.4384
459.872,798,0.4000
461.869,800,0.3455
463.895,802,0.3079
465.870,804,0.2974
467.871,806,0.2781
469.922,808,0.2262
471.900,810,0.2776
473.904,812,0.1997
475.937,814,0.2194
477.933,816,0.1416
479.917,818,0.0878
481.945,820,0.1488
483.924,822,0.1786
485.924,824,0.0525
487.915,826,0.0786
489.938,828,0.0544
491.932,830,0.0886
493.936,832,0.0602
495.924,834,0.0832
497.929,836,0.0774
499.928,838,0.0038
501.914,840,0.0504
503.907,842,0.0216
505.899,844,-0.0179
507.951,846,-0.0109
509.930,848,0.0236
511.923,850,0.0238
513.935,852,0.0904
515.932,854,0.0992
517.898,856,-0.0165
519.923,858,0.0167
521.910,860,0.0151
523.893,862,0.0318
525.890,864,0.0365
527.873,866,-0.0070
529.909,868,-0.0427
531.910,870,-0.0479
533.898,872,-0.0130
535.919,874,-0.0440
537.947,876,-0.0446
539.902,878,-0.0078
541.889,880,-0.0298
543.881,882,-0.0222
545.891,884,-0.0138
547.892,886,-0.0266
549.922,888,-0.0502
551.879,890,0.0067
553.865,892,-0.0229
555.866,894,-0.0645
557.891,896,-0.0735
559.901,898,0.0027
561.894,900,0.0172
563.846,902,-0.0032
565.841,904,-0.0220
567.856,906,-0.0321
569.848,908,0.0162
571.828,910,0.0298
573.824,912,0.0420
575.835,914,0.0881
577.829,916,0.0428
579.827,918,0.0642
581.806,920,0.0266
583.781,922,0.0255
585.789,924,0.0102
587.767,926,-0.0110
589.773,928,0.0100
591.756,930,-0.0084
593.760,932,0.0014
595.762,934,-0.0203
597.756,936,-0.0306

File: NIST_Wood_MCC_N2_60K_R8.csv
Time (s),Temperature (K),HRR (W/g)
71.772,408,0.1177
73.667,410,0.0470
75.560,412,0.0151
77.444,414,0.0182
79.360,416,-0.0064
81.285,418,-0.0803
83.185,420,-0.0850
85.128,422,-0.0687
87.053,424,-0.0486
89.014,426,0.0208
90.927,428,0.0544
92.888,430,0.0135
94.849,432,0.0561
96.766,434,0.1321
98.722,436,0.1764
100.642,438,0.1754
102.607,440,0.2523
104.574,442,0.2986
106.558,444,0.3724
108.498,446,0.3920
110.478,448,0.4555
112.437,450,0.5529
114.408,452,0.6119
116.377,454,0.7221
118.324,456,0.8582
120.257,458,0.9847
122.250,460,1.1560
124.233,462,1.2599
126.185,464,1.4288
128.142,466,1.7196
130.116,468,1.8796
132.076,470,2.1092
134.035,472,2.3774
136.014,474,2.6298
137.966,476,2.9437
139.974,478,3.2825
141.933,480,3.5971
143.918,482,3.9260
145.866,484,4.2750
147.876,486,4.6580
149.861,488,5.0855
151.841,490,5.5972
153.825,492,6.0931
155.815,494,6.5578
157.808,496,7.0102
159.780,498,7.4750
161.758,500,7.9659
163.744,502,8.4732
165.733,504,8.9855
167.731,506,9.5031
169.721,508,10.0195
171.703,510,10.4380
173.693,512,10.9246
175.698,514,11.2951
177.683,516,11.5655
179.663,518,11.8556
181.666,520,12.0360
183.628,522,12.2939
185.614,524,12.4735
187.634,526,12.5036
189.617,528,12.6260
191.573,530,12.8342
193.579,532,13.0071
195.611,534,13.2231
197.610,536,13.4377
199.596,538,13.8028
201.557,540,14.1223
203.575,542,14.5503
205.590,544,14.9704
207.591,546,15.3524
209.555,548,15.8287
211.588,550,16.4108
213.592,552,16.9942
215.576,554,17.7610
217.582,556,18.5214
219.564,558,19.3886
221.555,560,20.2383
223.531,562,21.1214
225.558,564,22.0604
227.566,566,23.2266
229.530,568,24.2978
231.534,570,25.4981
233.554,572,26.7045
235.560,574,28.0018
237.578,576,29.3543
239.539,578,30.7974
241.554,580,32.3215
243.551,582,33.8720
245.565,584,35.5890
247.559,586,37.3336
249.538,588,39.2228
251.560,590,41.1605
253.523,592,43.1900
255.566,594,45.2417
257.555,596,47.3992
259.574,598,49.6703
261.579,600,51.9186
263.589,602,54.1548
265.552,604,56.5054
267.582,606,58.8562
269.605,608,61.2024
271.591,610,63.5069
273.599,612,65.8091
275.591,614,68.0769
277.597,616,70.3046
279.623,618,72.5553
281.595,620,74.5949
283.578,622,76.6427
285.612,624,78.6775
287.586,626,80.6724
289.610,628,82.6138
291.595,630,84.5163
293.606,632,86.4892
295.640,634,88.4797
297.642,636,90.4858
299.613,638,92.6496
301.623,640,94.9848
303.616,642,97.3753
305.640,644,100.0971
307.647,646,102.9600
309.637,648,106.0937
311.647,650,109.5514
313.669,652,113.2884
315.671,654,117.0354
317.698,656,120.8768
319.698,658,124.7475
321.724,660,128.3984
323.738,662,131.4999
325.748,664,134.0685
327.760,666,135.7379
329.763,668,136.0950
331.766,670,134.7720
333.803,672,131.5707
335.836,674,126.0360
337.791,676,118.4408
339.789,678,108.3461
341.776,680,96.3102
343.756,682,83.0882
345.725,684,69.7037
347.691,686,57.1987
349.625,688,46.6194
351.585,690,38.1618
353.503,692,31.9092
355.510,694,27.2239
357.467,696,24.0337
359.425,698,21.7562
361.431,700,20.0333
363.420,702,18.5895
365.399,704,17.2626
367.411,706,16.0649
369.421,708,15.1123
371.422,710,14.2450
373.451,712,13.4747
375.453,714,12.7158
377.445,716,12.0790
379.456,718,11.4754
381.454,720,10.9146
383.458,722,10.4143
385.476,724,9.9315
387.457,726,9.3607
389.496,728,8.8738
391.470,730,8.4020
393.507,732,7.9522
395.527,734,7.4573
397.502,736,7.0846
399.533,738,6.6348
401.536,740,6.2368
403.546,742,5.8661
405.572,744,5.4196
407.524,746,5.0533
409.566,748,4.7062
411.580,750,4.2926
413.546,752,4.0240
415.594,754,3.6913
417.577,756,3.4250
419.585,758,3.1758
421.617,760,2.9378
423.623,762,2.7004
425.635,764,2.4540
427.636,766,2.3041
429.623,768,2.0888
431.622,770,1.9167
433.682,772,1.7817
435.663,774,1.6482
437.683,776,1.4774
439.708,778,1.3546
441.694,780,1.2512
443.706,782,1.1603
445.690,784,1.0563
447.660,786,0.9657
449.676,788,0.8690
451.667,790,0.8160
453.666,792,0.7596
455.674,794,0.6848
457.691,796,0.5892
459.679,798,0.5745
461.710,800,0.5732
463.686,802,0.5347
465.668,804,0.4525
467.687,806,0.3839
469.692,808,0.4486
471.684,810,0.3981
473.713,812,0.3414
475.704,814,0.3407
477.724,816,0.2896
479.702,818,0.2785
481.694,820,0.2567
483.734,822,0.1674
485.708,824,0.2474
487.711,826,0.2339
489.686,828,0.1961
491.695,830,0.1363
493.698,832,0.1145
495.713,834,0.1879
497.716,836,0.1438
499.703,838,0.0630
501.690,840,0.0335
503.683,842,0.0586
505.682,844,0.0205
507.698,846,0.0066
509.682,848,0.0151
511.695,850,-0.0113
513.696,852,0.0366
515.681,854,-0.0004
517.699,856,-0.0094
519.694,858,0.0233
521.688,860,0.0716
523.697,862,-0.0371
525.691,864,-0.0564
527.682,866,-0.0399
529.646,868,0.0738
531.679,870,0.0289
533.682,872,0.0310
535.681,874,-0.0490
537.659,876,-0.0817
539.678,878,-0.0709
541.667,880,-0.0461
543.677,882,-0.0691
545.634,884,-0.0897
547.656,886,-0.0761
549.658,888,-0.1365
551.638,890,-0.0489
553.640,892,-0.0564
555.661,894,-0.0701
557.657,896,-0.0540
559.639,898,0.0072
561.622,900,0.0493
563.615,902,0.0489
565.614,904,0.0348
567.606,906,0.0697
569.614,908,0.0774
571.614,910,-0.0085
573.583,912,0.0503
575.594,914,0.0863
577.586,916,0.1043
579.582,918,0.0259
581.574,920,0.0365
583.570,922,0.0212
585.547,924,0.0249
587.502,926,-0.0162
589.548,928,-0.0093
591.523,930,0.0045
593.523,932,-0.0148
595.524,934,-0.0311
597.549,936,-0.0230

File: NIST_Wood_MCC_N2_60K_R9.csv
Time (s),Temperature (K),HRR (W/g)
74.089,410,-0.0276
75.967,412,0.0514
77.910,414,-0.0189
79.804,416,0.0142
81.726,418,-0.0030
83.655,420,0.0252
85.588,422,0.0070
87.499,424,-0.0078
89.453,426,-0.0826
91.388,428,-0.0349
93.308,430,0.0284
95.262,432,0.0272
97.185,434,0.0483
99.150,436,0.1710
101.094,438,0.4353
103.091,440,0.5055
105.021,442,0.6017
106.980,444,0.6406
108.936,446,0.7977
110.917,448,0.9610
112.863,450,1.0059
114.825,452,1.1865
116.804,454,1.1951
118.717,456,1.3734
120.710,458,1.5734
122.671,460,1.7937
124.633,462,1.9162
126.601,464,2.1112
128.596,466,2.3298
130.547,468,2.4519
132.479,470,2.6983
134.461,472,2.9526
136.445,474,3.2836
138.377,476,3.5041
140.350,478,3.7564
142.343,480,4.2113
144.320,482,4.5219
146.273,484,4.8281
148.285,486,5.1805
150.288,488,5.6392
152.229,490,6.1392
154.220,492,6.5348
156.186,494,6.9615
158.200,496,7.5109
160.129,498,8.0391
162.147,500,8.4990
164.114,502,8.9862
166.110,504,9.6093
168.092,506,10.1547
170.114,508,10.6194
172.087,510,11.0688
174.082,512,11.5837
176.056,514,12.0280
178.043,516,12.4592
180.057,518,12.7283
182.004,520,12.9962
184.006,522,13.3507
186.012,524,13.5960
187.994,526,13.8537
190.009,528,13.9861
192.011,530,14.1847
194.019,532,14.4244
196.009,534,14.6807
197.963,536,14.9701
199.963,538,15.2634
201.968,540,15.5330
203.944,542,15.9608
205.954,544,16.3015
207.926,546,16.6714
209.940,548,17.1197
211.937,550,17.6307
213.927,552,18.2128
215.914,554,18.8102
217.939,556,19.5942
219.938,558,20.3484
221.886,560,21.1754
223.875,562,22.1504
225.907,564,23.1265
227.890,566,24.1517
229.904,568,25.3451
231.896,570,26.4558
233.913,572,27.6139
235.934,574,28.9060
237.890,576,30.2295
239.870,578,31.6729
241.876,580,33.1611
243.888,582,34.7090
245.869,584,36.3841
247.897,586,38.2046
249.894,588,40.0299
251.912,590,41.9714
253.942,592,44.0616
255.913,594,46.1335
257.901,596,48.2380
259.882,598,50.4102
261.903,600,52.6196
263.887,602,54.9491
265.888,604,57.3513
267.879,606,59.7492
269.906,608,62.1852
271.935,610,64.5643
273.958,612,66.8789
275.917,614,69.2157
277.938,616,71.5448
279.937,618,73.7865
281.942,620,75.9466
283.952,622,78.0613
285.913,624,80.0958
287.935,626,82.2278
289.960,628,84.2637
291.958,630,86.1573
293.983,632,88.1221
295.976,634,90.0879
297.992,636,92.1178
299.983,638,94.2510
301.985,640,96.4106
303.989,642,98.8348
305.977,644,101.3157
307.994,646,104.1260
309.994,648,107.1712
312.041,650,110.5228
314.029,652,114.0351
316.067,654,117.8547
318.072,656,121.6548
320.059,658,125.4710
322.070,660,129.2317
324.102,662,132.7556
326.106,664,135.7275
328.141,666,137.8154
330.145,668,138.9158
332.145,670,138.5925
334.123,672,136.5223
336.177,674,132.2704
338.163,676,125.8549
340.150,678,117.0586
342.119,680,106.0956
344.070,682,93.5515
346.067,684,79.7560
348.022,686,66.5247
349.974,688,54.4591
351.974,690,44.3181
353.921,692,36.6707
355.865,694,30.9998
357.809,696,27.0290
359.784,698,24.2118
361.784,700,22.2237
363.784,702,20.6911
365.777,704,19.3879
367.786,706,18.1269
369.772,708,16.9854
371.769,710,16.0420
373.804,712,15.2859
375.810,714,14.5140
377.828,716,13.8411
379.838,718,13.2360
381.844,720,12.5699
383.846,722,11.8469
385.848,724,11.3648
387.840,726,10.8332
389.845,728,10.3730
391.881,730,9.9318
393.880,732,9.4257
395.933,734,8.9919
397.938,736,8.6289
399.952,738,8.0819
401.932,740,7.6333
403.947,742,7.1425
405.930,744,6.7864
407.939,746,6.3827
409.944,748,5.9232
411.981,750,5.5619
413.965,752,5.1872
415.994,754,4.8326
418.005,756,4.4989
420.050,758,4.1265
422.041,760,3.8592
424.013,762,3.5766
426.045,764,3.2787
428.041,766,3.0367
430.045,768,2.8418
432.052,770,2.6310
434.064,772,2.4487
436.083,774,2.2506
438.076,776,2.1592
440.125,778,1.9067
442.092,780,1.7516
444.108,782,1.6664
446.100,784,1.5596
448.104,786,1.4108
450.090,788,1.3404
452.106,790,1.2579
454.117,792,1.1506
456.110,794,1.1121
458.119,796,1.0824
460.132,798,0.9853
462.135,800,0.8988
464.117,802,0.8750
466.112,804,0.8319
468.129,806,0.7496
470.134,808,0.6715
472.131,810,0.6289
474.121,812,0.6615
476.141,814,0.6020
478.159,816,0.5823
480.155,818,0.5135
482.173,820,0.4922
484.141,822,0.4362
486.163,824,0.4253
488.163,826,0.3797
490.155,828,0.3390
492.148,830,0.3106
494.163,832,0.2772
496.165,834,0.2287
498.178,836,0.1594
500.181,838,0.1999
502.183,840,0.1773
504.178,842,0.1603
506.170,844,0.0910
508.181,846,0.0622
510.188,848,0.0601
512.172,850,0.0609
514.186,852,0.0703
516.189,854,0.0433
518.186,856,-0.0175
520.202,858,0.0267
522.198,860,0.0198
524.181,862,-0.0485
526.165,864,-0.0065
528.198,866,-0.0104
530.194,868,-0.0573
532.225,870,-0.0359
534.193,872,-0.0218
536.202,874,-0.0317
538.205,876,-0.0316
540.196,878,-0.0607
542.185,880,-0.0428
544.172,882,-0.0557
546.174,884,-0.0337
548.161,886,-0.0316
550.183,888,-0.0956
552.142,890,-0.1170
554.162,892,0.0317
556.183,894,0.0212
558.167,896,0.0475
560.147,898,0.0170
562.142,900,-0.0095
564.120,902,0.0448
566.131,904,0.0315
568.137,906,0.0678
570.111,908,0.0337
572.122,910,0.0392
574.101,912,0.0159
576.099,914,0.0155
578.118,916,0.0049
580.104,918,0.0405
582.112,920,-0.0196
584.071,922,-0.0336
586.068,924,0.0227
588.074,926,-0.0029
590.067,928,-0.0359
592.047,930,-0.0124
594.046,932,0.0281
596.069,934,-0.0107
598.029,936,-0.0460