Folder: matl-db/Wood/Calibration_Data/NIST (part 2)

File: NIST_Wood_MCC_N2_60K_R2.csv
Time (s),Temperature (K),HRR (W/g)
74.644,410,0.0134
76.545,412,-0.0806
78.427,414,-0.1003
80.335,416,-0.1172
82.228,418,-0.1576
84.143,420,-0.1376
86.093,422,-0.1710
87.996,424,-0.1796
89.912,426,-0.2148
91.848,428,-0.2135
93.788,430,-0.2004
95.719,432,-0.1980
97.662,434,-0.1580
99.633,436,-0.0959
101.575,438,-0.0334
103.530,440,0.1115
105.492,442,0.1525
107.436,444,0.2320
109.390,446,0.4160
111.360,448,0.4589
113.321,450,0.5580
115.253,452,0.7045
117.213,454,0.7790
119.178,456,0.9061
121.143,458,1.0521
123.075,460,1.2418
125.059,462,1.3390
127.021,464,1.5444
129.010,466,1.7825
130.985,468,1.9688
132.929,470,2.1420
134.920,472,2.3963
136.861,474,2.6704
138.845,476,2.9465
140.821,478,3.2456
142.820,480,3.5618
144.787,482,3.9277
146.742,484,4.2578
148.709,486,4.6919
150.727,488,5.0823
152.717,490,5.4968
154.694,492,5.9437
156.654,494,6.3908
158.636,496,6.8905
160.613,498,7.4076
162.606,500,7.8503
164.573,502,8.4282
166.571,504,8.9400
168.582,506,9.4073
170.550,508,10.0011
172.546,510,10.4841
174.537,512,10.9459
176.547,514,11.4077
178.517,516,11.7350
180.486,518,12.0469
182.486,520,12.3656
184.476,522,12.5646
186.464,524,12.7735
188.471,526,12.8666
190.448,528,13.0625
192.440,530,13.2882
194.435,532,13.5096
196.433,534,13.7985
198.428,536,14.0351
200.410,538,14.2395
202.376,540,14.5244
204.403,542,14.9459
206.381,544,15.3595
208.377,546,15.7778
210.384,548,16.1978
212.389,550,16.7294
214.394,552,17.2841
216.402,554,17.9087
218.400,556,18.6804
220.379,558,19.4971
222.353,560,20.3037
224.357,562,21.1538
226.360,564,22.1856
228.355,566,23.2082
230.350,568,24.2364
232.368,570,25.3783
234.367,572,26.5802
236.353,574,27.8574
238.356,576,29.1797
240.349,578,30.5928
242.348,580,32.1330
244.346,582,33.7189
246.363,584,35.3687
248.352,586,37.1348
250.344,588,38.9609
252.352,590,40.9050
254.346,592,43.0123
256.367,594,45.1105
258.367,596,47.2375
260.396,598,49.4953
262.385,600,51.8013
264.365,602,54.1211
266.377,604,56.5712
268.380,606,58.9649
270.358,608,61.3861
272.369,610,63.7958
274.376,612,66.1887
276.407,614,68.4598
278.389,616,70.7803
280.430,618,73.1685
282.401,620,75.4122
284.383,622,77.5156
286.406,624,79.6334
288.416,626,81.7260
290.404,628,83.6788
292.422,630,85.6512
294.438,632,87.6493
296.426,634,89.5702
298.448,636,91.6345
300.467,638,93.7785
302.472,640,95.9073
304.460,642,98.3203
306.448,644,100.8979
308.480,646,103.6840
310.457,648,106.7301
312.470,650,110.0686
314.506,652,113.8283
316.526,654,117.6390
318.531,656,121.5846
320.515,658,125.5393
322.563,660,129.5719
324.571,662,133.2163
326.566,664,136.2599
328.577,666,138.6298
330.592,668,139.8459
332.616,670,139.5320
334.627,672,137.4879
336.632,674,133.2796
338.623,676,126.6842
340.618,678,117.5585
342.586,680,106.2190
344.577,682,92.9666
346.537,684,78.9393
348.495,686,65.3922
350.453,688,53.3318
352.424,690,43.4036
354.391,692,35.8285
356.346,694,30.3945
358.312,696,26.5453
360.250,698,23.9178
362.236,700,21.9307
364.225,702,20.4312
366.231,704,19.0887
368.211,706,17.7489
370.229,708,16.6071
372.217,710,15.6832
374.214,712,14.7730
376.252,714,14.0388
378.262,716,13.3375
380.253,718,12.6459
382.298,720,11.9731
384.276,722,11.5031
386.303,724,10.8736
388.288,726,10.3530
390.325,728,9.7292
392.300,730,9.2841
394.312,732,8.8078
396.341,734,8.3980
398.328,736,7.9992
400.351,738,7.4870
402.349,740,6.9656
404.364,742,6.6251
406.361,744,6.1876
408.384,746,5.8038
410.387,748,5.3952
412.391,750,5.0472
414.395,752,4.7233
416.412,754,4.3501
418.451,756,3.9714
420.435,758,3.6222
422.435,760,3.4316
424.423,762,3.1602
426.453,764,2.8900
428.460,766,2.6786
430.455,768,2.5287
432.470,770,2.2405
434.501,772,2.0857
436.505,774,1.9899
438.508,776,1.8100
440.515,778,1.6632
442.514,780,1.4696
444.527,782,1.3589
446.531,784,1.4089
448.516,786,1.2546
450.486,788,1.0573
452.505,790,0.9678
454.532,792,0.9373
456.523,794,0.9569
458.538,796,0.8689
460.561,798,0.8017
462.549,800,0.7029
464.551,802,0.6589
466.519,804,0.5553
468.529,806,0.5260
470.530,808,0.5227
472.530,810,0.5086
474.553,812,0.4807
476.563,814,0.3591
478.575,816,0.4077
480.554,818,0.3828
482.553,820,0.3578
484.539,822,0.3650
486.553,824,0.3665
488.556,826,0.2662
490.561,828,0.2255
492.568,830,0.2529
494.547,832,0.2004
496.576,834,0.2146
498.606,836,0.2185
500.568,838,0.1827
502.569,840,0.1839
504.576,842,0.1194
506.567,844,0.0166
508.580,846,0.0317
510.595,848,0.0431
512.602,850,0.0114
514.541,852,0.0271
516.601,854,0.0596
518.586,856,-0.0108
520.621,858,0.0013
522.562,860,-0.0024
524.554,862,-0.0142
526.541,864,-0.0155
528.567,866,-0.0432
530.561,868,-0.0236
532.553,870,-0.0681
534.582,872,-0.0428
536.578,874,-0.0642
538.581,876,-0.0282
540.580,878,-0.0404
542.561,880,-0.0481
544.574,882,0.0032
546.564,884,0.0701
548.563,886,0.0213
550.574,888,0.0203
552.544,890,0.0478
554.553,892,0.0104
556.532,894,-0.0556
558.498,896,-0.0041
560.544,898,-0.0203
562.527,900,0.0169
564.516,902,0.0536
566.516,904,0.0508
568.489,906,0.0120
570.507,908,-0.0269
572.515,910,0.0359
574.512,912,0.0137
576.524,914,0.0201
578.497,916,-0.0088
580.463,918,0.0043
582.503,920,-0.0176
584.511,922,0.0000
586.499,924,-0.0165
588.445,926,-0.0251
590.472,928,-0.0077
592.443,930,-0.0196
594.425,932,-0.0102
596.401,934,-0.0508
598.432,936,-0.0272

File: NIST_Wood_MCC_N2_60K_R3.csv
Time (s),Temperature (K),HRR (W/g)
72.762,409,0.0641
74.655,411,0.0026
76.533,413,0.0028
78.435,415,-0.0745
80.325,417,-0.0632
82.234,419,-0.0361
84.183,421,0.0330
86.103,423,0.0921
88.030,425,0.0725
89.986,427,0.0660
91.916,429,0.1094
93.839,431,0.1758
95.757,433,0.2167
97.707,435,0.2800
99.684,437,0.3226
101.621,439,0.4471
103.579,441,0.4806
105.541,443,0.5959
107.509,445,0.6983
109.483,447,0.7007
111.436,449,0.7567
113.374,451,0.8700
115.333,453,0.9449
117.300,455,1.0349
119.256,457,1.1491
121.224,459,1.3429
123.173,461,1.4753
125.160,463,1.6619
127.127,465,1.9024
129.125,467,2.1358
131.038,469,2.3026
133.052,471,2.4912
135.010,473,2.7571
136.981,475,3.1325
138.941,477,3.3848
140.921,479,3.6331
142.879,481,4.0919
144.884,483,4.4384
146.866,485,4.8075
148.859,487,5.2775
150.838,489,5.7229
152.805,491,6.1937
154.818,493,6.6653
156.804,495,7.2149
158.772,497,7.7191
160.723,499,8.1410
162.725,501,8.7077
164.720,503,9.3443
166.695,505,9.8003
168.660,507,10.3185
170.704,509,10.8533
172.675,511,11.3016
174.654,513,11.7540
176.643,515,12.2285
178.642,517,12.6038
180.648,519,12.8274
182.636,521,13.0448
184.638,523,13.2639
186.609,525,13.3972
188.606,527,13.5104
190.612,529,13.7029
192.600,531,13.8747
194.589,533,14.0361
196.568,535,14.2628
198.573,537,14.5494
200.529,539,14.8242
202.540,541,15.2709
204.545,543,15.6240
206.512,545,15.9895
208.481,547,16.4041
210.497,549,16.9718
212.519,551,17.6151
214.504,553,18.2294
216.530,555,18.9667
218.525,557,19.8081
220.494,559,20.6535
222.516,561,21.5539
224.505,563,22.5679
226.549,565,23.6028
228.534,567,24.6981
230.513,569,25.8378
232.520,571,27.0309
234.520,573,28.3069
236.521,575,29.7006
238.511,577,31.1396
240.506,579,32.5964
242.519,581,34.2397
244.515,583,35.8718
246.535,585,37.6070
248.501,587,39.4921
250.521,589,41.4143
252.520,591,43.3303
254.525,593,45.4443
256.524,595,47.4869
258.545,597,49.7077
260.517,599,51.8821
262.508,601,54.1877
264.536,603,56.5103
266.530,605,58.9144
268.526,607,61.1839
270.545,609,63.6414
272.571,611,65.9802
274.569,613,68.2562
276.579,615,70.5568
278.556,617,72.7914
280.559,619,75.1013
282.574,621,77.2061
284.537,623,79.2765
286.572,625,81.3298
288.565,627,83.2987
290.561,629,85.3501
292.571,631,87.4145
294.576,633,89.3288
296.606,635,91.4630
298.585,637,93.4773
300.593,639,95.7749
302.587,641,98.1072
304.622,643,100.6792
306.654,645,103.4827
308.596,647,106.3867
310.634,649,109.6420
312.608,651,113.0562
314.639,653,116.7156
316.624,655,120.4501
318.682,657,124.3845
320.699,659,128.0533
322.723,661,131.4620
324.744,663,134.3968
326.747,665,136.6336
328.756,667,137.8404
330.763,669,137.7197
332.797,671,135.8987
334.791,673,132.1873
336.782,675,126.2716
338.777,677,118.0537
340.755,679,107.6882
342.727,681,95.6127
344.668,683,82.5069
346.619,685,69.2865
348.607,687,56.7690
350.528,689,46.3716
352.506,691,37.9438
354.478,693,31.6637
356.434,695,27.2882
358.416,697,24.2171
360.404,699,21.9518
362.378,701,20.3334
364.354,703,18.9633
366.368,705,17.5958
368.378,707,16.3913
370.368,709,15.4631
372.366,711,14.6586
374.387,713,13.8253
376.408,715,13.0750
378.393,717,12.4391
380.415,719,11.8266
382.380,721,11.3149
384.416,723,10.7060
386.437,725,10.2331
388.435,727,9.6487
390.445,729,9.1343
392.458,731,8.7054
394.459,733,8.2705
396.476,735,7.8273
398.523,737,7.3256
400.517,739,6.8374
402.522,741,6.4555
404.525,743,6.0189
406.530,745,5.6057
408.534,747,5.2806
410.561,749,4.8988
412.526,751,4.6451
414.568,753,4.2605
416.577,755,3.9439
418.570,757,3.5895
420.568,759,3.2815
422.602,761,3.0515
424.628,763,2.7896
426.554,765,2.5543
428.614,767,2.4110
430.616,769,2.1964
432.604,771,2.0425
434.633,773,1.8748
436.668,775,1.7075
438.701,777,1.5440
440.678,779,1.4683
442.670,781,1.3414
444.653,783,1.2206
446.663,785,1.1083
448.666,787,1.0229
450.643,789,0.9511
452.668,791,0.9153
454.686,793,0.8442
456.679,795,0.7284
458.681,797,0.6776
460.680,799,0.6666
462.686,801,0.6255
464.693,803,0.5031
466.703,805,0.4890
468.692,807,0.3761
470.679,809,0.3590
472.708,811,0.3503
474.724,813,0.4013
476.702,815,0.3162
478.732,817,0.2451
480.745,819,0.3127
482.741,821,0.2530
484.706,823,0.2397
486.742,825,0.2416
488.722,827,0.1905
490.717,829,0.1007
492.722,831,0.0666
494.712,833,0.1226
496.713,835,0.1033
498.716,837,0.0544
500.717,839,-0.0099
502.725,841,-0.0151
504.724,843,0.0292
506.704,845,0.0756
508.715,847,-0.0039
510.717,849,-0.0428
512.683,851,-0.0866
514.717,853,-0.0393
516.716,855,-0.0219
518.704,857,-0.0591
520.704,859,-0.0347
522.691,861,-0.0220
524.721,863,-0.0917
526.698,865,0.0567
528.680,867,0.0972
530.702,869,-0.0652
532.687,871,-0.1451
534.692,873,-0.0203
536.686,875,-0.0017
538.696,877,0.0607
540.675,879,0.0136
542.694,881,0.0046
544.660,883,-0.0701
546.666,885,0.0123
548.658,887,0.0676
550.659,889,0.0286
552.642,891,-0.0091
554.650,893,-0.0137
556.646,895,0.0113
558.649,897,0.0275
560.642,899,-0.0181
562.628,901,0.0469
564.659,903,-0.0186
566.629,905,0.0586
568.630,907,0.0455
570.604,909,0.0649
572.641,911,0.0414
574.610,913,0.0185
576.632,915,-0.0178
578.638,917,-0.0359
580.597,919,-0.0135
582.635,921,0.0017
584.614,923,0.0265
586.579,925,0.0178
588.563,927,0.0067
590.551,929,0.0234
592.581,931,-0.0277
594.567,933,-0.0072
596.549,935,-0.0306
598.070,936.5,-0.0778

File: NIST_Wood_MCC_N2_60K_R4.csv
Time (s),Temperature (K),HRR (W/g)
73.717,409.5,0.1443
75.570,411.5,-0.0098
77.480,413.5,0.0370
79.379,415.5,-0.0444
81.270,417.5,-0.0270
83.178,419.5,0.0321
85.117,421.5,-0.0170
86.988,423.5,0.0018
88.943,425.5,0.0031
90.872,427.5,0.0319
92.822,429.5,0.1247
94.754,431.5,0.1982
96.708,433.5,0.1506
98.644,435.5,0.2854
100.576,437.5,0.4086
102.564,439.5,0.5261
104.461,441.5,0.5301
106.468,443.5,0.5967
108.423,445.5,0.6632
110.354,447.5,0.6620
112.276,449.5,0.8099
114.264,451.5,0.8813
116.234,453.5,0.9477
118.197,455.5,1.0425
120.143,457.5,1.1634
122.109,459.5,1.2749
124.074,461.5,1.4252
126.051,463.5,1.5758
128.013,465.5,1.7691
129.970,467.5,2.0175
131.956,469.5,2.1752
133.900,471.5,2.4452
135.883,473.5,2.7645
137.856,475.5,2.9552
139.802,477.5,3.2080
141.780,479.5,3.5268
143.760,481.5,3.8941
145.721,483.5,4.2688
147.711,485.5,4.6181
149.675,487.5,5.0640
151.692,489.5,5.5340
153.663,491.5,5.8430
155.640,493.5,6.3296
157.621,495.5,6.8359
159.600,497.5,7.3242
161.563,499.5,7.7547
163.556,501.5,8.3052
165.538,503.5,8.8499
167.506,505.5,9.2390
169.496,507.5,9.7168
171.483,509.5,10.2957
173.470,511.5,10.7568
175.453,513.5,11.2008
177.468,515.5,11.6731
179.454,517.5,12.0123
181.407,519.5,12.3316
183.411,521.5,12.6098
185.412,523.5,12.8191
187.441,525.5,13.0500
189.389,527.5,13.2806
191.420,529.5,13.4263
193.385,531.5,13.6295
195.416,533.5,13.8734
197.371,535.5,14.1025
199.374,537.5,14.3841
201.371,539.5,14.7218
203.346,541.5,14.9418
205.340,543.5,15.3022
207.363,545.5,15.7210
209.321,547.5,16.0685
211.336,549.5,16.5276
213.342,551.5,17.1353
215.344,553.5,17.7545
217.323,555.5,18.4209
219.357,557.5,19.2113
221.319,559.5,20.0057
223.326,561.5,20.8703
225.303,563.5,21.8080
227.318,565.5,22.8507
229.316,567.5,23.9459
231.313,569.5,25.1130
233.298,571.5,26.2737
235.282,573.5,27.4718
237.298,575.5,28.7855
239.276,577.5,30.1707
241.280,579.5,31.7142
243.271,581.5,33.4018
245.287,583.5,34.9640
247.292,585.5,36.6189
249.290,587.5,38.5054
251.292,589.5,40.4290
253.315,591.5,42.4822
255.306,593.5,44.5593
257.296,595.5,46.6783
259.315,597.5,48.9776
261.288,599.5,51.2344
263.284,601.5,53.5988
265.314,603.5,56.0209
267.296,605.5,58.4352
269.293,607.5,60.8782
271.302,609.5,63.3694
273.316,611.5,65.8058
275.332,613.5,68.1840
277.322,615.5,70.5271
279.339,617.5,72.8187
281.315,619.5,75.0329
283.332,621.5,77.2248
285.302,623.5,79.2818
287.330,625.5,81.3533
289.326,627.5,83.3328
291.349,629.5,85.2211
293.316,631.5,87.0744
295.355,633.5,89.0247
297.344,635.5,90.9364
299.348,637.5,92.9616
301.348,639.5,95.1049
303.367,641.5,97.3761
305.370,643.5,99.9204
307.373,645.5,102.6476
309.387,647.5,105.6860
311.369,649.5,108.9331
313.372,651.5,112.6242
315.390,653.5,116.6045
317.443,655.5,120.7651
319.445,657.5,124.9608
321.451,659.5,129.1642
323.484,661.5,133.2062
325.492,663.5,136.6370
327.493,665.5,139.3040
329.508,667.5,141.0612
331.486,669.5,141.1619
333.547,671.5,139.4003
335.553,673.5,135.4771
337.554,675.5,129.1322
339.521,677.5,120.3567
341.520,679.5,109.0721
343.460,681.5,96.3897
345.438,683.5,82.4129
347.403,685.5,68.7267
349.362,687.5,56.3324
351.328,689.5,45.9235
353.270,691.5,37.7901
355.240,693.5,31.6863
357.197,695.5,27.4618
359.175,697.5,24.4912
361.152,699.5,22.3922
363.119,701.5,20.8373
365.115,703.5,19.4090
367.107,705.5,18.0787
369.105,707.5,17.0250
371.099,709.5,16.0096
373.136,711.5,15.1503
375.151,713.5,14.4105
377.139,715.5,13.7459
379.153,717.5,12.9835
381.126,719.5,12.4468
383.154,721.5,11.9385
385.156,723.5,11.3691
387.159,725.5,10.8785
389.180,727.5,10.4065
391.176,729.5,9.8685
393.199,731.5,9.3191
395.212,733.5,8.8357
397.215,735.5,8.3849
399.243,737.5,7.9701
401.240,739.5,7.4766
403.236,741.5,7.0049
405.241,743.5,6.5977
407.249,745.5,6.2944
409.279,747.5,5.8665
411.272,749.5,5.4003
413.280,751.5,5.0135
415.302,753.5,4.6574
417.317,755.5,4.2781
419.306,757.5,3.9785
421.349,759.5,3.7040
423.357,761.5,3.4446
425.316,763.5,3.1702
427.354,765.5,2.8804
429.333,767.5,2.6663
431.349,769.5,2.4539
433.369,771.5,2.3067
435.389,773.5,2.1450
437.448,775.5,1.8824
439.413,777.5,1.8099
441.421,779.5,1.6633
443.399,781.5,1.5445
445.361,783.5,1.4117
447.392,785.5,1.2871
449.407,787.5,1.2205
451.405,789.5,1.0764
453.406,791.5,1.0258
455.423,793.5,0.9826
457.426,795.5,0.9790
459.423,797.5,0.8106
461.407,799.5,0.6875
463.398,801.5,0.6669
465.476,803.5,0.6784
467.475,805.5,0.6045
469.413,807.5,0.5867
471.465,809.5,0.6065
473.435,811.5,0.5706
475.443,813.5,0.5178
477.442,815.5,0.4348
479.459,817.5,0.4435
481.462,819.5,0.3686
483.432,821.5,0.3643
485.407,823.5,0.3662
487.430,825.5,0.3399
489.448,827.5,0.3482
491.414,829.5,0.2855
493.433,831.5,0.2535
495.439,833.5,0.1810
497.425,835.5,0.1423
499.450,837.5,0.1606
501.460,839.5,0.1693
503.422,841.5,0.1410
505.435,843.5,0.1161
507.393,845.5,0.1273
509.428,847.5,0.0761
511.408,849.5,0.0322
513.428,851.5,0.0581
515.435,853.5,0.0459
517.435,855.5,0.0614
519.459,857.5,0.0468
521.444,859.5,0.0380
523.434,861.5,-0.0152
525.406,863.5,-0.0144
527.413,865.5,-0.0716
529.435,867.5,-0.0648
531.437,869.5,-0.0148
533.404,871.5,-0.0059
535.438,873.5,-0.0202
537.419,875.5,-0.0109
539.405,877.5,-0.0217
541.405,879.5,-0.0092
543.393,881.5,0.0252
545.402,883.5,-0.0235
547.375,885.5,0.1137
549.393,887.5,0.0207
551.369,889.5,-0.0870
553.378,891.5,-0.0936
555.375,893.5,-0.0589
557.398,895.5,-0.0043
559.370,897.5,0.0455
561.374,899.5,0.0496
563.344,901.5,-0.0485
565.344,903.5,-0.0639
567.329,905.5,-0.0202
569.355,907.5,0.0252
571.324,909.5,0.0019
573.335,911.5,0.0004
575.323,913.5,0.0533
577.348,915.5,0.0359
579.325,917.5,0.0817
581.331,919.5,0.0566
583.303,921.5,-0.0017
585.280,923.5,0.0042
587.277,925.5,0.0153
589.260,927.5,-0.0193
591.284,929.5,-0.0416
593.277,931.5,-0.0282
595.237,933.5,0.0055
597.274,935.5,0.0026
597.777,936,-0.0008

File: NIST_Wood_MCC_N2_60K_R5.csv
Time (s),Temperature (K),HRR (W/g)
72.820,409,0.0887
74.716,411,-0.0763
76.600,413,-0.0508
78.496,415,0.0043
80.384,417,-0.0156
82.310,419,-0.0310
84.239,421,0.0459
86.163,423,0.0884
88.098,425,-0.0149
90.012,427,0.0845
91.985,429,0.1868
93.911,431,0.2522
95.866,433,0.3242
97.831,435,0.3672
99.771,437,0.4283
101.734,439,0.4856
103.709,441,0.5645
105.669,443,0.6218
107.648,445,0.6376
109.601,447,0.6983
111.513,449,0.8773
113.532,451,0.9371
115.453,453,1.0386
117.407,455,1.0841
119.411,457,1.1990
121.330,459,1.3824
123.326,461,1.6080
125.286,463,1.7486
127.276,465,2.0155
129.224,467,2.2362
131.197,469,2.3567
133.181,471,2.6773
135.150,473,2.8383
137.121,475,3.1252
139.086,477,3.5469
141.082,479,3.8166
143.046,481,4.1969
145.006,483,4.6273
147.034,485,4.9368
149.004,487,5.3436
151.019,489,5.8315
152.978,491,6.2926
154.944,493,6.8199
156.946,495,7.3028
158.896,497,7.7707
160.896,499,8.2987
162.860,501,8.8022
164.867,503,9.4046
166.856,505,9.9113
168.859,507,10.4749
170.873,509,10.8899
172.850,511,11.2851
174.825,513,11.7280
176.816,515,12.1470
178.810,517,12.4853
180.825,519,12.7337
182.816,521,12.9991
184.799,523,13.1976
186.806,525,13.2856
188.800,527,13.4424
190.809,529,13.5974
192.776,531,13.7496
194.770,533,14.0032
196.769,535,14.2464
198.747,537,14.5015
200.735,539,14.8286
202.721,541,15.1910
204.741,543,15.6318
206.749,545,16.0510
208.733,547,16.4964
210.738,549,17.0642
212.758,551,17.6443
214.758,553,18.2606
216.744,555,19.0395
218.735,557,19.8911
220.732,559,20.7612
222.745,561,21.6323
224.746,563,22.6034
226.731,565,23.6034
228.726,567,24.7732
230.702,569,25.9112
232.712,571,27.1109
234.724,573,28.4438
236.730,575,29.8586
238.710,577,31.2783
240.722,579,32.7731
242.738,581,34.4212
244.717,583,36.0551
246.722,585,37.9052
248.727,587,39.7635
250.705,589,41.6600
252.723,591,43.7384
254.738,593,45.7720
256.724,595,47.9305
258.763,597,50.1850
260.746,599,52.3538
262.747,601,54.6626
264.746,603,56.9775
266.745,605,59.3638
268.762,607,61.7102
270.775,609,64.0989
272.746,611,66.3403
274.767,613,68.6725
276.745,615,70.8989
278.777,617,73.1957
280.794,619,75.4205
282.778,621,77.4943
284.778,623,79.5726
286.756,625,81.4943
288.746,627,83.4668
290.756,629,85.4648
292.762,631,87.4436
294.769,633,89.4029
296.793,635,91.4202
298.778,637,93.5190
300.811,639,95.7946
302.787,641,98.1272
304.785,643,100.6800
306.827,645,103.4619
308.805,647,106.4981
310.806,649,109.7360
312.828,651,113.2628
314.849,653,116.9582
316.879,655,120.7620
318.884,657,124.6162
320.893,659,128.3421
322.922,661,131.8155
324.911,663,134.7133
326.924,665,136.8130
328.914,667,137.8780
330.974,669,137.5225
332.964,671,135.4457
334.981,673,131.4285
336.980,675,125.2338
338.958,677,116.6745
340.942,679,106.0117
342.953,681,93.5205
344.918,683,80.2945
346.844,685,67.3876
348.834,687,55.0810
350.767,689,45.1385
352.730,691,37.0686
354.681,693,31.1066
356.659,695,26.7928
358.611,697,23.8389
360.591,699,21.7628
362.606,701,20.2168
364.569,703,18.7890
366.587,705,17.4917
368.631,707,16.4138
370.600,709,15.5195
372.614,711,14.7035
374.641,713,13.9928
376.610,715,13.1817
378.621,717,12.3955
380.650,719,11.7826
382.626,721,11.2932
384.649,723,10.7934
386.654,725,10.3064
388.670,727,9.7935
390.672,729,9.1849
392.715,731,8.8278
394.732,733,8.4215
396.724,735,7.8965
398.731,737,7.4269
400.756,739,6.9811
402.699,741,6.6265
404.734,743,6.2007
406.745,745,5.7605
408.761,747,5.3348
410.820,749,4.9784
412.750,751,4.6046
414.793,753,4.2522
416.782,755,3.8802
418.830,757,3.6065
420.825,759,3.3300
422.829,761,3.0560
424.819,763,2.8152
426.832,765,2.5826
428.869,767,2.3572
430.827,769,2.2000
432.875,771,2.0229
434.872,773,1.8455
436.931,775,1.7628
438.895,777,1.6574
440.895,779,1.4704
442.891,781,1.3426
444.862,783,1.2088
446.877,785,1.1320
448.843,787,1.1053
450.884,789,1.1053
452.910,791,0.8994
454.896,793,0.8249
456.893,795,0.7246
458.873,797,0.6355
460.890,799,0.5644
462.900,801,0.4987
464.888,803,0.5154
466.896,805,0.4881
468.876,807,0.4629
470.902,809,0.4984
472.902,811,0.4299
474.915,813,0.4181
476.918,815,0.3788
478.933,817,0.3586
480.883,819,0.3028
482.884,821,0.2775
484.893,823,0.2627
486.890,825,0.2591
488.907,827,0.2485
490.894,829,0.1896
492.925,831,0.1668
494.906,833,0.1427
496.892,835,0.1030
498.901,837,0.0704
500.909,839,0.0664
502.916,841,0.0768
504.908,843,0.0603
506.914,845,0.0545
508.934,847,0.0503
510.921,849,-0.0284
512.906,851,0.0336
514.909,853,-0.0070
516.896,855,-0.0513
518.894,857,-0.0914
520.899,859,-0.0146
522.920,861,-0.0343
524.919,863,0.0046
526.880,865,-0.0515
528.914,867,-0.0067
530.886,869,0.0246
532.885,871,-0.0459
534.837,873,-0.0390
536.895,875,-0.0112
538.881,877,-0.0205
540.898,879,-0.0473
542.885,881,0.0049
544.905,883,0.0516
546.865,885,0.0487
548.909,887,0.1082
550.887,889,0.0711
552.886,891,0.0225
554.863,893,0.0261
556.888,895,0.0430
558.874,897,-0.0347
560.873,899,0.0041
562.863,901,-0.0125
564.863,903,0.0492
566.861,905,-0.0533
568.842,907,-0.0297
570.851,909,-0.0102
572.841,911,0.0435
574.854,913,0.0572
576.868,915,0.0051
578.837,917,-0.0067
580.815,919,0.0114
582.837,921,0.0117
584.826,923,0.0613
586.828,925,0.0272
588.811,927,-0.0614
590.805,929,-0.0010
592.779,931,-0.0114
594.801,933,-0.1063
596.821,935,-0.0562
597.806,936,-0.0880