Folder: matl-db/Wood/Calibration_Data/NIST (part 5)

File: NIST_Wood_MCC_O2-20_60K_R2.csv
Time (s),Temperature (K),HRR (W/g)
59.847,395.5,-0.4617
62.189,398,-0.7233
64.520,400.5,-0.5910
66.874,403,-0.6753
69.205,405.5,-0.8845
71.600,408,-0.9118
73.950,410.5,-0.9439
76.324,413,-0.9312
78.707,415.5,-0.8077
81.091,418,-0.7658
83.508,420.5,-0.7411
85.920,423,-0.8279
88.341,425.5,-0.7360
90.750,428,-0.4383
93.187,430.5,-0.3808
95.624,433,-0.2780
98.055,435.5,-0.1152
100.486,438,-0.0589
102.964,440.5,0.0500
105.394,443,0.2957
107.846,445.5,0.7739
110.322,448,0.9133
112.767,450.5,1.3698
115.233,453,1.6513
117.662,455.5,1.9215
120.142,458,2.3923
122.590,460.5,2.5877
125.004,463,3.0829
127.507,465.5,3.4696
129.989,468,3.8307
132.416,470.5,4.1643
134.895,473,4.5789
137.347,475.5,5.2846
139.807,478,5.9543
142.266,480.5,6.4225
144.753,483,6.7502
147.223,485.5,7.3603
149.707,488,7.8712
152.213,490.5,8.5088
154.680,493,8.8946
157.130,495.5,9.3430
159.631,498,9.5113
162.100,500.5,9.6850
164.582,503,10.0157
167.039,505.5,10.2994
169.556,508,10.5956
172.052,510.5,10.8893
174.544,513,11.2568
177.035,515.5,11.7765
179.535,518,12.3257
182.007,520.5,13.0962
184.490,523,13.7088
186.941,525.5,14.6127
189.452,528,15.6638
191.955,530.5,16.6838
194.482,533,17.7391
196.983,535.5,19.0207
199.416,538,20.3135
201.922,540.5,21.7624
204.419,543,23.3643
206.900,545.5,24.7930
209.373,548,26.5609
211.874,550.5,28.1732
214.387,553,29.9954
216.869,555.5,31.9810
219.334,558,34.0377
221.817,560.5,36.1162
224.312,563,38.3110
226.797,565.5,40.6569
229.275,568,43.1823
231.776,570.5,45.5836
234.281,573,48.2896
236.747,575.5,51.2003
239.220,578,54.0151
241.689,580.5,57.4554
244.179,583,60.7408
246.647,585.5,64.7391
249.131,588,68.6779
251.597,590.5,73.1010
254.062,593,77.7693
256.536,595.5,82.9923
259.002,598,88.5106
261.467,600.5,94.4484
263.916,603,100.8398
266.387,605.5,107.6205
268.856,608,115.4399
271.305,610.5,124.2954
273.797,613,134.9906
276.254,615.5,147.5492
278.713,618,162.0202
281.185,620.5,176.8915
283.640,623,190.7400
286.083,625.5,201.1407
288.522,628,205.4951
290.978,630.5,202.4078
293.376,633,192.1095
295.803,635.5,175.0243
298.182,638,154.2104
300.562,640.5,132.1172
302.948,643,112.0390
305.357,645.5,94.7706
307.789,648,81.3790
310.260,650.5,71.2112
312.747,653,63.9521
315.316,655.5,58.6205
317.867,658,54.7065
320.512,660.5,51.8626
323.084,663,49.2957
325.730,665.5,47.3772
328.351,668,45.6423
330.968,670.5,44.3816
333.576,673,43.0349
336.156,675.5,42.0012
338.687,678,41.4891
341.257,680.5,40.9171
343.776,683,40.8926
346.286,685.5,40.8772
348.797,688,40.9792
351.343,690.5,41.4116
353.841,693,42.2941
356.363,695.5,43.4011
358.817,698,37.6034
361.279,700.5,41.8985
363.715,703,51.0074
366.129,705.5,69.8274
368.475,708,118.3918
370.452,710.5,146.5852
372.398,713,154.8109
374.424,715.5,155.7375
376.505,718,153.4102
378.665,720.5,150.3810
380.911,723,146.0810
383.297,725.5,136.0142
386.091,728,134.3792
388.661,730.5,133.5301
391.312,733,118.3467
394.204,735.5,108.9563
396.545,738,94.3132
399.933,740.5,64.6574
403.032,743,32.5646
406.539,745.5,4.1607
410.078,748,-0.1356
413.253,750.5,-0.5274
416.116,753,-0.5910
418.762,755.5,-0.5368
421.346,758,-0.6626
423.855,760.5,-0.5593
426.306,763,-0.5188
428.739,765.5,-0.5905
431.181,768,-0.4163
433.614,770.5,-0.3410
436.065,773,-0.4797
438.509,775.5,-0.4652
440.955,778,-0.3344
443.422,780.5,-0.3962
445.853,783,-0.4301
448.298,785.5,-0.4441
450.741,788,-0.4389
453.205,790.5,-0.5164
455.699,793,-0.5178
458.154,795.5,-0.4686
460.643,798,-0.6052
463.092,800.5,-0.5570
465.560,803,-0.6060
468.029,805.5,-0.5735
470.517,808,-0.6978
473.029,810.5,-0.6798
475.529,813,-0.5353
478.007,815.5,-0.5481
480.482,818,-0.2935
482.967,820.5,-0.0492
485.440,823,-0.4167
487.920,825.5,-0.3879
490.395,828,-0.2566
492.882,830.5,-0.1430
495.370,833,-0.0935
497.857,835.5,0.0568
500.341,838,0.0531
502.847,840.5,0.1395
505.332,843,0.0810
507.843,845.5,0.0955
510.306,848,0.1929
512.808,850.5,0.1452
515.318,853,0.0491
517.811,855.5,0.1515
520.319,858,0.1655
522.798,860.5,0.2830
525.300,863,0.3118
527.789,865.5,0.3583
530.252,868,0.2813
532.767,870.5,0.3194
535.280,873,0.3483
537.752,875.5,0.3765
540.249,878,0.3463
542.724,880.5,0.4689
545.233,883,0.3314
547.718,885.5,0.3385
550.200,888,0.3990
552.695,890.5,0.3251
555.209,893,0.3850
557.716,895.5,0.3737
560.199,898,0.4507
562.666,900.5,0.3339
565.158,903,0.3203
567.644,905.5,0.3760
570.146,908,0.3160
572.646,910.5,0.4589
575.126,913,0.3884
577.632,915.5,0.4986
580.112,918,0.5028
582.616,920.5,0.4134
585.136,923,0.5091
587.601,925.5,0.5268
590.093,928,0.4534
592.601,930.5,0.4217
595.071,933,0.4807
597.579,935.5,0.4813
600.067,938,0.2960
602.554,940.5,0.4304
605.019,943,0.4137
607.517,945.5,0.3728
609.983,948,0.2290
612.452,950.5,0.3387
614.940,953,0.2667
617.466,955.5,0.2172
619.955,958,0.5485
622.458,960.5,0.2402
624.926,963,0.2558
627.397,965.5,0.2211
629.895,968,0.2359
632.360,970.5,0.1594
634.838,973,0.1241
637.349,975.5,-0.0233
639.844,978,0.0732
642.323,980.5,0.0917
644.804,983,0.1827
647.310,985.5,0.2802
649.792,988,0.1565
652.285,990.5,0.2000
654.778,993,0.1413
657.288,995.5,-0.1152
659.743,998,0.0060
662.214,1000.5,-0.1072
664.691,1003,-0.1457
667.215,1005.5,-0.2812
669.693,1008,-0.3440
672.182,1010.5,-0.5221
674.646,1013,-0.4604
677.134,1015.5,-0.4620
679.616,1018,-0.3065
682.117,1020.5,-0.6878
684.584,1023,-0.6762
687.071,1025.5,-0.5674
689.529,1028,-0.6381
692.047,1030.5,-0.6781
694.580,1033,-0.7404
697.016,1035.5,-0.8274
697.486,1036,-0.7236

File: NIST_Wood_MCC_O2-20_60K_R3.csv
Time (s),Temperature (K),HRR (W/g)
57.191,392.5,-0.3018
59.477,395,-0.1620
61.833,397.5,-0.1477
64.164,400,-0.1586
66.525,402.5,-0.3345
68.893,405,-0.4308
71.229,407.5,-0.6159
73.594,410,-0.6136
75.983,412.5,-0.6456
78.366,415,-0.8261
80.767,417.5,-1.0002
83.154,420,-0.9857
85.569,422.5,-0.7789
87.977,425,-0.8712
90.445,427.5,-0.7092
92.862,430,-0.7368
95.272,432.5,-0.5713
97.728,435,-0.5066
100.157,437.5,-0.3240
102.635,440,-0.1735
105.084,442.5,0.0372
107.534,445,0.2950
109.984,447.5,0.5513
112.434,450,0.9403
114.870,452.5,1.3653
117.334,455,1.7243
119.789,457.5,2.1089
122.247,460,2.4907
124.709,462.5,2.8841
127.143,465,3.2821
129.628,467.5,3.6608
132.101,470,4.0920
134.560,472.5,4.4264
136.982,475,5.0552
139.466,477.5,5.5941
141.987,480,6.1022
144.440,482.5,6.6984
146.879,485,7.3215
149.369,487.5,7.8474
151.827,490,8.2627
154.325,492.5,8.6751
156.790,495,8.9824
159.248,497.5,9.3971
161.763,500,9.3377
164.235,502.5,9.5811
166.696,505,9.8199
169.189,507.5,10.2592
171.670,510,10.3886
174.156,512.5,10.6970
176.645,515,11.3159
179.138,517.5,11.8488
181.617,520,12.3580
184.125,522.5,13.2093
186.595,525,13.9691
189.093,527.5,14.9934
191.554,530,16.1377
194.069,532.5,17.2209
196.551,535,18.5857
199.047,537.5,20.0185
201.509,540,21.6058
204.010,542.5,23.2449
206.538,545,24.7230
208.994,547.5,26.3370
211.492,550,28.1367
213.989,552.5,29.9766
216.471,555,31.9148
218.942,557.5,33.9857
221.435,560,36.0617
223.929,562.5,38.3049
226.432,565,40.8363
228.902,567.5,43.1863
231.390,570,45.4170
233.905,572.5,48.4660
236.379,575,51.1331
238.849,577.5,54.2163
241.309,580,57.2661
243.782,582.5,60.8209
246.274,585,64.4126
248.750,587.5,68.6277
251.239,590,73.0019
253.732,592.5,77.7957
256.187,595,82.8396
258.660,597.5,88.4390
261.102,600,94.2612
263.605,602.5,100.6534
266.035,605,107.2334
268.504,607.5,114.4593
270.996,610,122.9858
273.436,612.5,133.0839
275.932,615,145.5092
278.413,617.5,160.1554
280.846,620,175.5465
283.331,622.5,190.1021
285.784,625,201.5841
288.249,627.5,207.6760
290.682,630,205.8356
293.105,632.5,195.3840
295.553,635,176.5980
297.937,637.5,153.5301
300.321,640,129.6323
302.732,642.5,108.4695
305.104,645,91.2777
307.504,647.5,78.3060
309.964,650,68.6713
312.453,652.5,62.0072
315.020,655,56.9715
317.569,657.5,53.0711
320.186,660,49.8486
322.806,662.5,47.4071
325.422,665,45.2387
328.040,667.5,43.3668
330.640,670,42.1419
333.246,672.5,41.0171
335.835,675,40.0519
338.387,677.5,39.3144
340.962,680,38.7914
343.528,682.5,38.3285
346.056,685,37.9012
348.585,687.5,37.7625
351.088,690,37.5823
353.611,692.5,37.7660
356.117,695,38.1153
358.630,697.5,38.7676
361.109,700,39.4662
363.591,702.5,40.3909
366.081,705,42.0779
368.545,707.5,41.0476
371.029,710,38.4674
373.477,712.5,47.7458
375.917,715,56.6786
378.332,717.5,93.3864
380.484,720,133.7292
382.605,722.5,149.2207
384.617,725,153.8316
386.631,727.5,153.2373
388.702,730,153.0191
390.856,732.5,154.3416
393.236,735,150.5647
395.775,737.5,145.7853
398.048,740,134.5768
400.691,742.5,117.8974
403.701,745,95.9474
406.891,747.5,51.8786
410.268,750,7.9372
413.939,752.5,0.2210
417.362,755,-0.4887
420.406,757.5,-0.7186
423.199,760,-0.8020
425.870,762.5,-0.4169
428.414,765,-0.3403
430.918,767.5,-0.3131
433.405,770,-0.2604
435.835,772.5,-0.1887
438.299,775,-0.1799
440.754,777.5,-0.2205
443.184,780,-0.1590
445.635,782.5,-0.1596
448.052,785,-0.1052
450.497,787.5,-0.1101
452.935,790,-0.2550
455.406,792.5,-0.2877
457.897,795,-0.4466
460.350,797.5,-0.4872
462.811,800,-0.6590
465.277,802.5,-0.6887
467.762,805,-0.7342
470.250,807.5,-0.7072
472.727,810,-0.5366
475.217,812.5,-0.5711
477.731,815,-0.9723
480.184,817.5,-0.4605
482.654,820,-0.4505
485.117,822.5,-0.5004
487.607,825,-0.3305
490.091,827.5,-0.2929
492.548,830,-0.2727
495.082,832.5,-0.4136
497.568,835,-0.3875
500.046,837.5,-0.1813
502.557,840,-0.2386
505.023,842.5,-0.1825
507.504,845,-0.2091
509.977,847.5,-0.4475
512.459,850,-0.4552
514.990,852.5,-0.0696
517.463,855,-0.1495
519.989,857.5,0.0221
522.456,860,0.1681
524.936,862.5,0.2359
527.453,865,0.3725
529.946,867.5,0.2594
532.439,870,0.2010
534.944,872.5,0.2523
537.437,875,0.2728
539.939,877.5,0.3112
542.408,880,0.3950
544.901,882.5,0.3863
547.370,885,0.5249
549.866,887.5,0.4188
552.330,890,0.5240
554.866,892.5,0.4433
557.370,895,0.4127
559.857,897.5,0.4535
562.320,900,0.4678
564.816,902.5,0.4423
567.333,905,0.4563
569.794,907.5,0.4197
572.275,910,0.4837
574.775,912.5,0.4691
577.276,915,0.5501
579.728,917.5,0.5150
582.248,920,0.5609
584.739,922.5,0.5652
587.262,925,0.5714
589.719,927.5,0.5294
592.200,930,0.4764
594.703,932.5,0.5381
597.213,935,0.5282
599.685,937.5,0.6017
602.157,940,0.4815
604.645,942.5,0.4746
607.146,945,0.3624
609.632,947.5,0.3385
612.107,950,0.4416
614.611,952.5,0.3991
617.103,955,0.3330
619.591,957.5,0.3912
622.082,960,0.4054
624.560,962.5,0.3418
627.046,965,0.2464
629.494,967.5,0.1200
631.987,970,0.2069
634.499,972.5,0.3342
636.995,975,0.1239
639.461,977.5,0.2456
641.942,980,0.1557
644.432,982.5,0.1250
646.908,985,0.1001
649.390,987.5,0.0961
651.901,990,0.1266
654.402,992.5,0.0832
656.885,995,-0.0536
659.359,997.5,0.0132
661.826,1000,-0.0819
664.316,1002.5,-0.0843
666.789,1005,-0.0851
669.253,1007.5,-0.1641
671.741,1010,-0.3462
674.230,1012.5,-0.2238
676.701,1015,-0.4899
679.176,1017.5,-0.5214
681.651,1020,-0.6333
684.121,1022.5,-0.6360
686.619,1025,-0.6427
689.118,1027.5,-0.6923
691.595,1030,-0.9402
694.065,1032.5,-0.9473
696.591,1035,-1.0026
697.557,1036,-0.9487