Folder: matl-db/Wood/Calibration_Data/TEMPLATE-INSTITUTE-X (part 3)

File: INSTITUTE-X_MCC_N2_60K_r2.csv
Time (s),Temperature (K),HRR (W/g),m2
0,373.8,-0.09,
1.5,375.04,0.01,
3,376.31,-0.01,
4.5,377.64,-0.12,
6,378.97,-0.17,
7.5,380.32,-0.22,
9,381.63,-0.20,
10.5,383.07,-0.18,
12,384.49,-0.12,
13.5,385.92,-0.06,
15,387.35,0.01,
16.5,388.79,0.13,
18,390.26,0.24,
19.5,391.74,0.29,
21,393.25,0.40,
22.5,394.75,0.43,
24,396.26,0.52,
25.5,397.82,0.56,
27,399.37,0.67,
28.5,400.88,0.80,
30,402.45,0.94,
31.5,404.03,1.09,
33,405.64,1.23,
34.5,407.27,1.38,
36,408.82,1.55,
37.5,410.42,1.69,
39,412.04,1.84,
40.5,413.64,1.95,
42,415.3,2.09,
43.5,416.98,2.22,
45,418.57,2.39,
46.5,420.18,2.61,
48,421.82,2.87,
49.5,423.47,3.13,
51,425.11,3.39,
52.5,426.72,3.67,
54,428.36,4.07,
55.5,430.05,4.46,
57,431.68,4.95,
58.5,433.33,5.43,
60,434.97,6.04,
61.5,436.62,6.68,
63,438.24,7.46,
64.5,439.88,8.30,
66,441.54,9.18,
67.5,443.16,10.12,
69,444.79,11.12,
70.5,446.46,12.16,
72,448.11,13.19,
73.5,449.75,14.23,
75,451.36,15.20,
76.5,452.98,16.12,
78,454.59,16.93,
79.5,456.19,17.65,
81,457.82,18.24,
82.5,459.44,18.69,
84,461.05,19.03,
85.5,462.64,19.20,
87,464.27,19.22,
88.5,465.85,19.06,
90,467.45,18.73,
91.5,469.06,18.28,
93,470.64,17.73,
94.5,472.2,17.21,
96,473.78,16.67,
97.5,475.4,16.23,
99,476.96,15.83,
100.5,478.54,15.54,
102,480.15,15.36,
103.5,481.69,15.30,
105,483.27,15.32,
106.5,484.87,15.43,
108,486.42,15.53,
109.5,487.95,15.61,
111,489.58,15.61,
112.5,491.15,15.45,
114,492.66,15.10,
115.5,494.22,14.49,
117,495.74,13.68,
118.5,497.29,12.63,
120,498.78,11.45,
121.5,500.33,10.08,
123,501.85,8.69,
124.5,503.35,7.29,
126,504.9,6.03,
127.5,506.43,4.97,
129,507.96,4.14,
130.5,509.43,3.46,
132,510.92,2.91,
133.5,512.39,2.53,
135,513.9,2.29,
136.5,515.37,2.16,
138,516.89,2.08,
139.5,518.34,2.09,
141,519.85,2.11,
142.5,521.35,2.13,
144,522.84,2.17,
145.5,524.3,2.26,
147,525.79,2.42,
148.5,527.28,2.56,
150,528.73,2.73,
151.5,530.23,2.88,
153,531.72,3.09,
154.5,533.21,3.34,
156,534.67,3.65,
157.5,536.14,3.95,
159,537.6,4.30,
160.5,539.06,4.69,
162,540.52,5.09,
163.5,542.02,5.53,
165,543.51,5.97,
166.5,544.97,6.46,
168,546.48,6.95,
169.5,547.88,7.46,
171,549.34,8.06,
172.5,550.82,8.74,
174,552.37,9.54,
175.5,553.81,10.43,
177,555.25,11.34,
178.5,556.71,12.36,
180,558.22,13.47,
181.5,559.67,14.63,
183,561.13,15.78,
184.5,562.61,16.92,
186,564.12,18.08,
187.5,565.54,19.23,
189,567,20.42,
190.5,568.5,21.63,
192,569.96,22.86,
193.5,571.39,24.04,
195,572.94,25.17,
196.5,574.38,26.25,
198,575.88,27.23,
199.5,577.34,28.09,
201,578.81,28.89,
202.5,580.24,29.71,
204,581.76,30.55,
205.5,583.23,31.43,
207,584.71,32.35,
208.5,586.18,33.41,
210,587.66,34.55,
211.5,589.14,35.88,
213,590.61,37.42,
214.5,592.12,39.23,
216,593.55,41.27,
217.5,595.06,43.60,
219,596.54,46.25,
220.5,598.06,49.26,
222,599.53,52.62,
223.5,601.03,56.37,
225,602.48,60.53,
226.5,604.05,65.06,
228,605.5,70.00,
229.5,606.96,75.31,
231,608.5,81.08,
232.5,609.92,87.20,
234,611.48,93.76,
235.5,613.01,100.78,
237,614.53,108.20,
238.5,616.01,116.09,
240,617.5,124.31,
241.5,618.99,132.89,
243,620.46,141.71,
244.5,621.97,150.75,
246,623.48,159.96,
247.5,624.96,169.29,
249,626.44,178.72,
250.5,627.91,188.15,
252,629.43,197.52,
253.5,630.91,206.96,
255,632.39,216.42,
256.5,633.82,225.90,
258,635.29,235.16,
259.5,636.75,244.40,
261,638.28,253.76,
262.5,639.72,263.43,
264,641.2,273.44,
265.5,642.65,283.61,
267,644.16,293.47,
268.5,645.61,302.65,
270,647.07,310.84,
271.5,648.53,317.92,
273,650.03,324.47,
274.5,651.54,330.45,
276,653.01,335.37,
277.5,654.51,338.45,
279,655.95,339.88,
280.5,657.43,340.05,
282,658.9,338.70,
283.5,660.39,335.45,
285,661.89,330.19,
286.5,663.36,323.52,
288,664.9,315.88,
289.5,666.4,307.38,
291,667.88,297.84,
292.5,669.39,287.23,
294,670.92,275.94,
295.5,672.44,264.11,
297,673.94,251.98,
298.5,675.44,239.76,
300,676.99,227.53,
301.5,678.58,215.19,
303,680.11,202.55,
304.5,681.68,189.34,
306,683.24,175.65,
307.5,684.79,161.70,
309,686.37,148.04,
310.5,687.93,134.87,
312,689.51,122.39,
313.5,691.08,110.70,
315,692.61,99.78,
316.5,694.26,89.74,
318,695.81,80.44,
319.5,697.38,71.90,
321,698.93,64.03,
322.5,700.47,56.81,
324,702.08,50.27,
325.5,703.62,44.38,
327,705.18,39.14,
328.5,706.74,34.48,
330,708.28,30.30,
331.5,709.81,26.50,
333,711.38,23.09,
334.5,712.86,20.10,
336,714.48,17.50,
337.5,716,15.16,
339,717.55,13.12,
340.5,719.05,11.29,
342,720.57,9.59,
343.5,722.06,7.86,
345,723.6,6.18,
346.5,725.1,4.61,
348,726.61,3.28,
349.5,728.08,2.19,
351,729.6,1.42,
352.5,731.06,0.87,
354,732.53,0.49,
355.5,734.03,0.26,
357,735.55,0.15,
358.5,737,0.11,
360,738.42,0.12,
361.5,739.97,0.06,
363,741.4,0.03,
364.5,742.88,-0.03,
366,744.33,-0.07,
367.5,745.81,-0.09,
369,747.27,-0.09,
370.5,748.73,-0.07,
372,750.2,-0.10,
373.5,751.7,-0.15,
375,753.11,-0.16,
376.5,754.57,-0.07,
378,756,0.02,
379.5,757.46,0.08,
381,758.91,0.06,
382.5,760.38,-0.01,
384,761.82,-0.12,
385.5,763.32,-0.21,
387,764.77,-0.21,
388.5,766.27,-0.14,
390,767.73,-0.07,
391.5,769.2,-0.04,
393,770.65,-0.08,
394.5,772.14,-0.13,
396,773.63,-0.16,
397.5,775.13,-0.16,
399,776.6,-0.12,
400.5,778.08,-0.10,
402,779.55,-0.09,
403.5,781.02,-0.10,
405,782.51,-0.11,
406.5,783.98,-0.09,
408,785.44,-0.08,
409.5,786.92,-0.07,
411,788.44,-0.10,
412.5,789.88,-0.15,
414,791.36,-0.18,
415.5,792.88,-0.18,
417,794.37,-0.17,
418.5,795.84,-0.14,
420,797.34,-0.10,
421.5,798.84,-0.08,
423,800.38,-0.02,
424.5,801.87,-0.01,
426,803.38,0.02,
427.5,804.88,-0.05,
429,806.39,-0.02,
430.5,807.9,0.00,
432,809.42,0.06,
433.5,810.95,0.10,
435,812.41,0.11,
436.5,813.96,0.09,
438,815.49,0.07,
439.5,817.02,0.05,
441,818.52,0.03,
442.5,820.06,-0.01,
444,821.57,-0.07,
445.5,823.07,-0.07,
447,824.56,-0.07,

File: INSTITUTE-X_TGA_N2_10K_r1.csv
time (s),Temperature (K),Mass (mg)
0,325,4.975
20,327,4.975
36.4,329,4.974
51.3,331,4.974
65.4,333,4.975
78.9,335,4.975
92.4,337,4.974
105.5,339,4.974
118.5,341,4.975
131.4,343,4.974
144.2,345,4.973
156.9,347,4.974
169.5,349,4.974
182,351,4.974
194.4,353,4.974
206.7,355,4.974
219,357,4.974
231.2,359,4.974
243.4,361,4.974
255.4,363,4.973
267.4,365,4.972
279.4,367,4.972
291.3,369,4.973
303.2,371,4.973
315.1,373,4.973
326.9,375,4.974
338.7,377,4.973
350.5,379,4.973
362.2,381,4.972
374,383,4.970
385.7,385,4.970
397.4,387,4.971
409.1,389,4.972
420.9,391,4.971
432.6,393,4.969
444.3,395,4.969
455.9,397,4.970
467.6,399,4.969
479.3,401,4.969
490.9,403,4.968
502.6,405,4.967
514.1,407,4.966
525.9,409,4.965
537.4,411,4.964
549.1,413,4.964
560.7,415,4.964
572.3,417,4.963
583.9,419,4.962
595.5,421,4.962
607,423,4.961
618.6,425,4.960
630.1,427,4.959
641.6,429,4.958
653.2,431,4.956
664.7,433,4.954
676.3,435,4.951
687.8,437,4.949
699.3,439,4.948
710.9,441,4.946
722.4,443,4.942
733.9,445,4.940
745.4,447,4.937
757,449,4.933
768.5,451,4.929
780,453,4.926
791.5,455,4.922
803,457,4.918
814.5,459,4.912
826,461,4.907
837.4,463,4.901
848.9,465,4.897
860.4,467,4.891
871.9,469,4.886
883.4,471,4.882
894.9,473,4.877
906.3,475,4.873
917.8,477,4.867
929.3,479,4.863
940.8,481,4.858
952.3,483,4.853
963.8,485,4.847
975.2,487,4.842
986.7,489,4.838
998.1,491,4.834
1009.6,493,4.832
1021,495,4.830
1032.5,497,4.827
1043.9,499,4.824
1055.3,501,4.823
1066.7,503,4.822
1078.2,505,4.820
1089.6,507,4.819
1101.1,509,4.819
1112.6,511,4.819
1124,513,4.817
1135.5,515,4.815
1146.9,517,4.813
1158.4,519,4.812
1169.9,521,4.812
1181.3,523,4.811
1192.8,525,4.810
1204.2,527,4.807
1215.6,529,4.805
1227.1,531,4.803
1238.6,533,4.802
1250,535,4.801
1261.5,537,4.797
1273,539,4.793
1284.5,541,4.790
1296,543,4.787
1307.4,545,4.784
1319,547,4.778
1330.4,549,4.773
1341.9,551,4.768
1353.4,553,4.762
1364.8,555,4.757
1376.3,557,4.750
1387.9,559,4.743
1399.4,561,4.734
1410.9,563,4.725
1422.4,565,4.716
1433.9,567,4.707
1445.4,569,4.698
1456.9,571,4.688
1468.4,573,4.677
1480,575,4.664
1491.5,577,4.651
1503,579,4.638
1514.5,581,4.624
1526,583,4.608
1537.4,585,4.592
1548.9,587,4.575
1560.4,589,4.558
1571.9,591,4.536
1583.5,593,4.511
1595.1,595,4.484
1606.7,597,4.454
1618.3,599,4.419
1629.9,601,4.381
1641.6,603,4.338
1653.2,605,4.288
1664.9,607,4.232
1676.6,609,4.170
1688.2,611,4.100
1699.9,613,4.022
1711.7,615,3.935
1723.3,617,3.838
1735,619,3.731
1746.8,621,3.615
1758.6,623,3.489
1770.4,625,3.353
1782.2,627,3.206
1793.9,629,3.051
1805.6,631,2.889
1817.4,633,2.721
1829.1,635,2.548
1840.9,637,2.372
1852.6,639,2.195
1864.3,641,2.020
1876,643,1.850
1887.6,645,1.683
1899.3,647,1.518
1910.9,649,1.361
1922.5,651,1.213
1934.1,653,1.074
1945.7,655,0.945
1957.3,657,0.826
1968.9,659,0.718
1980.4,661,0.620
1991.9,663,0.533
2003.5,665,0.456
2015.1,667,0.389
2026.8,669,0.331
2038.4,671,0.282
2050,673,0.241
2061.6,675,0.204
2073.3,677,0.174
2084.9,679,0.151
2096.6,681,0.132
2108.3,683,0.115
2119.9,685,0.101
2131.5,687,0.091
2143.2,689,0.082
2154.9,691,0.075
2166.6,693,0.071
2178.3,695,0.066
2190,697,0.062
2201.9,699,0.060
2213.7,701,0.058
2225.5,703,0.056
2237.3,705,0.055
2249.2,707,0.054
2261.1,709,0.054
2272.9,711,0.055
2284.8,713,0.054
2296.6,715,0.053
2308.5,717,0.053
2320.3,719,0.051
2332.2,721,0.051
2344,723,0.051
2355.8,725,0.052
2367.6,727,0.053
2379.4,729,0.053
2391.3,731,0.052
2403.1,733,0.052
2414.9,735,0.052
2426.8,737,0.052
2438.6,739,0.051
2450.4,741,0.051
2462.2,743,0.052
2474.1,745,0.051
2485.9,747,0.050
2497.7,749,0.050
2509.5,751,0.051
2521.4,753,0.052
2533.2,755,0.051
2545,757,0.050
2556.8,759,0.050
2568.6,761,0.051
2580.5,763,0.051
2592.4,765,0.050
2604.3,767,0.049
2616.2,769,0.050
2628,771,0.051
2639.9,773,0.050
2651.8,775,0.048
2663.8,777,0.047
2675.7,779,0.048
2687.6,781,0.049
2699.5,783,0.050
2711.4,785,0.049
2723.4,787,0.049
2735.3,789,0.049
2747.2,791,0.049
2759,793,0.049
2770.9,795,0.049
2782.8,797,0.049
2794.8,799,0.049
2806.6,801,0.048
2818.5,803,0.048
2830.4,805,0.048
2842.3,807,0.049
2854.2,809,0.049
2866.1,811,0.050
2878.1,813,0.049
2890,815,0.049
2902,817,0.048
2914.1,819,0.049
2926.1,821,0.048
2932.1,822,0.048

File: INSTITUTE-X_TGA_N2_10K_r2.csv
time (s),Temperature (K),Mass (mg)
0,324,5.000
20,326,5.000
36.4,328,4.999
51.3,330,4.999
65.4,332,5.000
78.9,334,5.000
92.4,336,4.999
105.5,338,4.999
118.5,340,5.000
131.4,342,4.999
144.2,344,4.998
156.9,346,4.999
169.5,348,4.999
182,350,4.999
194.4,352,4.999
206.7,354,4.999
219,356,4.999
231.2,358,4.999
243.4,360,4.999
255.4,362,4.998
267.4,364,4.997
279.4,366,4.997
291.3,368,4.998
303.2,370,4.998
315.1,372,4.998
326.9,374,4.999
338.7,376,4.998
350.5,378,4.998
362.2,380,4.997
374,382,4.995
385.7,384,4.995
397.4,386,4.996
409.1,388,4.997
420.9,390,4.996
432.6,392,4.994
444.3,394,4.994
455.9,396,4.995
467.6,398,4.994
479.3,400,4.994
490.9,402,4.993
502.6,404,4.992
514.1,406,4.991
525.9,408,4.990
537.4,410,4.989
549.1,412,4.989
560.7,414,4.989
572.3,416,4.988
583.9,418,4.987
595.5,420,4.987
607,422,4.986
618.6,424,4.985
630.1,426,4.984
641.6,428,4.983
653.2,430,4.981
664.7,432,4.979
676.3,434,4.976
687.8,436,4.974
699.3,438,4.973
710.9,440,4.971
722.4,442,4.967
733.9,444,4.965
745.4,446,4.962
757,448,4.958
768.5,450,4.954
780,452,4.951
791.5,454,4.947
803,456,4.943
814.5,458,4.937
826,460,4.932
837.4,462,4.926
848.9,464,4.923
860.4,466,4.917
871.9,468,4.912
883.4,470,4.908
894.9,472,4.903
906.3,474,4.899
917.8,476,4.893
929.3,478,4.889
940.8,480,4.884
952.3,482,4.879
963.8,484,4.873
975.2,486,4.868
986.7,488,4.864
998.1,490,4.860
1009.6,492,4.858
1021,494,4.856
1032.5,496,4.853
1043.9,498,4.850
1055.3,500,4.849
1066.7,502,4.848
1078.2,504,4.846
1089.6,506,4.845
1101.1,508,4.845
1112.6,510,4.845
1124,512,4.843
1135.5,514,4.841
1146.9,516,4.839
1158.4,518,4.838
1169.9,520,4.838
1181.3,522,4.837
1192.8,524,4.836
1204.2,526,4.833
1215.6,528,4.831
1227.1,530,4.829
1238.6,532,4.828
1250,534,4.827
1261.5,536,4.823
1273,538,4.819
1284.5,540,4.816
1296,542,4.813
1307.4,544,4.810
1319,546,4.804
1330.4,548,4.799
1341.9,550,4.794
1353.4,552,4.788
1364.8,554,4.783
1376.3,556,4.776
1387.9,558,4.769
1399.4,560,4.760
1410.9,562,4.751
1422.4,564,4.742
1433.9,566,4.733
1445.4,568,4.725
1456.9,570,4.715
1468.4,572,4.704
1480,574,4.691
1491.5,576,4.678
1503,578,4.665
1514.5,580,4.651
1526,582,4.635
1537.4,584,4.619
1548.9,586,4.602
1560.4,588,4.585
1571.9,590,4.563
1583.5,592,4.538
1595.1,594,4.512
1606.7,596,4.482
1618.3,598,4.447
1629.9,600,4.409
1641.6,602,4.366
1653.2,604,4.317
1664.9,606,4.261
1676.6,608,4.199
1688.2,610,4.130
1699.9,612,4.052
1711.7,614,3.965
1723.3,616,3.869
1735,618,3.762
1746.8,620,3.647
1758.6,622,3.522
1770.4,624,3.386
1782.2,626,3.240
1793.9,628,3.086
1805.6,630,2.925
1817.4,632,2.757
1829.1,634,2.585
1840.9,636,2.410
1852.6,638,2.234
1864.3,640,2.060
1876,642,1.891
1887.6,644,1.725
1899.3,646,1.560
1910.9,648,1.404
1922.5,650,1.257
1934.1,652,1.119
1945.7,654,0.990
1957.3,656,0.872
1968.9,658,0.764
1980.4,660,0.667
1991.9,662,0.580
2003.5,664,0.504
2015.1,666,0.437
2026.8,668,0.379
2038.4,670,0.331
2050,672,0.290
2061.6,674,0.253
2073.3,676,0.223
2084.9,678,0.200
2096.6,680,0.181
2108.3,682,0.164
2119.9,684,0.150
2131.5,686,0.141
2143.2,688,0.132
2154.9,690,0.125
2166.6,692,0.121
2178.3,694,0.116
2190,696,0.112
2201.9,698,0.110
2213.7,700,0.108
2225.5,702,0.106
2237.3,704,0.105
2249.2,706,0.104
2261.1,708,0.104
2272.9,710,0.105
2284.8,712,0.104
2296.6,714,0.103
2308.5,716,0.103
2320.3,718,0.101
2332.2,720,0.101
2344,722,0.101
2355.8,724,0.102
2367.6,726,0.103
2379.4,728,0.103
2391.3,730,0.102
2403.1,732,0.102
2414.9,734,0.102
2426.8,736,0.102
2438.6,738,0.101
2450.4,740,0.101
2462.2,742,0.102
2474.1,744,0.101
2485.9,746,0.100
2497.7,748,0.100
2509.5,750,0.101
2521.4,752,0.102
2533.2,754,0.101
2545,756,0.100
2556.8,758,0.100
2568.6,760,0.101
2580.5,762,0.101
2592.4,764,0.100
2604.3,766,0.099
2616.2,768,0.100
2628,770,0.101
2639.9,772,0.100
2651.8,774,0.098
2663.8,776,0.097
2675.7,778,0.098
2687.6,780,0.099
2699.5,782,0.100
2711.4,784,0.099
2723.4,786,0.099
2735.3,788,0.099
2747.2,790,0.099
2759,792,0.099
2770.9,794,0.099
2782.8,796,0.099
2794.8,798,0.099
2806.6,800,0.098
2818.5,802,0.098
2830.4,804,0.098
2842.3,806,0.099
2854.2,808,0.099
2866.1,810,0.100
2878.1,812,0.099
2890,814,0.099
2902,816,0.098
2914.1,818,0.099
2926.1,820,0.098
2932.1,821,0.098

File: INSTITUTE-X_TGA_N2_20K_r1.csv
time (s),Temperature (K),Mass (mg)
0,325,4.947
11.9,327,4.947
21.7,329,4.946
30.4,331,4.946
38.4,333,4.947
45.9,335,4.946
53.1,337,4.946
60,339,4.946
66.8,341,4.946
73.5,343,4.946
80.1,345,4.946
86.6,347,4.945
93,349,4.946
99.4,351,4.946
105.8,353,4.946
112.1,355,4.945
118.4,357,4.946
124.7,359,4.945
130.9,361,4.945
137.1,363,4.944
143.3,365,4.943
149.4,367,4.943
155.5,369,4.943
161.6,371,4.943
167.7,373,4.942
173.8,375,4.942
179.8,377,4.942
185.8,379,4.942
191.9,381,4.942
197.8,383,4.942
203.8,385,4.941
209.8,387,4.940
215.8,389,4.940
221.7,391,4.940
227.7,393,4.940
233.6,395,4.939
239.5,397,4.939
245.3,399,4.939
251.2,401,4.939
257.1,403,4.939
262.9,405,4.938
268.7,407,4.938
274.5,409,4.937
280.3,411,4.937
286.1,413,4.937
291.9,415,4.937
297.6,417,4.935
303.4,419,4.934
309.1,421,4.933
314.8,423,4.933
320.5,425,4.932
326.3,427,4.931
332,429,4.930
337.7,431,4.929
343.4,433,4.928
349,435,4.926
354.7,437,4.924
360.4,439,4.923
366.1,441,4.921
371.8,443,4.919
377.4,445,4.917
383.1,447,4.915
388.8,449,4.913
394.5,451,4.910
400.1,453,4.907
405.8,455,4.903
411.4,457,4.899
417.1,459,4.894
422.7,461,4.889
428.4,463,4.883
434,465,4.878
439.6,467,4.872
445.2,469,4.868
450.8,471,4.862
456.4,473,4.857
462,475,4.851
467.6,477,4.846
473.2,479,4.841
478.8,481,4.837
484.4,483,4.833
490,485,4.828
495.6,487,4.825
501.2,489,4.820
506.7,491,4.815
512.3,493,4.809
517.9,495,4.805
523.5,497,4.800
529.1,499,4.796
534.7,501,4.792
540.3,503,4.789
545.9,505,4.786
551.4,507,4.784
557,509,4.782
562.6,511,4.780
568.2,513,4.779
573.7,515,4.778
579.3,517,4.776
584.9,519,4.775
590.5,521,4.775
596,523,4.774
601.6,525,4.773
607.2,527,4.772
612.8,529,4.771
618.3,531,4.769
623.9,533,4.767
629.5,535,4.766
635.1,537,4.764
640.7,539,4.763
646.3,541,4.761
651.8,543,4.759
657.4,545,4.757
663,547,4.756
668.6,549,4.753
674.2,551,4.749
679.8,553,4.745
685.4,555,4.742
691,557,4.738
696.6,559,4.733
702.2,561,4.728
707.8,563,4.723
713.4,565,4.717
719,567,4.710
724.6,569,4.704
730.2,571,4.697
735.8,573,4.689
741.4,575,4.680
747,577,4.671
752.6,579,4.661
758.2,581,4.651
763.9,583,4.640
769.5,585,4.629
775.1,587,4.617
780.7,589,4.605
786.4,591,4.591
792,593,4.575
797.6,595,4.559
803.2,597,4.544
808.9,599,4.526
814.5,601,4.505
820.2,603,4.481
825.8,605,4.455
831.5,607,4.425
837.1,609,4.391
842.8,611,4.353
848.5,613,4.311
854.1,615,4.263
859.8,617,4.209
865.5,619,4.150
871.2,621,4.083
876.9,623,4.008
882.6,625,3.923
888.4,627,3.830
894.1,629,3.728
899.9,631,3.618
905.6,633,3.498
911.4,635,3.368
917.1,637,3.228
922.9,639,3.079
928.7,641,2.924
934.5,643,2.760
940.2,645,2.592
946,647,2.421
951.7,649,2.248
957.5,651,2.075
963.2,653,1.901
969,655,1.728
974.7,657,1.559
980.4,659,1.395
986.1,661,1.240
991.8,663,1.093
997.5,665,0.956
1003.1,667,0.830
1008.8,669,0.715
1014.4,671,0.612
1020.1,673,0.520
1025.7,675,0.438
1031.3,677,0.366
1037,679,0.302
1042.6,681,0.247
1048.3,683,0.201
1053.9,685,0.162
1059.6,687,0.129
1065.2,689,0.102
1070.9,691,0.080
1076.5,693,0.062
1082.2,695,0.048
1087.9,697,0.035
1093.7,699,0.026
1099.4,701,0.018
1105.1,703,0.012
1110.9,705,0.008
1116.6,707,0.004
1122.4,709,0.002
1128.1,711,0.000
1133.9,713,-0.001
1139.6,715,-0.003
1145.4,717,-0.005
1151.1,719,-0.006
1156.9,721,-0.006
1162.7,723,-0.007
1168.5,725,-0.008
1174.3,727,-0.009
1180.1,729,-0.008
1185.9,731,-0.007
1191.8,733,-0.008
1197.6,735,-0.008
1203.4,737,-0.009
1209.2,739,-0.009
1215,741,-0.010
1220.9,743,-0.010
1226.7,745,-0.010
1232.5,747,-0.010
1238.3,749,-0.011
1244.2,751,-0.011
1250,753,-0.011
1255.8,755,-0.012
1261.7,757,-0.012
1267.5,759,-0.011
1273.4,761,-0.011
1279.2,763,-0.010
1285.1,765,-0.010
1290.9,767,-0.010
1296.8,769,-0.010
1302.7,771,-0.010
1308.5,773,-0.010
1314.4,775,-0.011
1320.3,777,-0.010
1326.1,779,-0.010
1332,781,-0.010
1337.9,783,-0.010
1343.7,785,-0.010
1349.6,787,-0.010
1355.5,789,-0.010
1361.4,791,-0.011
1367.2,793,-0.011
1373.1,795,-0.011
1379,797,-0.011
1384.9,799,-0.010
1390.8,801,-0.010
1396.7,803,-0.010
1402.6,805,-0.011
1408.4,807,-0.011
1414.3,809,-0.011
1420.2,811,-0.011
1426.1,813,-0.011
1432,815,-0.011
1437.9,817,-0.011
1439.4,817.5,-0.011

File: INSTITUTE-X_TGA_O2-20_10K_R1.csv
Time (s),Temperature (K),Mass (mg)
601.2,350.0,5.479
613.2,352.1,5.481
625.2,354.1,5.479
637.2,356.1,5.479
649.2,358.1,5.479
661.2,360.1,5.479
673.2,362.0,5.479
685.2,364.0,5.481
697.2,366.0,5.482
709.2,368.0,5.482
721.2,370.0,5.482
733.2,372.0,5.483
745.2,373.9,5.482
757.2,375.9,5.483
769.2,377.9,5.483
781.2,379.9,5.482
793.2,381.9,5.483
805.2,383.9,5.482
817.2,385.8,5.475
829.2,387.8,5.483
841.2,389.8,5.496
853.2,391.8,5.484
865.2,393.8,5.484
877.2,395.8,5.485
889.2,397.8,5.485
901.2,399.9,5.484
913.2,401.9,5.485
925.2,403.9,5.484
937.2,405.9,5.484
949.2,407.9,5.483
961.2,409.9,5.484
973.2,412.0,5.479
985.2,414.0,5.477
997.2,416.0,5.477
1009.2,418.0,5.477
1021.2,420.0,5.477
1033.2,422.0,5.476
1045.2,424.0,5.474
1057.2,426.1,5.472
1069.2,428.1,5.472
1081.2,430.1,5.472
1093.2,432.1,5.472
1105.2,434.1,5.471
1117.2,436.1,5.471
1129.2,438.1,5.467
1141.2,440.1,5.468
1153.2,442.1,5.467
1165.2,444.1,5.466
1177.2,446.1,5.467
1189.2,448.1,5.466
1201.2,450.0,5.464
1213.2,452.0,5.461
1225.2,454.0,5.462
1237.2,456.0,5.449
1249.2,458.0,5.459
1261.2,460.0,5.456
1273.2,462.0,5.457
1285.2,464.0,5.455
1297.2,466.0,5.456
1309.2,468.0,5.452
1321.2,470.0,5.456
1333.2,472.0,5.452
1345.2,474.0,5.451
1357.2,476.0,5.451
1369.2,478.0,5.449
1381.2,480.0,5.450
1393.2,482.0,5.449
1405.2,484.0,5.449
1417.2,486.0,5.449
1429.2,488.0,5.446
1441.2,490.0,5.446
1453.2,492.0,5.448
1465.2,494.0,5.452
1477.2,496.0,5.448
1489.2,498.0,5.443
1501.2,499.9,5.442
1513.2,501.9,5.439
1525.2,503.9,5.442
1537.2,505.9,5.441
1549.2,507.9,5.441
1561.2,509.9,5.439
1573.2,511.9,5.439
1585.2,513.9,5.438
1597.2,515.9,5.436
1609.2,517.9,5.438
1621.2,519.9,5.436
1633.2,521.9,5.435
1645.2,523.9,5.434
1657.2,525.9,5.432
1669.2,527.9,5.433
1681.2,529.9,5.430
1693.2,531.9,5.426
1705.2,533.9,5.426
1717.2,535.9,5.423
1729.2,537.9,5.419
1741.2,539.9,5.417
1753.2,541.9,5.410
1765.2,543.9,5.407
1777.2,545.9,5.397
1789.2,547.9,5.389
1801.2,549.9,5.377
1813.2,552.0,5.364
1825.2,554.0,5.347
1837.2,556.0,5.327
1849.2,558.0,5.305
1861.2,560.0,5.276
1873.2,562.0,5.245
1885.2,564.0,5.209
1897.2,566.0,5.163
1909.2,568.0,5.114
1921.2,570.0,5.056
1933.2,572.0,4.994
1945.2,574.0,4.921
1957.2,576.0,4.841
1969.2,578.0,4.752
1981.2,580.0,4.655
1993.2,582.0,4.549
2005.2,584.0,4.442
2017.2,586.0,4.327
2029.2,588.0,4.209
2041.2,590.0,4.092
2053.2,592.0,3.974
2065.2,594.1,3.857
2077.2,596.1,3.743
2089.2,598.1,3.629
2101.2,600.1,3.518
2113.2,602.1,3.411
2125.2,604.1,3.305
2137.2,606.1,3.204
2149.2,608.1,3.102
2161.2,610.1,3.009
2173.2,612.1,2.917
2185.2,614.0,2.824
2197.2,616.0,2.735
2209.2,618.0,2.644
2221.2,620.0,2.554
2233.2,622.0,2.460
2245.2,624.0,2.365
2257.2,626.1,2.265
2269.2,628.1,2.173
2281.2,630.1,2.073
2293.2,632.2,1.972
2305.2,634.3,1.871
2317.2,636.3,1.759
2329.2,638.4,1.656
2341.2,640.5,1.546
2353.2,642.5,1.436
2365.2,644.5,1.327
2377.2,646.5,1.220
2389.2,648.4,1.112
2401.2,650.3,1.012
2413.2,652.2,0.918
2425.2,654.1,0.819
2437.2,655.9,0.730
2449.2,657.7,0.646
2461.2,659.6,0.572
2473.2,661.4,0.504
2485.2,663.3,0.441
2497.2,665.2,0.390
2509.2,667.1,0.345
2521.2,669.0,0.307
2533.2,671.0,0.275
2545.2,673.0,0.246
2557.2,675.0,0.222
2569.2,677.0,0.204
2581.2,679.1,0.189
2593.2,681.2,0.176
2605.2,683.3,0.164
2617.2,685.4,0.155
2629.2,687.5,0.146
2641.2,689.6,0.141
2653.2,691.6,0.136
2665.2,693.7,0.132
2677.2,695.8,0.128
2689.2,697.8,0.126
2701.2,699.8,0.123
2713.2,701.9,0.123
2725.2,703.9,0.122
2737.2,705.9,0.121
2749.2,707.9,0.124
2761.2,709.9,0.124
2773.2,711.8,0.122
2785.2,713.8,0.120
2797.2,715.8,0.122
2809.2,717.8,0.122
2821.2,719.8,0.120
2833.2,721.8,0.119
2845.2,723.8,0.121
2857.2,725.8,0.120
2869.2,727.8,0.121
2881.2,729.8,0.121
2893.2,731.8,0.121
2905.2,733.8,0.119
2917.2,735.8,0.119
2929.2,737.8,0.118
2941.2,739.8,0.117
2953.2,741.8,0.119
2965.2,743.8,0.118
2977.2,745.8,0.118
2989.2,747.8,0.119
3001.2,749.8,0.118
3013.2,751.8,0.117
3025.2,753.8,0.117
3037.2,755.8,0.118
3049.2,757.8,0.117
3061.2,759.8,0.116
3073.2,761.8,0.118
3085.2,763.8,0.119
3097.2,765.8,0.119
3109.2,767.8,0.118
3121.2,769.7,0.118
3133.2,771.7,0.117
3145.2,773.7,0.118
3157.2,775.7,0.117
3169.2,777.7,0.117
3181.2,779.7,0.119
3193.2,781.7,0.117
3205.2,783.7,0.118
3217.2,785.7,0.118
3229.2,787.8,0.118
3241.2,789.8,0.119
3253.2,791.9,0.118
3265.2,793.9,0.118
3277.2,796.0,0.116
3289.2,798.0,0.118
3301.2,800.0,0.118
3313.2,802.0,0.118
3325.2,804.0,0.116
3337.2,806.0,0.118
3349.2,808.0,0.116
3361.2,809.9,0.118
3373.2,811.9,0.117
3385.2,813.9,0.116
3397.2,815.8,0.119
3409.2,817.8,0.117
3421.2,819.8,0.117
3433.2,821.8,0.117
3436.2,822.3,0.117