Folder: matl-db/Wood/Calibration_Data/TEMPLATE-INSTITUTE-X

Note: Wood/Calibration_Data/TEMPLATE-INSTITUTE-X/README.md
# Template README File for Institute X

### Experimental Conditions: TGA/DSC
A [Brand/Model Number]was used to simultaneously conduct Thermogravimetric Analysis (TGA) and Differential Scanning Calorimetry (DSC) experiments. 
*Reference: More information is available at: [J. Smith, et al., Fire Safety Journal, 2020]

* Heating Rate: 10 K/min
* Temperature program
  - Initial Temperature: 300 K
  - Initial Isotherm: 1500 s (hold at 300 K for 1500 s)  
  - Maximum Temperature: 1000 K
  - Final Isotherm: None
* Sample mass: 5 mg +/- 0.1 mg
* Sample geometry: Powdered
* Calibration type: Before each experiment, a baseline test was performed using an empty crucible. Temperature/Heat flow calibration were performed every 12 months (or 100 tests, whichever is sooner) using a set of 6 reference materials with melting temperatures between 60-820 C
* Crucible
  - Type: Pt-Rh
  - Volume: 85 µL
  - Diameter: 6.8 mm
  - Mass: None
  - Lid: True
  - Note: Pt-Rh crucibles (outer diameter 6.8mm / volume 85 µL) with a lid ( a small hole in the lid allowed for gaseous decomposition products to escape).
* Carrier Gas
  - Type: Nitrogen
  - Flow rate: 50 ml/min
  - Note: Ultra High Purity (UHP) Nitrogen
* Instrument
  - Type: Brand/Model
  - Note: None
| Test Name | O2 volume % |  Initial Sample Mass (mg) | 
| --------- | :---------: | :------------------------: |
|INSTITUTE-X\_STA\_N2\_10K\_1 | 0 | 4.947|  
|INSTITUTE-X\_STA\_N2\_10K\_2 | 0 | 5.000|  
|INSTITUTE-X\_STA\_N2\_10K\_3 | 0 | 5.099|  


### Experimental Conditions: MCC
A [Brand/Model Number] microscale combustion calorimeter was used to conduct MCC experiments.  At the end of each test, the residual solid yield was measured and found to be consistent with the TGA results. 
*Reference: More information is available at: [J. Smith, et al., Fire Technology, 2021]

* Heating Rate: 60 K/min
* Temperature program (Pyrolyzer)
  - Initial temperature 348 K
  - Isotherm: 600s (hold at 348K for 600s)  
  - Maximum Temperature 873 K
* Combustor Temperature: 1173K
* Sample mass: 5 mg +/- 0.1mg
* Sample geometry: Powdered
* Calibration type: Before each experiment, a baseline test was performed using a 3.5 mg +/-0.1 mg sample of polystyrene as a reference. O2 sensor/flow calibration was checked at the start of each week of testing, Temperature calibration was performed every 12 months.
* Crucible type: ceramic crucibles (outer diameter 5.74mm / volume 71 µL) with no lid
* Pyrolyzer Carrier Gas
  - Ultra High Purity (UHP) Nitrogen 
  - N2 Flow rate = 80 ml/min
* Combustor Carrier Gas
  - Ultra High Purity (UHP) Oxygen + Pyrolyzer Carrier Gas
  - O2 Flow rate = 20 ml/min
* Instrument
  - Type: Brand/Model
  - O2 Analyzer: [Paramagnetic // Chemical]
  - Note: None



### Experimental Conditions, Cone calorimeter
*Reference: More information is available at: [J. Smith, et al., Journal of Fire Sciences, 2022]

* Extraction flow rate: 24L/s
* Sample Surface Area: 0.01 m2 (nominal)
* Sample holder dimensions:
    - Square pan

File: INSTITUTE-X_Cone_25kW_hor_R1.csv
Time (s),Mass (g),HRR (kW/m2),TC back 1 (K)
0,154.469,-0.552,297.55
3,154.563,-0.541,297.42
6,154.61,0.11,297.48
9,154.684,0.98,297.41
12,154.854,1.049,297.46
15,154.642,0.834,297.57
18,154.924,0.51,297.84
21,154.855,-2.355,298.35
24,154.672,-0.543,299
27,154.74,-1.435,299.8
30,154.952,-0.334,300.94
33,154.712,-0.252,302.26
36,154.78,1.104,303.83
39,154.93,-0.883,305.53
42,154.602,-1.9,307.17
45,155.008,1.032,309.13
48,154.878,-2.64,311.25
51,154.82,-0.069,313.33
54,154.67,-0.235,315.46
57,154.871,-1.147,317.52
60,154.674,-0.789,319.98
63,154.902,-1.963,322.35
66,154.744,-1.363,324.95
69,154.762,-0.809,327.4
72,154.795,-0.677,329.88
75,154.776,-0.67,332.39
78,154.63,0.449,335
81,154.766,-1.141,337.42
84,155.006,-0.874,339.96
87,154.617,-0.781,342.42
90,154.672,0.125,344.99
93,154.849,-3.231,347.45
96,154.813,-3.993,350.02
99,154.634,-3.868,352.44
102,154.574,-2.388,354.99
105,154.776,-1.266,357.27
108,154.807,-0.142,359.75
111,154.562,1.942,362.13
114,154.493,29.782,364.53
117,154.472,99.126,366.87
120,154.18,169.396,369.11
123,153.787,232.662,371.42
126,153.527,272.424,373.56
129,152.946,316.667,375.61
132,152.633,366.233,377.68
135,152.224,380.512,379.54
138,151.668,404.188,381.23
141,151.241,407.751,382.89
144,150.646,417.529,384.51
147,150.272,417.95,386.08
150,149.797,424.071,387.85
153,149.029,422.478,389.63
156,148.631,431.977,391.26
159,148.218,436.072,393.04
162,147.405,430.457,394.84
165,147.086,435.779,396.6
168,146.444,436.48,398.47
171,145.959,432.414,400.22
174,145.467,429.421,401.81
177,144.761,435.192,403.39
180,144.538,443.842,404.95
183,143.691,449.16,406.5
186,143.318,445.567,407.99
189,142.695,448.518,409.5
192,142.162,450.448,411.07
195,141.441,452.896,412.67
198,140.901,458.322,414.15
201,140.334,462.986,415.69
204,139.936,465.177,417.15
207,139.33,477.205,418.66
210,138.701,474.903,420
213,138.262,481.479,421.49
216,137.458,488.284,422.89
219,136.973,493.424,424.25
222,136.341,499.795,425.57
225,135.63,512.15,426.92
228,135.04,506.281,428.22
231,134.257,514.001,429.5
234,133.7,519.815,430.76
237,133.009,519.963,432.03
240,132.402,534.921,433.34
243,131.711,539.995,434.55
246,131.296,553.12,435.72
249,130.403,548.158,436.9
252,129.576,557.946,437.97
255,128.938,562.878,439.07
258,128.267,570.431,440.16
261,127.523,584.12,441.12
264,126.773,581.242,442.04
267,125.943,588.044,442.58
270,125.333,594.24,443.23
273,124.628,601.113,444.09
276,123.923,607.689,445.08
279,123.223,609.173,446.12
282,122.416,609.168,447.08
285,121.688,603.44,448.02
288,120.756,620.767,448.97
291,120.322,622.306,449.89
294,119.435,616.446,450.81
297,118.555,624.611,451.71
300,117.789,625.771,452.58
303,117.08,626.645,453.44
306,116.345,632.462,454.33
309,115.594,643.4,455.16
312,114.576,641.708,456.04
315,113.999,651.401,456.82
318,113.129,656.254,457.61
321,112.249,651.883,458.38
324,111.596,664.026,459.11
327,110.74,649.079,459.98
330,109.798,652.951,460.71
333,109.081,663.458,461.54
336,108.154,665.955,462.3
339,107.419,689.59,463.1
342,106.709,680.508,463.82
345,105.742,693.03,464.59
348,104.944,694.737,465.22
351,104.097,685.898,465.96
354,103.019,702.146,466.69
357,102.382,695.621,467.43
360,101.438,705.842,468.11
363,100.674,709.158,468.78
366,99.851,705.665,469.32
369,98.9,710.725,470.02
372,98.097,700.347,470.62
375,97.223,690.285,471.14
378,96.344,671.325,471.78
381,95.594,661.689,472.35
384,94.7,654.713,472.95
387,93.869,654.547,473.54
390,93.323,633.522,474.21
393,92.355,626.905,474.86
396,91.543,603.178,475.39
399,90.856,608.21,476.09
402,90.094,616.008,476.63
405,89.282,573.222,477.19
408,88.792,518.729,477.57
411,88.41,485.929,478.16
414,87.683,439.844,478.66
417,87.338,363.909,479
420,86.764,302.084,479.56
423,86.643,263.322,480.23
426,86.247,165.574,480.8
429,86.191,121.564,481.33
432,85.95,71.412,481.87
435,86.141,40.516,482.49
438,85.996,9.966,483.07
441,86.042,0.791,483.58
444,85.981,-5.044,483.95
447,86.168,-5.3,484.51
450,85.97,-2.47,485.08
453,85.913,-2.392,485.46
456,85.936,-1.272,485.97
459,85.979,-2.053,486.34
462,86.141,-1.4,486.71
465,85.897,-1.845,487.03
468,86.079,-1.829,487.5
471,85.984,-1.605,488.07
474,85.92,-1.217,488.32
477,86.105,-0.704,488.71
480,86.001,-0.863,489.34
483,85.988,-0.867,489.66
486,85.872,-1.339,490.14
489,85.845,1.723,490.48
492,86.058,-0.641,490.84
495,85.998,0.24,491.2
498,86.095,-0.641,491.55
501,86.005,-3.548,491.87
504,86.064,-2.4,492.21
507,85.854,-13.634,492.44
510,86.055,-2.775,492.96
513,85.983,0.069,493.25
516,85.895,0.927,493.76
519,86.166,-0.39,494.14
522,86.028,-0.051,494.48
525,85.813,-0.027,494.99
528,86.025,-0.923,495.34
531,86.015,-1.748,495.74
534,86.134,-1.149,496.15
537,85.945,-2.488,496.52
540,86.042,-4.077,496.88
543,85.97,-3.969,497.13
546,86.209,-1.41,497.64
549,86.015,0.462,497.96
552,86.083,1.038,498.36
555,86.116,-3.112,498.74
558,85.756,-3.027,499.19
561,86.072,-0.881,499.64
564,86.067,-1.636,499.97
567,86.062,-2.46,500.41
570,85.91,-0.071,500.94
573,85.948,-0.449,501.04
576,86.006,-1.204,501.65
579,85.809,0.114,501.92
582,86.063,0.374,502.11
585,85.95,-0.593,502.49
588,85.89,-2.394,502.83
591,85.904,-0.416,503.22
594,86.021,-0.272,503.81
597,85.868,-0.187,504.25
600,86.011,0.492,504.53

File: INSTITUTE-X_Cone_25kW_hor_r1.csv
time (s),Mass (g),HRR (kW/m2)
0,154.469,-0.552
3,154.563,-0.541
6,154.610,0.110
9,154.684,0.980
12,154.854,1.049
15,154.642,0.834
18,154.924,0.510
21,154.855,-2.355
24,154.672,-0.543
27,154.740,-1.435
30,154.952,-0.334
33,154.712,-0.252
36,154.780,1.104
39,154.930,-0.883
42,154.602,-1.900
45,155.008,1.032
48,154.878,-2.640
51,154.820,-0.069
54,154.670,-0.235
57,154.871,-1.147
60,154.674,-0.789
63,154.902,-1.963
66,154.744,-1.363
69,154.762,-0.809
72,154.795,-0.677
75,154.776,-0.670
78,154.630,0.449
81,154.766,-1.141
84,155.006,-0.874
87,154.617,-0.781
90,154.672,0.125
93,154.849,-3.231
96,154.813,-3.993
99,154.634,-3.868
102,154.574,-2.388
105,154.776,-1.266
108,154.807,-0.142
111,154.562,1.942
114,154.493,29.782
117,154.472,99.126
120,154.180,169.396
123,153.787,232.662
126,153.527,272.424
129,152.946,316.667
132,152.633,366.233
135,152.224,380.512
138,151.668,404.188
141,151.241,407.751
144,150.646,417.529
147,150.272,417.950
150,149.797,424.071
153,149.029,422.478
156,148.631,431.977
159,148.218,436.072
162,147.405,430.457
165,147.086,435.779
168,146.444,436.480
171,145.959,432.414
174,145.467,429.421
177,144.761,435.192
180,144.538,443.842
183,143.691,449.160
186,143.318,445.567
189,142.695,448.518
192,142.162,450.448
195,141.441,452.896
198,140.901,458.322
201,140.334,462.986
204,139.936,465.177
207,139.330,477.205
210,138.701,474.903
213,138.262,481.479
216,137.458,488.284
219,136.973,493.424
222,136.341,499.795
225,135.630,512.150
228,135.040,506.281
231,134.257,514.001
234,133.700,519.815
237,133.009,519.963
240,132.402,534.921
243,131.711,539.995
246,131.296,553.120
249,130.403,548.158
252,129.576,557.946
255,128.938,562.878
258,128.267,570.431
261,127.523,584.120
264,126.773,581.242
267,125.943,588.044
270,125.333,594.240
273,124.628,601.113
276,123.923,607.689
279,123.223,609.173
282,122.416,609.168
285,121.688,603.440
288,120.756,620.767
291,120.322,622.306
294,119.435,616.446
297,118.555,624.611
300,117.789,625.771
303,117.080,626.645
306,116.345,632.462
309,115.594,643.400
312,114.576,641.708
315,113.999,651.401
318,113.129,656.254
321,112.249,651.883
324,111.596,664.026
327,110.740,649.079
330,109.798,652.951
333,109.081,663.458
336,108.154,665.955
339,107.419,689.590
342,106.709,680.508
345,105.742,693.030
348,104.944,694.737
351,104.097,685.898
354,103.019,702.146
357,102.382,695.621
360,101.438,705.842
363,100.674,709.158
366,99.851,705.665
369,98.900,710.725
372,98.097,700.347
375,97.223,690.285
378,96.344,671.325
381,95.594,661.689
384,94.700,654.713
387,93.869,654.547
390,93.323,633.522
393,92.355,626.905
396,91.543,603.178
399,90.856,608.210
402,90.094,616.008
405,89.282,573.222
408,88.792,518.729
411,88.410,485.929
414,87.683,439.844
417,87.338,363.909
420,86.764,302.084
423,86.643,263.322
426,86.247,165.574
429,86.191,121.564
432,85.950,71.412
435,86.141,40.516
438,85.996,9.966
441,86.042,0.791
444,85.981,-5.044
447,86.168,-5.300
450,85.970,-2.470
453,85.913,-2.392
456,85.936,-1.272
459,85.979,-2.053
462,86.141,-1.400
465,85.897,-1.845
468,86.079,-1.829
471,85.984,-1.605
474,85.920,-1.217
477,86.105,-0.704
480,86.001,-0.863
483,85.988,-0.867
486,85.872,-1.339
489,85.845,1.723
492,86.058,-0.641
495,85.998,0.240
498,86.095,-0.641
501,86.005,-3.548
504,86.064,-2.400
507,85.854,-13.634
510,86.055,-2.775
513,85.983,0.069
516,85.895,0.927
519,86.166,-0.390
522,86.028,-0.051
525,85.813,-0.027
528,86.025,-0.923
531,86.015,-1.748
534,86.134,-1.149
537,85.945,-2.488
540,86.042,-4.077
543,85.970,-3.969
546,86.209,-1.410
549,86.015,0.462
552,86.083,1.038
555,86.116,-3.112
558,85.756,-3.027
561,86.072,-0.881
564,86.067,-1.636
567,86.062,-2.460
570,85.910,-0.071
573,85.948,-0.449
576,86.006,-1.204
579,85.809,0.114
582,86.063,0.374
585,85.950,-0.593
588,85.890,-2.394
591,85.904,-0.416
594,86.021,-0.272
597,85.868,-0.187
600,86.011,0.492

File: INSTITUTE-X_ControlledCone_O2-0_25kW_hor_R1.csv
Time (s),Mass (g)
1,170.134
4,169.887
7,170.404
10,170.296
13,170.343
16,170.403
19,170.416
22,170.389
25,170.387
28,170.357
31,170.286
34,170.285
37,170.273
40,170.235
43,170.222
46,170.186
49,170.173
52,170.173
55,170.155
58,170.126
61,170.121
64,170.11
67,170.114
70,170.102
73,170.101
76,170.104
79,170.087
82,170.071
85,170.082
88,170.073
91,170.042
94,170.018
97,169.989
100,169.99
103,170.006
106,169.955
109,169.927
112,169.907
115,169.891
118,169.849
121,169.831
124,169.783
127,169.779
130,169.729
133,169.69
136,169.674
139,169.73
142,169.66
145,169.636
148,169.634
151,169.566
154,169.521
157,169.469
160,169.419
163,169.361
166,169.263
169,169.198
172,169.081
175,168.991
178,168.89
181,168.805
184,168.682
187,168.562
190,168.459
193,168.348
196,168.21
199,168.089
202,167.946
205,167.797
208,167.67
211,167.516
214,167.386
217,167.238
220,167.106
223,166.953
226,166.801
229,166.692
232,166.506
235,166.339
238,166.181
241,166.048
244,165.905
247,165.739
250,165.58
253,165.405
256,165.295
259,165.134
262,165.026
265,164.868
268,164.682
271,164.493
274,164.375
277,164.158
280,163.99
283,163.816
286,163.607
289,163.421
292,163.252
295,163.024
298,162.794
301,162.636
304,162.431
307,162.299
310,162.066
313,161.896
316,161.686
319,161.465
322,161.257
325,161.037
328,160.832
331,160.618
334,160.409
337,160.153
340,159.9
343,159.682
346,159.434
349,159.207
352,158.977
355,158.728
358,158.524
361,158.277
364,158.04
367,157.755
370,157.538
373,157.32
376,157.065
379,156.843
382,156.628
385,156.41
388,156.133
391,155.872
394,155.618
397,155.36
400,155.12
403,154.837
406,154.596
409,154.313
412,154.097
415,153.822
418,153.572
421,153.28
424,153.075
427,152.847
430,152.564
433,152.32
436,152.042
439,151.788
442,151.465
445,151.197
448,150.902
451,150.602
454,150.34
457,150.05
460,149.754
463,149.503
466,149.208
469,148.902
472,148.593
475,148.336
478,148.05
481,147.742
484,147.434
487,147.178
490,146.805
493,146.516
496,146.197
499,145.934
502,145.568
505,145.294
508,144.919
511,144.635
514,144.302
517,144.028
520,143.671
523,143.351
526,142.982
529,142.685
532,142.307
535,142.028
538,141.637
541,141.28
544,140.915
547,140.585
550,140.302
553,139.941
556,139.583
559,139.149
562,138.785
565,138.422
568,138.141
571,137.766
574,137.418
577,136.999
580,136.661
583,136.253
586,135.927
589,135.509
592,135.195
595,134.765
598,134.449
601,134.029
604,133.715
607,133.344
610,132.968
613,132.589
616,132.207
619,131.828
622,131.476
625,131.114
628,130.736
631,130.393
634,129.998
637,129.638
640,129.291
643,128.94
646,128.608
649,128.272
652,127.947
655,127.669
658,127.419
661,127.191
664,126.996
667,126.82
670,126.657
673,126.488
676,126.386
679,126.287
682,126.192
685,126.115
688,126.05
691,125.97
694,125.928
697,125.87
700,125.837
703,125.796
706,125.747
709,125.75
712,125.694
715,125.676
718,125.658
721,125.64
724,125.606
727,125.62
730,125.586
733,125.573
736,125.594
739,125.575
742,125.576
745,125.543
748,125.538
749,125.541

File: INSTITUTE-X_DSC_N2_10K_r1.csv
time (s),Temperature (K),Heat Flow Rate (mW/mg)
0,325,0.092
20,327,0.137
36.4,329,0.170
51.3,331,0.191
65.4,333,0.206
78.9,335,0.217
92.4,337,0.226
105.5,339,0.233
118.5,341,0.238
131.4,343,0.244
144.2,345,0.250
156.9,347,0.256
169.5,349,0.261
182,351,0.266
194.4,353,0.268
206.7,355,0.269
219,357,0.268
231.2,359,0.268
243.4,361,0.268
255.4,363,0.269
267.4,365,0.272
279.4,367,0.276
291.3,369,0.279
303.2,371,0.282
315.1,373,0.286
326.9,375,0.289
338.7,377,0.294
350.5,379,0.298
362.2,381,0.304
374,383,0.310
385.7,385,0.315
397.4,387,0.320
409.1,389,0.326
420.9,391,0.334
432.6,393,0.343
444.3,395,0.353
455.9,397,0.362
467.6,399,0.370
479.3,401,0.377
490.9,403,0.382
502.6,405,0.386
514.1,407,0.388
525.9,409,0.390
537.4,411,0.392
549.1,413,0.394
560.7,415,0.396
572.3,417,0.398
583.9,419,0.400
595.5,421,0.402
607,423,0.406
618.6,425,0.409
630.1,427,0.414
641.6,429,0.418
653.2,431,0.422
664.7,433,0.427
676.3,435,0.432
687.8,437,0.438
699.3,439,0.444
710.9,441,0.450
722.4,443,0.458
733.9,445,0.466
745.4,447,0.474
757,449,0.481
768.5,451,0.488
780,453,0.494
791.5,455,0.500
803,457,0.505
814.5,459,0.508
826,461,0.510
837.4,463,0.509
848.9,465,0.505
860.4,467,0.500
871.9,469,0.496
883.4,471,0.494
894.9,473,0.494
906.3,475,0.496
917.8,477,0.499
929.3,479,0.502
940.8,481,0.506
952.3,483,0.510
963.8,485,0.512
975.2,487,0.512
986.7,489,0.509
998.1,491,0.503
1009.6,493,0.495
1021,495,0.486
1032.5,497,0.479
1043.9,499,0.474
1055.3,501,0.471
1066.7,503,0.468
1078.2,505,0.466
1089.6,507,0.466
1101.1,509,0.467
1112.6,511,0.468
1124,513,0.470
1135.5,515,0.474
1146.9,517,0.478
1158.4,519,0.483
1169.9,521,0.488
1181.3,523,0.491
1192.8,525,0.496
1204.2,527,0.501
1215.6,529,0.505
1227.1,531,0.509
1238.6,533,0.514
1250,535,0.520
1261.5,537,0.528
1273,539,0.536
1284.5,541,0.544
1296,543,0.552
1307.4,545,0.561
1319,547,0.571
1330.4,549,0.580
1341.9,551,0.591
1353.4,553,0.602
1364.8,555,0.612
1376.3,557,0.619
1387.9,559,0.626
1399.4,561,0.634
1410.9,563,0.642
1422.4,565,0.651
1433.9,567,0.660
1445.4,569,0.668
1456.9,571,0.674
1468.4,573,0.682
1480,575,0.689
1491.5,577,0.690
1503,579,0.681
1514.5,581,0.670
1526,583,0.675
1537.4,585,0.700
1548.9,587,0.739
1560.4,589,0.785
1571.9,591,0.835
1583.5,593,0.888
1595.1,595,0.941
1606.7,597,0.997
1618.3,599,1.057
1629.9,601,1.123
1641.6,603,1.197
1653.2,605,1.279
1664.9,607,1.372
1676.6,609,1.476
1688.2,611,1.589
1699.9,613,1.711
1711.7,615,1.842
1723.3,617,1.978
1735,619,2.119
1746.8,621,2.260
1758.6,623,2.398
1770.4,625,2.533
1782.2,627,2.658
1793.9,629,2.768
1805.6,631,2.855
1817.4,633,2.914
1829.1,635,2.943
1840.9,637,2.937
1852.6,639,2.905
1864.3,641,2.865
1876,643,2.820
1887.6,645,2.749
1899.3,647,2.639
1910.9,649,2.503
1922.5,651,2.355
1934.1,653,2.193
1945.7,655,2.026
1957.3,657,1.854
1968.9,659,1.678
1980.4,661,1.493
1991.9,663,1.317
2003.5,665,1.153
2015.1,667,1.004
2026.8,669,0.867
2038.4,671,0.743
2050,673,0.632
2061.6,675,0.533
2073.3,677,0.448
2084.9,679,0.373
2096.6,681,0.311
2108.3,683,0.265
2119.9,685,0.236
2131.5,687,0.219
2143.2,689,0.207
2154.9,691,0.200
2166.6,693,0.197
2178.3,695,0.187
2190,697,0.165
2201.9,699,0.136
2213.7,701,0.106
2225.5,703,0.070
2237.3,705,0.024
2249.2,707,-0.016
2261.1,709,-0.025
2272.9,711,-0.005
2284.8,713,0.018
2296.6,715,0.030
2308.5,717,0.035
2320.3,719,0.038
2332.2,721,0.041
2344,723,0.041
2355.8,725,0.042
2367.6,727,0.043
2379.4,729,0.045
2391.3,731,0.047
2403.1,733,0.048
2414.9,735,0.048
2426.8,737,0.049
2438.6,739,0.050
2450.4,741,0.052
2462.2,743,0.052
2474.1,745,0.054
2485.9,747,0.056
2497.7,749,0.057
2509.5,751,0.058
2521.4,753,0.061
2533.2,755,0.064
2545,757,0.065
2556.8,759,0.066
2568.6,761,0.067
2580.5,763,0.068
2592.4,765,0.070
2604.3,767,0.072
2616.2,769,0.073
2628,771,0.074
2639.9,773,0.076
2651.8,775,0.078
2663.8,777,0.079
2675.7,779,0.080
2687.6,781,0.081
2699.5,783,0.083
2711.4,785,0.085
2723.4,787,0.088
2735.3,789,0.090
2747.2,791,0.093
2759,793,0.095
2770.9,795,0.098
2782.8,797,0.100
2794.8,799,0.103
2806.6,801,0.105
2818.5,803,0.107
2830.4,805,0.108
2842.3,807,0.108
2854.2,809,0.109
2866.1,811,0.110
2878.1,813,0.111
2890,815,0.112
2902,817,0.112
2914.1,819,0.113
2926.1,821,0.112
2932.1,822,0.112

File: INSTITUTE-X_FPA_25kW_r1.csv
time (s),Mass (g),T_back K(),T_front (K)
1,170.134,297.55,299.76
4,169.887,297.42,346.60
7,170.404,297.48,373.25
10,170.296,297.41,393.73
13,170.343,297.46,409.87
16,170.403,297.57,423.65
19,170.416,297.84,435.68
22,170.389,298.35,448.22
25,170.387,299.00,458.50
28,170.357,299.80,468.29
31,170.286,300.94,477.70
34,170.285,302.26,485.64
37,170.273,303.83,493.41
40,170.235,305.53,500.98
43,170.222,307.17,507.92
46,170.186,309.13,514.77
49,170.173,311.25,520.86
52,170.173,313.33,526.88
55,170.155,315.46,531.76
58,170.126,317.52,538.54
61,170.121,319.98,542.92
64,170.110,322.35,548.92
67,170.114,324.95,553.46
70,170.102,327.40,557.97
73,170.101,329.88,563.04
76,170.104,332.39,567.37
79,170.087,335.00,572.01
82,170.071,337.42,577.04
85,170.082,339.96,581.85
88,170.073,342.42,585.55
91,170.042,344.99,589.68
94,170.018,347.45,593.50
97,169.989,350.02,597.18
100,169.990,352.44,600.24
103,170.006,354.99,604.23
106,169.955,357.27,607.31
109,169.927,359.75,610.17
112,169.907,362.13,613.41
115,169.891,364.53,618.18
118,169.849,366.87,622.04
121,169.831,369.11,625.26
124,169.783,371.42,628.92
127,169.779,373.56,631.02
130,169.729,375.61,632.96
133,169.690,377.68,635.46
136,169.674,379.54,638.05
139,169.730,381.23,639.23
142,169.660,382.89,641.63
145,169.636,384.51,642.55
148,169.634,386.08,644.99
151,169.566,387.85,645.14
154,169.521,389.63,645.79
157,169.469,391.26,648.01
160,169.419,393.04,648.88
163,169.361,394.84,648.62
166,169.263,396.60,652.53
169,169.198,398.47,651.69
172,169.081,400.22,649.12
175,168.991,401.81,651.67
178,168.890,403.39,652.07
181,168.805,404.95,652.40
184,168.682,406.50,653.55
187,168.562,407.99,652.88
190,168.459,409.50,656.59
193,168.348,411.07,656.53
196,168.210,412.67,652.94
199,168.089,414.15,658.60
202,167.946,415.69,658.51
205,167.797,417.15,662.05
208,167.670,418.66,654.09
211,167.516,420.00,663.90
214,167.386,421.49,662.31
217,167.238,422.89,657.37
220,167.106,424.25,659.46
223,166.953,425.57,658.15
226,166.801,426.92,664.49
229,166.692,428.22,667.73
232,166.506,429.50,666.75
235,166.339,430.76,665.85
238,166.181,432.03,668.81
241,166.048,433.34,670.33
244,165.905,434.55,670.96
247,165.739,435.72,666.08
250,165.580,436.90,671.46
253,165.405,437.97,670.74
256,165.295,439.07,672.76
259,165.134,440.16,669.36
262,165.026,441.12,673.51
265,164.868,442.04,670.93
268,164.682,442.58,671.44
271,164.493,443.23,674.89
274,164.375,444.09,677.49
277,164.158,445.08,671.05
280,163.990,446.12,675.10
283,163.816,447.08,670.32
286,163.607,448.02,676.36
289,163.421,448.97,673.73
292,163.252,449.89,674.47
295,163.024,450.81,671.74
298,162.794,451.71,673.93
301,162.636,452.58,675.41
304,162.431,453.44,670.42
307,162.299,454.33,680.75
310,162.066,455.16,672.59
313,161.896,456.04,677.12
316,161.686,456.82,678.36
319,161.465,457.61,677.53
322,161.257,458.38,679.45
325,161.037,459.11,676.16
328,160.832,459.98,680.54
331,160.618,460.71,676.40
334,160.409,461.54,677.35
337,160.153,462.30,676.48
340,159.900,463.10,672.67
343,159.682,463.82,677.70
346,159.434,464.59,678.23
349,159.207,465.22,676.02
352,158.977,465.96,671.42
355,158.728,466.69,678.98
358,158.524,467.43,674.37
361,158.277,468.11,679.49
364,158.040,468.78,678.25
367,157.755,469.32,678.63
370,157.538,470.02,676.66
373,157.320,470.62,668.73
376,157.065,471.14,675.81
379,156.843,471.78,673.18
382,156.628,472.35,674.09
385,156.410,472.95,677.55
388,156.133,473.54,673.06
391,155.872,474.21,670.70
394,155.618,474.86,678.36
397,155.360,475.39,674.57
400,155.120,476.09,679.93
403,154.837,476.63,676.92
406,154.596,477.19,674.88
409,154.313,477.57,671.37
412,154.097,478.16,665.00
415,153.822,478.66,661.54
418,153.572,479.00,675.66
421,153.280,479.56,672.89
424,153.075,480.23,672.25
427,152.847,480.80,666.03
430,152.564,481.33,668.82
433,152.320,481.87,674.95
436,152.042,482.49,664.46
439,151.788,483.07,653.20
442,151.465,483.58,651.43
445,151.197,483.95,655.83
448,150.902,484.51,655.56
451,150.602,485.08,667.47
454,150.340,485.46,665.03
457,150.050,485.97,672.01
460,149.754,486.34,663.85
463,149.503,486.71,667.90
466,149.208,487.03,670.63
469,148.902,487.50,660.08
472,148.593,488.07,663.20
475,148.336,488.32,649.75
478,148.050,488.71,665.07
481,147.742,489.34,664.11
484,147.434,489.66,663.80
487,147.178,490.14,660.40
490,146.805,490.48,661.46
493,146.516,490.84,647.20
496,146.197,491.20,648.32
499,145.934,491.55,644.74
502,145.568,491.87,671.09
505,145.294,492.21,653.41
508,144.919,492.44,645.38
511,144.635,492.96,630.85
514,144.302,493.25,661.48
517,144.028,493.76,644.87
520,143.671,494.14,642.46
523,143.351,494.48,641.37
526,142.982,494.99,637.91
529,142.685,495.34,627.79
532,142.307,495.74,636.54
535,142.028,496.15,647.97
538,141.637,496.52,642.73
541,141.280,496.88,634.62
544,140.915,497.13,634.58
547,140.585,497.64,643.54
550,140.302,497.96,642.25
553,139.941,498.36,627.82
556,139.583,498.74,642.64
559,139.149,499.19,628.86
562,138.785,499.64,631.23
565,138.422,499.97,631.95
568,138.141,500.41,634.70
571,137.766,500.94,627.85
574,137.418,501.04,622.56
577,136.999,501.65,631.38
580,136.661,501.92,619.18
583,136.253,502.11,623.63
586,135.927,502.49,632.58
589,135.509,502.83,628.86
592,135.195,503.22,637.99
595,134.765,503.81,631.88
598,134.449,504.25,627.03
601,134.029,504.53,629.40
604,133.715,504.94,632.72
607,133.344,505.38,637.79
610,132.968,505.91,633.07
613,132.589,506.34,619.48
616,132.207,506.67,633.63
619,131.828,507.10,625.76
622,131.476,507.62,628.59
625,131.114,507.99,621.79
628,130.736,508.50,624.30
631,130.393,508.92,627.91
634,129.998,509.40,630.45
637,129.638,509.82,634.25
640,129.291,510.16,641.08
643,128.940,510.66,647.00
646,128.608,511.08,634.83
649,128.272,511.46,649.76
652,127.947,511.86,648.26
655,127.669,512.08,673.93
658,127.419,512.49,692.26
661,127.191,512.77,710.57
664,126.996,513.33,711.34
667,126.820,513.84,711.65
670,126.657,514.20,728.16
673,126.488,514.87,743.02
676,126.386,515.05,745.92
679,126.287,515.51,747.89
682,126.192,515.94,747.04
685,126.115,516.36,754.98
688,126.050,516.69,757.06
691,125.970,517.12,762.19
694,125.928,517.49,763.26
697,125.870,518.05,765.02
700,125.837,518.24,767.48
703,125.796,518.68,767.14
706,125.747,518.95,770.91
709,125.750,519.29,771.12
712,125.694,519.83,775.54
715,125.676,520.27,777.49
718,125.658,520.82,778.86
721,125.640,521.18,781.55
724,125.606,521.43,781.71
727,125.620,522.01,781.98
730,125.586,522.32,780.18
733,125.573,522.85,780.66
736,125.594,523.15,779.91
739,125.575,523.66,782.56
742,125.576,523.89,782.12
745,125.543,524.45,784.00
748,125.538,524.75,783.43
749,125.541,524.97,782.34