Folder: matl-db/Wood/Calibration_Data/TEMPLATE-INSTITUTE-X (part 2)

File: INSTITUTE-X_Gasification_25kW_R1.csv
Time (s),Mass (g),TC back 1 (K),TC back 2 (K),TC back 3 (K)
0,69.1,297.55,297.55,NaN
5,69.136,297.49,297.49,NaN
10,69.2,297.51,297.51,NaN
15,69.151,297.57,297.57,NaN
20,69.116,298.2,298.2,NaN
25,69.172,299.25,299.25,NaN
30,68.955,300.94,300.94,NaN
35,69.018,303.25,303.25,NaN
40,69.15,305.94,305.94,NaN
45,68.951,309.13,309.13,NaN
50,69.018,312.6,312.6,NaN
55,69.005,316.02,316.02,NaN
60,68.876,319.98,319.98,NaN
65,68.767,324.05,324.05,NaN
70,68.922,328.24,328.24,NaN
75,68.961,332.39,332.39,NaN
80,68.866,336.54,336.54,NaN
85,69.062,340.74,340.74,NaN
90,68.874,344.99,344.99,NaN
95,69.051,349.21,349.21,NaN
100,68.87,353.26,353.26,NaN
105,68.739,357.27,357.27,NaN
110,68.812,361.37,361.37,NaN
115,68.714,365.3,365.3,NaN
120,68.744,369.11,369.11,NaN
125,68.735,372.84,372.84,NaN
130,68.682,376.33,376.33,NaN
135,68.656,379.54,379.54,NaN
140,68.543,382.38,382.38,NaN
145,68.342,385.06,385.06,NaN
150,68.406,387.85,387.85,NaN
155,68.187,390.74,390.74,NaN
160,68.121,393.67,393.67,NaN
165,68.233,396.6,396.6,NaN
170,67.78,399.68,399.68,NaN
175,67.818,402.38,402.38,NaN
180,67.603,404.95,404.95,NaN
185,67.253,407.41,407.41,NaN
190,67.303,410.03,410.03,NaN
195,67.102,412.67,412.67,NaN
200,66.872,415.16,415.16,NaN
205,66.718,417.65,417.65,NaN
210,66.439,420,420,NaN
215,66.446,422.47,422.47,NaN
220,65.978,424.7,424.7,NaN
225,65.882,426.92,426.92,NaN
230,65.659,429.03,429.03,NaN
235,65.322,431.22,431.22,NaN
240,65.103,433.34,433.34,NaN
245,64.847,435.33,435.33,NaN
250,64.45,437.22,437.22,NaN
255,64.475,439.07,439.07,NaN
260,64.112,440.82,440.82,NaN
265,63.6,442.33,442.33,NaN
270,63.565,443.23,443.23,NaN
275,63.255,444.78,444.78,NaN
280,62.808,446.41,446.41,NaN
285,62.444,448.02,448.02,NaN
290,62.252,449.6,449.6,NaN
295,61.956,451.15,451.15,NaN
300,61.593,452.58,452.58,NaN
305,61.17,454.06,454.06,NaN
310,60.909,455.49,455.49,NaN
315,60.441,456.82,456.82,NaN
320,60.47,458.11,458.11,NaN
325,60.046,459.4,459.4,NaN
330,59.614,460.71,460.71,NaN
335,59.273,462.07,462.07,NaN
340,58.985,463.33,463.33,NaN
345,58.573,464.59,464.59,NaN
350,58.217,465.71,465.71,NaN
355,57.95,466.88,466.88,NaN
360,57.406,468.11,468.11,NaN
365,57.015,469.17,469.17,NaN
370,56.7,470.18,470.18,NaN
375,56.302,471.14,471.14,NaN
380,55.911,472.15,472.15,NaN
385,55.449,473.12,473.12,NaN
390,54.982,474.21,474.21,NaN
395,54.554,475.21,475.21,NaN
400,54.14,476.26,476.26,NaN
405,53.806,477.19,477.19,NaN
410,53.33,477.98,477.98,NaN
415,52.833,478.78,478.78,NaN
420,52.488,479.56,479.56,NaN
425,51.873,480.66,480.66,NaN
430,51.516,481.65,481.65,NaN
435,51.05,482.49,482.49,NaN
440,50.792,483.41,483.41,NaN
445,50.262,484.17,484.17,NaN
450,49.83,485.08,485.08,NaN
455,49.438,485.77,485.77,NaN
460,48.908,486.41,486.41,NaN
465,48.522,487.03,487.03,NaN
470,48.142,487.81,487.81,NaN
475,47.387,488.45,488.45,NaN
480,47.05,489.34,489.34,NaN
485,46.357,489.9,489.9,NaN
490,46.176,490.64,490.64,NaN
495,45.767,491.2,491.2,NaN
500,45.132,491.67,491.67,NaN
505,44.826,492.25,492.25,NaN
510,44.226,492.96,492.96,NaN
515,43.62,493.68,493.68,NaN
520,43.14,494.23,494.23,NaN
525,42.871,494.99,494.99,NaN
530,42.332,495.63,495.63,NaN
535,41.738,496.25,496.25,NaN
540,41.392,496.88,496.88,NaN
545,40.651,497.42,497.42,NaN
550,40.078,498.1,498.1,NaN
555,39.751,498.74,498.74,NaN
560,39.306,499.49,499.49,NaN
565,38.646,500.05,500.05,NaN
570,38.168,500.94,500.94,NaN
575,37.621,501.5,501.5,NaN
580,37.196,502.08,502.08,NaN
585,36.623,502.49,502.49,NaN
590,36.291,503.15,503.15,NaN
595,35.756,504.01,504.01,NaN
600,35.077,504.53,504.53,NaN
605,34.695,505.27,505.27,NaN
610,34.034,506.01,506.01,NaN
615,33.627,506.67,506.67,NaN
620,32.958,507.39,507.39,NaN
625,32.646,508.02,508.02,NaN
630,31.947,508.92,508.92,NaN
635,31.472,509.61,509.61,NaN
640,30.868,510.29,510.29,NaN
645,30.29,511.08,511.08,NaN
650,29.87,511.7,511.7,NaN
655,29.192,512.28,512.28,NaN
660,28.661,512.77,512.77,NaN
665,28.139,513.55,513.55,NaN
670,27.547,514.47,514.47,NaN
675,27.07,515.05,515.05,NaN
680,26.42,515.88,515.88,NaN
685,25.834,516.46,516.46,NaN
690,25.474,517.12,517.12,NaN
695,24.805,517.88,517.88,NaN
700,24.429,518.33,518.33,NaN
705,23.865,518.95,518.95,NaN
710,23.269,519.52,519.52,NaN
715,22.87,520.51,520.51,NaN
720,22.298,521.18,521.18,NaN
725,21.633,521.93,521.93,NaN
730,21.016,522.49,522.49,NaN
735,20.368,523.15,523.15,NaN
740,19.842,523.74,523.74,NaN
745,19.448,524.58,524.58,NaN
750,18.873,525.13,525.13,NaN
755,18.446,526.03,526.03,NaN
760,17.742,526.38,526.38,NaN
765,17.273,527.23,527.23,NaN
770,16.911,528.05,528.05,NaN
775,16.369,528.77,528.77,NaN
780,15.616,529.24,529.24,NaN
785,15.403,529.73,529.73,NaN
790,14.738,530.68,530.68,NaN
795,14.521,531.17,531.17,NaN
800,14.123,531.92,531.92,NaN
805,13.756,532.62,532.62,NaN
810,13.302,533.2,533.2,NaN
815,12.902,533.99,533.99,NaN
820,12.768,534.65,534.65,NaN
825,12.276,535.28,535.28,NaN
830,12.068,535.98,535.98,NaN
835,11.568,536.37,536.37,NaN
840,11.409,536.94,536.94,NaN
845,11.062,537.56,537.56,NaN
850,10.818,537.95,537.95,NaN
855,10.533,538.41,538.41,NaN
860,10.188,539.1,539.1,NaN
865,9.932,539.48,539.48,NaN
870,9.711,540.26,540.26,NaN
875,9.339,540.7,540.7,NaN
880,9.095,541.06,541.06,NaN
885,9.013,541.54,541.54,NaN
890,8.785,542.34,542.34,NaN
895,8.634,542.59,542.59,NaN
900,8.267,542.99,542.99,NaN
905,8.111,543.6,543.6,NaN
910,7.798,543.9,543.9,NaN
915,7.726,544.73,544.73,NaN
920,7.523,545.04,545.04,NaN
925,7.373,545.37,545.37,NaN
930,7.072,545.46,545.46,NaN
935,7.118,545.93,545.93,NaN
940,6.865,546.17,546.17,NaN
945,6.744,546.57,546.57,NaN
950,6.459,546.67,546.67,NaN
955,6.407,547.23,547.23,NaN
960,6.196,548.23,548.23,NaN
965,6.059,549.12,549.12,NaN
970,5.771,549.66,549.66,NaN
975,5.547,550.26,550.26,NaN
980,5.544,551.14,551.14,NaN
985,5.237,552.22,552.22,NaN
990,5.14,553.23,553.23,NaN
995,5.006,553.92,553.92,NaN
1000,4.704,554.23,554.23,NaN
1005,4.642,555.13,555.13,NaN
1010,4.649,556.04,556.04,NaN
1015,4.439,557.1,557.1,NaN
1020,4.418,558.34,558.34,NaN
1025,4.18,559.63,559.63,NaN
1030,4.158,560.71,560.71,NaN
1035,3.987,561.53,561.53,NaN
1040,3.912,562.44,562.44,NaN
1045,3.804,563.3,563.3,NaN
1050,3.655,564.29,564.29,NaN
1055,3.427,565.24,565.24,NaN
1060,3.402,567.74,567.74,NaN
1065,3.383,569.95,569.95,NaN
1070,3.2,571.24,571.24,NaN
1075,3.157,572.37,572.37,NaN
1080,3.04,573.92,573.92,NaN
1085,3.009,574.99,574.99,NaN
1090,2.921,576.38,576.38,NaN
1095,2.79,576.87,576.87,NaN
1100,2.516,578.43,578.43,NaN
1105,2.54,579.85,579.85,NaN
1110,2.293,580.13,580.13,NaN
1115,2.283,581.17,581.17,NaN
1120,2.302,582.19,582.19,NaN
1125,2.333,583.33,583.33,NaN
1130,2.211,584.62,584.62,NaN
1135,2.02,586.2,586.2,NaN
1140,2.029,587.81,587.81,NaN
1145,2.113,588.95,588.95,NaN
1150,1.851,589.73,589.73,NaN
1155,1.817,590.94,590.94,NaN
1160,1.739,591.8,591.8,NaN
1165,1.753,592.81,592.81,NaN
1170,1.771,594.79,594.79,NaN
1175,1.627,596.6,596.6,NaN
1180,1.596,598.49,598.49,NaN
1185,1.611,600.12,600.12,NaN
1190,1.349,601.38,601.38,NaN
1195,1.321,602.56,602.56,NaN
1200,1.365,603.09,603.09,NaN
1205,1.102,604.8,604.8,NaN
1210,1.22,606.53,606.53,NaN
1215,0.978,607.68,607.68,NaN
1220,1.205,608.47,608.47,NaN
1225,1.177,609.76,609.76,NaN
1230,1.058,610.98,610.98,NaN
1235,1.129,612.48,612.48,NaN
1240,0.987,614.13,614.13,NaN
1245,0.808,615,615,NaN
1250,0.928,616.08,616.08,NaN
1255,0.843,617.08,617.08,NaN
1260,0.806,618.53,618.53,NaN
1265,0.694,619.66,619.66,NaN
1270,0.708,620.98,620.98,NaN
1275,0.701,622.44,622.44,NaN
1280,0.54,623.98,623.98,NaN
1285,0.548,625.06,625.06,NaN
1290,0.611,626.6,626.6,NaN
1295,0.59,627.57,627.57,NaN
1300,0.563,628.97,628.97,NaN
1305,0.494,630.01,630.01,NaN
1310,0.433,631.21,631.21,NaN
1315,0.507,631.61,631.61,NaN
1320,0.397,633.69,633.69,NaN
1325,0.436,634.75,634.75,NaN
1330,0.475,635.68,635.68,NaN
1335,0.383,637.17,637.17,NaN
1340,0.33,637.71,637.71,NaN
1345,0.198,638.88,638.88,NaN
1350,0.366,639.69,639.69,NaN
1355,0.087,640.42,640.42,NaN
1360,0.071,642.02,642.02,NaN
1365,0.153,642.95,642.95,NaN
1370,0.185,644.15,644.15,NaN
1375,0.051,645.33,645.33,NaN
1380,0.029,646.41,646.41,NaN
1385,0.002,647.5,647.5,NaN
1390,-0.065,648.64,648.64,NaN
1395,-0.069,650.1,650.1,NaN
1400,-0.053,650.65,650.65,NaN
1405,-0.132,651.72,651.72,NaN
1410,-0.228,652.07,652.07,NaN
1415,-0.105,653.13,653.13,NaN
1420,-0.165,653.65,653.65,NaN
1425,-0.059,654.16,654.16,NaN
1430,-0.175,654.44,654.44,NaN
1435,-0.12,655.01,655.01,NaN
1440,-0.219,655.67,655.67,NaN
1445,-0.391,656.88,656.88,NaN
1450,-0.135,657.29,657.29,NaN
1455,-0.282,657.21,657.21,NaN
1460,-0.264,658.11,658.11,NaN
1465,-0.191,658.59,658.59,NaN
1470,-0.343,658.96,658.96,NaN
1473,-0.384,659.96,659.96,NaN

File: INSTITUTE-X_Gasification_25kW_r1.csv
time (s),Mass (g),T_back (K)
0,69.100,297.55
5,69.136,297.49
10,69.200,297.51
15,69.151,297.57
20,69.116,298.20
25,69.172,299.25
30,68.955,300.94
35,69.018,303.25
40,69.150,305.94
45,68.951,309.13
50,69.018,312.60
55,69.005,316.02
60,68.876,319.98
65,68.767,324.05
70,68.922,328.24
75,68.961,332.39
80,68.866,336.54
85,69.062,340.74
90,68.874,344.99
95,69.051,349.21
100,68.870,353.26
105,68.739,357.27
110,68.812,361.37
115,68.714,365.30
120,68.744,369.11
125,68.735,372.84
130,68.682,376.33
135,68.656,379.54
140,68.543,382.38
145,68.342,385.06
150,68.406,387.85
155,68.187,390.74
160,68.121,393.67
165,68.233,396.60
170,67.780,399.68
175,67.818,402.38
180,67.603,404.95
185,67.253,407.41
190,67.303,410.03
195,67.102,412.67
200,66.872,415.16
205,66.718,417.65
210,66.439,420.00
215,66.446,422.47
220,65.978,424.70
225,65.882,426.92
230,65.659,429.03
235,65.322,431.22
240,65.103,433.34
245,64.847,435.33
250,64.450,437.22
255,64.475,439.07
260,64.112,440.82
265,63.600,442.33
270,63.565,443.23
275,63.255,444.78
280,62.808,446.41
285,62.444,448.02
290,62.252,449.60
295,61.956,451.15
300,61.593,452.58
305,61.170,454.06
310,60.909,455.49
315,60.441,456.82
320,60.470,458.11
325,60.046,459.40
330,59.614,460.71
335,59.273,462.07
340,58.985,463.33
345,58.573,464.59
350,58.217,465.71
355,57.950,466.88
360,57.406,468.11
365,57.015,469.17
370,56.700,470.18
375,56.302,471.14
380,55.911,472.15
385,55.449,473.12
390,54.982,474.21
395,54.554,475.21
400,54.140,476.26
405,53.806,477.19
410,53.330,477.98
415,52.833,478.78
420,52.488,479.56
425,51.873,480.66
430,51.516,481.65
435,51.050,482.49
440,50.792,483.41
445,50.262,484.17
450,49.830,485.08
455,49.438,485.77
460,48.908,486.41
465,48.522,487.03
470,48.142,487.81
475,47.387,488.45
480,47.050,489.34
485,46.357,489.90
490,46.176,490.64
495,45.767,491.20
500,45.132,491.67
505,44.826,492.25
510,44.226,492.96
515,43.620,493.68
520,43.140,494.23
525,42.871,494.99
530,42.332,495.63
535,41.738,496.25
540,41.392,496.88
545,40.651,497.42
550,40.078,498.10
555,39.751,498.74
560,39.306,499.49
565,38.646,500.05
570,38.168,500.94
575,37.621,501.50
580,37.196,502.08
585,36.623,502.49
590,36.291,503.15
595,35.756,504.01
600,35.077,504.53
605,34.695,505.27
610,34.034,506.01
615,33.627,506.67
620,32.958,507.39
625,32.646,508.02
630,31.947,508.92
635,31.472,509.61
640,30.868,510.29
645,30.290,511.08
650,29.870,511.70
655,29.192,512.28
660,28.661,512.77
665,28.139,513.55
670,27.547,514.47
675,27.070,515.05
680,26.420,515.88
685,25.834,516.46
690,25.474,517.12
695,24.805,517.88
700,24.429,518.33
705,23.865,518.95
710,23.269,519.52
715,22.870,520.51
720,22.298,521.18
725,21.633,521.93
730,21.016,522.49
735,20.368,523.15
740,19.842,523.74
745,19.448,524.58
750,18.873,525.13
755,18.446,526.03
760,17.742,526.38
765,17.273,527.23
770,16.911,528.05
775,16.369,528.77
780,15.616,529.24
785,15.403,529.73
790,14.738,530.68
795,14.521,531.17
800,14.123,531.92
805,13.756,532.62
810,13.302,533.20
815,12.902,533.99
820,12.768,534.65
825,12.276,535.28
830,12.068,535.98
835,11.568,536.37
840,11.409,536.94
845,11.062,537.56
850,10.818,537.95
855,10.533,538.41
860,10.188,539.10
865,9.932,539.48
870,9.711,540.26
875,9.339,540.70
880,9.095,541.06
885,9.013,541.54
890,8.785,542.34
895,8.634,542.59
900,8.267,542.99
905,8.111,543.60
910,7.798,543.90
915,7.726,544.73
920,7.523,545.04
925,7.373,545.37
930,7.072,545.46
935,7.118,545.93
940,6.865,546.17
945,6.744,546.57
950,6.459,546.67
955,6.407,547.23
960,6.196,548.23
965,6.059,549.12
970,5.771,549.66
975,5.547,550.26
980,5.544,551.14
985,5.237,552.22
990,5.140,553.23
995,5.006,553.92
1000,4.704,554.23
1005,4.642,555.13
1010,4.649,556.04
1015,4.439,557.10
1020,4.418,558.34
1025,4.180,559.63
1030,4.158,560.71
1035,3.987,561.53
1040,3.912,562.44
1045,3.804,563.30
1050,3.655,564.29
1055,3.427,565.24
1060,3.402,567.74
1065,3.383,569.95
1070,3.200,571.24
1075,3.157,572.37
1080,3.040,573.92
1085,3.009,574.99
1090,2.921,576.38
1095,2.790,576.87
1100,2.516,578.43
1105,2.540,579.85
1110,2.293,580.13
1115,2.283,581.17
1120,2.302,582.19
1125,2.333,583.33
1130,2.211,584.62
1135,2.020,586.20
1140,2.029,587.81
1145,2.113,588.95
1150,1.851,589.73
1155,1.817,590.94
1160,1.739,591.80
1165,1.753,592.81
1170,1.771,594.79
1175,1.627,596.60
1180,1.596,598.49
1185,1.611,600.12
1190,1.349,601.38
1195,1.321,602.56
1200,1.365,603.09
1205,1.102,604.80
1210,1.220,606.53
1215,0.978,607.68
1220,1.205,608.47
1225,1.177,609.76
1230,1.058,610.98
1235,1.129,612.48
1240,0.987,614.13
1245,0.808,615.00
1250,0.928,616.08
1255,0.843,617.08
1260,0.806,618.53
1265,0.694,619.66
1270,0.708,620.98
1275,0.701,622.44
1280,0.540,623.98
1285,0.548,625.06
1290,0.611,626.60
1295,0.590,627.57
1300,0.563,628.97
1305,0.494,630.01
1310,0.433,631.21
1315,0.507,631.61
1320,0.397,633.69
1325,0.436,634.75
1330,0.475,635.68
1335,0.383,637.17
1340,0.330,637.71
1345,0.198,638.88
1350,0.366,639.69
1355,0.087,640.42
1360,0.071,642.02
1365,0.153,642.95
1370,0.185,644.15
1375,0.051,645.33
1380,0.029,646.41
1385,0.002,647.50
1390,-0.065,648.64
1395,-0.069,650.10
1400,-0.053,650.65
1405,-0.132,651.72
1410,-0.228,652.07
1415,-0.105,653.13
1420,-0.165,653.65
1425,-0.059,654.16
1430,-0.175,654.44
1435,-0.120,655.01
1440,-0.219,655.67
1445,-0.391,656.88
1450,-0.135,657.29
1455,-0.282,657.21
1460,-0.264,658.11
1465,-0.191,658.59
1470,-0.343,658.96
1473,-0.384,659.96
,,
,,
,,
,,
,,
,,
,,
,,
,,
,,
,,
,,
,,
,,
,,
,,
,,
,,
,,
,,
,,
,,
,,
,,
,,
,,
,,
,,
,,
,,
,,
,,
,,
,,
,,
,,
,,
,,
,,
,,
,,
,,
,,
,,
,,
,,
,,
,,
,,
,,
,,
,,
,,
,,
,,
,,
,,
,,
,,
,,
,,
,,
,,
,,
,,
,,
,,
,,
,,
,,
,,
,,
,,
,,
,,
,,
,,
,,
,,
,,
,,
,,
,,
,,
,,
,,
,,
,,
,,
,,
,,
,,
,,
,,
,,
,,
,,
,,
,,
,,
,,
,,
,,
,,
,,
,,
,,
,,
,,
,,
,,
,,
,,
,,
,,
,,
,,
,,
,,
,,
,,
,,
,,
,,
,,
,,
,,
,,
,,
,,
,,
,,
,,
,,
,,
,,
,,
,,
,,
,,
,,
,,
,,
,,
,,
,,
,,
,,
,,
,,
,,
,,
,,
,,
,,
,,
,,
,,
,,
,,
,,
,,
,,
,,
,,
,,
,,
,,
,,
,,
,,
,,
,,
,,
,,
,,
,,
,,
,,
,,
,,
,,
,,
,,
,,
,,
,,
,,
,,
,,
,,
,,
,,
,,
,,
,,
,,
,,
,,
,,
,,
,,
,,
,,
,,
,,
,,
,,
,,
,,
,,
,,
,,
,,
,,
,,
,,
,,
,,
,,
,,
,,
,,
,,
,,
,,
,,
,,
,,
,,
,,
,,
,,
,,
,,
,,
,,
,,
,,
,,
,,
,,
,,
,,
,,
,,
,,
,,
,,
,,
,,
,,
,,
,,
,,
,,
,,
,,
,,
,,
,,
,,
,,
,,
,,
,,
,,
,,
,,
,,
,,
,,
,,
,,
,,
,,
,,
,,
,,
,,
,,
,,
,,
,,
,,
,,
,,
,,
,,
,,
,,
,,
,,
,,
,,
,,
,,
,,
,,
,,
,,
,,
,,
,,
,,
,,
,,
,,
,,
,,
,,
,,
,,
,,
,,
,,
,,
,,
,,
,,
,,
,,
,,
,,
,,
,,
,,
,,
,,
,,
,,
,,

File: INSTITUTE-X_MCC_N2_60K_r1.csv
Time (s),Temperature (K),HRR (W/g),
0,373.80,0.00,
1.5,375.04,-0.09,
3,376.31,-0.01,
4.5,377.64,-0.04,
6,378.97,-0.12,
7.5,380.32,-0.19,
9,381.63,-0.21,
10.5,383.07,-0.20,
12,384.49,-0.16,
13.5,385.92,-0.12,
15,387.35,-0.04,
16.5,388.79,0.04,
18,390.26,0.17,
19.5,391.74,0.25,
21,393.25,0.33,
22.5,394.75,0.42,
24,396.26,0.47,
25.5,397.82,0.54,
27,399.37,0.59,
28.5,400.88,0.71,
30,402.45,0.86,
31.5,404.03,0.98,
33,405.64,1.13,
34.5,407.27,1.29,
36,408.82,1.45,
37.5,410.42,1.61,
39,412.04,1.74,
40.5,413.64,1.89,
42,415.30,1.99,
43.5,416.98,2.13,
45,418.57,2.29,
46.5,420.18,2.47,
48,421.82,2.70,
49.5,423.47,2.95,
51,425.11,3.22,
52.5,426.72,3.48,
54,428.36,3.81,
55.5,430.05,4.21,
57,431.68,4.64,
58.5,433.33,5.11,
60,434.97,5.63,
61.5,436.62,6.26,
63,438.24,6.95,
64.5,439.88,7.76,
66,441.54,8.61,
67.5,443.16,9.51,
69,444.79,10.49,
70.5,446.46,11.50,
72,448.11,12.55,
73.5,449.75,13.58,
75,451.36,14.60,
76.5,452.98,15.56,
78,454.59,16.46,
79.5,456.19,17.24,
81,457.82,17.90,
82.5,459.44,18.44,
84,461.05,18.87,
85.5,462.64,19.17,
87,464.27,19.30,
88.5,465.85,19.25,
90,467.45,19.03,
91.5,469.06,18.63,
93,470.64,18.14,
94.5,472.20,17.60,
96,473.78,17.10,
97.5,475.40,16.55,
99,476.96,16.14,
100.5,478.54,15.77,
102,480.15,15.53,
103.5,481.69,15.37,
105,483.27,15.33,
106.5,484.87,15.41,
108,486.42,15.52,
109.5,487.95,15.64,
111,489.58,15.68,
112.5,491.15,15.62,
114,492.66,15.40,
115.5,494.22,14.96,
117,495.74,14.29,
118.5,497.29,13.40,
120,498.78,12.31,
121.5,500.33,11.02,
123,501.85,9.65,
124.5,503.35,8.23,
126,504.90,6.88,
127.5,506.43,5.67,
129,507.96,4.69,
130.5,509.43,3.92,
132,510.92,3.27,
133.5,512.39,2.77,
135,513.90,2.45,
136.5,515.37,2.25,
138,516.89,2.15,
139.5,518.34,2.07,
141,519.85,2.09,
142.5,521.35,2.12,
144,522.84,2.17,
145.5,524.30,2.22,
147,525.79,2.32,
148.5,527.28,2.46,
150,528.73,2.61,
151.5,530.23,2.78,
153,531.72,2.96,
154.5,533.21,3.19,
156,534.67,3.45,
157.5,536.14,3.74,
159,537.60,4.07,
160.5,539.06,4.44,
162,540.52,4.84,
163.5,542.02,5.24,
165,543.51,5.70,
166.5,544.97,6.16,
168,546.48,6.66,
169.5,547.88,7.13,
171,549.34,7.66,
172.5,550.82,8.28,
174,552.37,9.02,
175.5,553.81,9.87,
177,555.25,10.76,
178.5,556.71,11.71,
180,558.22,12.74,
181.5,559.67,13.90,
183,561.13,15.05,
184.5,562.61,16.22,
186,564.12,17.35,
187.5,565.54,18.51,
189,567.00,19.70,
190.5,568.50,20.90,
192,569.96,22.12,
193.5,571.39,23.33,
195,572.94,24.49,
196.5,574.38,25.61,
198,575.88,26.67,
199.5,577.34,27.60,
201,578.81,28.44,
202.5,580.24,29.24,
204,581.76,30.09,
205.5,583.23,30.92,
207,584.71,31.84,
208.5,586.18,32.77,
210,587.66,33.90,
211.5,589.14,35.06,
213,590.61,36.50,
214.5,592.12,38.10,
216,593.55,40.00,
217.5,595.06,42.13,
219,596.54,44.58,
220.5,598.06,47.35,
222,599.53,50.50,
223.5,601.03,53.99,
225,602.48,57.90,
226.5,604.05,62.17,
228,605.50,66.87,
229.5,606.96,71.92,
231,608.50,77.43,
232.5,609.92,83.32,
234,611.48,89.63,
235.5,613.01,96.33,
237,614.53,103.52,
238.5,616.01,111.12,
240,617.50,119.14,
241.5,618.99,127.51,
243,620.46,136.21,
244.5,621.97,145.14,
246,623.48,154.26,
247.5,624.96,163.53,
249,626.44,172.95,
250.5,627.91,182.41,
252,629.43,191.85,
253.5,630.91,201.24,
255,632.39,210.76,
256.5,633.82,220.26,
258,635.29,229.69,
259.5,636.75,238.95,
261,638.28,248.23,
262.5,639.72,257.73,
264,641.20,267.54,
265.5,642.65,277.67,
267,644.16,287.80,
268.5,645.61,297.51,
270,647.07,306.43,
271.5,648.53,314.25,
273,650.03,321.12,
274.5,651.54,327.52,
276,653.01,333.27,
277.5,654.51,337.62,
279,655.95,340.10,
280.5,657.43,341.10,
282,658.90,340.81,
283.5,660.39,338.88,
285,661.89,334.89,
286.5,663.36,329.08,
288,664.90,322.01,
289.5,666.40,314.09,
291,667.88,305.24,
292.5,669.39,295.33,
294,670.92,284.39,
295.5,672.44,272.86,
297,673.94,260.84,
298.5,675.44,248.65,
300,676.99,236.41,
301.5,678.58,224.10,
303,680.11,211.65,
304.5,681.68,198.80,
306,683.24,185.40,
307.5,684.79,171.54,
309,686.37,157.57,
310.5,687.93,144.02,
312,689.51,131.02,
313.5,691.08,118.77,
315,692.61,107.27,
316.5,694.26,96.64,
318,695.81,86.80,
319.5,697.38,77.76,
321,698.93,69.41,
322.5,700.47,61.73,
324,702.08,54.70,
325.5,703.62,48.38,
327,705.18,42.71,
328.5,706.74,37.65,
330,708.28,33.15,
331.5,709.81,29.08,
333,711.38,25.40,
334.5,712.86,22.11,
336,714.48,19.24,
337.5,716.00,16.73,
339,717.55,14.49,
340.5,719.05,12.53,
342,720.57,10.75,
343.5,722.06,9.04,
345,723.60,7.32,
346.5,725.10,5.65,
348,726.61,4.14,
349.5,728.08,2.89,
351,729.60,1.90,
352.5,731.06,1.22,
354,732.53,0.75,
355.5,734.03,0.39,
357,735.55,0.23,
358.5,737.00,0.13,
360,738.42,0.12,
361.5,739.97,0.09,
363,741.40,0.05,
364.5,742.88,0.02,
366,744.33,-0.04,
367.5,745.81,-0.10,
369,747.27,-0.11,
370.5,748.73,-0.08,
372,750.20,-0.06,
373.5,751.70,-0.11,
375,753.11,-0.16,
376.5,754.57,-0.12,
378,756.00,-0.04,
379.5,757.46,0.03,
381,758.91,0.06,
382.5,760.38,0.06,
384,761.82,-0.04,
385.5,763.32,-0.15,
387,764.77,-0.22,
388.5,766.27,-0.19,
390,767.73,-0.12,
391.5,769.20,-0.05,
393,770.65,-0.05,
394.5,772.14,-0.08,
396,773.63,-0.14,
397.5,775.13,-0.16,
399,776.60,-0.17,
400.5,778.08,-0.13,
402,779.55,-0.10,
403.5,781.02,-0.08,
405,782.51,-0.10,
406.5,783.98,-0.10,
408,785.44,-0.08,
409.5,786.92,-0.07,
411,788.44,-0.07,
412.5,789.88,-0.12,
414,791.36,-0.17,
415.5,792.88,-0.19,
417,794.37,-0.19,
418.5,795.84,-0.16,
420,797.34,-0.11,
421.5,798.84,-0.09,
423,800.38,-0.05,
424.5,801.87,0.00,
426,803.38,0.00,
427.5,804.88,-0.01,
429,806.39,-0.06,
430.5,807.90,-0.01,
432,809.42,0.03,
433.5,810.95,0.08,
435,812.41,0.11,
436.5,813.96,0.10,
438,815.49,0.09,
439.5,817.02,0.06,
441,818.52,0.05,
442.5,820.06,0.00,
444,821.57,-0.03,
445.5,823.07,-0.07,
447,824.56,-0.06,