Folder: matl-db/Wood/Calibration_Data/TIFP+UCT (part 6)

File: TIFP+UCT_STA_N2_20K_R3.csv
Time (s),Temperature (K),Mass (mg),Heat Flow Rate (W/g)
0,303.245,4.9174,-0.0034
8,303.2403,4.9174,-0.0034
16,303.2367,4.9163,-0.0036
24,303.229,4.9159,-0.0038
32,303.225,4.915,-0.0039
40,303.2213,4.9148,-0.0042
48,303.215,4.9145,-0.0044
56,303.2123,4.9148,-0.0042
64,303.2047,4.9148,-0.0047
72,303.202,4.9147,-0.0046
80,303.2,4.9139,-0.0049
88,303.1963,4.9131,-0.0047
96,303.193,4.9142,-0.0047
104,303.1913,4.9128,-0.0048
112,303.1883,4.9142,-0.0047
120,303.183,4.9129,-0.0049
128,303.1813,4.9129,-0.0044
136,303.177,4.9128,-0.0045
144,303.178,4.9129,-0.0045
152,303.175,4.9139,-0.0042
160,303.1747,4.9129,-0.004
168,303.172,4.9129,-0.0038
176,303.1673,4.9118,-0.0037
184,303.1637,4.912,-0.0035
192,303.163,4.9119,-0.0035
200,303.1623,4.9116,-0.0033
208,303.158,4.9121,-0.0033
216,303.157,4.9116,-0.0031
224,303.154,4.9116,-0.0031
232,303.1517,4.9115,-0.0032
240,303.152,4.9116,-0.0032
248,303.148,4.9109,-0.0032
256,303.1463,4.9099,-0.0033
264,303.147,4.9103,-0.0035
272,303.146,4.9103,-0.0034
280,303.148,4.91,-0.0033
288,303.146,4.9103,-0.0032
296,303.1477,4.9077,-0.0034
304,303.1467,4.9089,-0.0033
312,303.165,4.9087,-0.0042
320,303.2417,4.9094,-0.0086
328,303.451,4.9076,-0.0191
336,303.853,4.9104,-0.037
344,304.5213,4.9092,-0.0629
352,305.501,4.9104,-0.0982
360,306.844,4.9095,-0.1394
368,308.5867,4.9095,-0.1872
376,310.7297,4.9082,-0.2387
384,313.273,4.9073,-0.2934
392,316.1897,4.9091,-0.3487
400,319.44,4.9084,-0.4031
408,322.973,4.9084,-0.4542
416,326.7413,4.9076,-0.5001
424,330.68,4.9082,-0.5394
432,334.736,4.9077,-0.572
440,338.8517,4.9062,-0.5973
448,342.986,4.9065,-0.616
456,347.091,4.9044,-0.6287
464,351.1367,4.9029,-0.6371
472,355.088,4.9013,-0.6406
480,358.929,4.9003,-0.6381
488,362.6497,4.8989,-0.6292
496,366.2303,4.8961,-0.6136
504,369.683,4.8947,-0.591
512,372.9953,4.893,-0.5634
520,376.1847,4.8926,-0.5324
528,379.255,4.8922,-0.4994
536,382.2213,4.8889,-0.4671
544,385.0983,4.8891,-0.4368
552,387.897,4.8875,-0.4108
560,390.628,4.8875,-0.388
568,393.3107,4.8876,-0.3693
576,395.957,4.8876,-0.3538
584,398.5747,4.8872,-0.3418
592,401.1753,4.8859,-0.3325
600,403.771,4.8862,-0.3259
608,406.3683,4.8842,-0.321
616,408.9683,4.8842,-0.3175
624,411.581,4.8842,-0.3151
632,414.2077,4.8842,-0.3131
640,416.847,4.8842,-0.3122
648,419.506,4.8829,-0.3132
656,422.1773,4.8802,-0.3144
664,424.863,4.8802,-0.317
672,427.561,4.8788,-0.3196
680,430.269,4.8775,-0.3216
688,432.983,4.8775,-0.3234
696,435.701,4.8752,-0.3251
704,438.4203,4.8748,-0.3261
712,441.136,4.8721,-0.3268
720,443.849,4.8708,-0.3266
728,446.5593,4.8694,-0.3256
736,449.2583,4.8668,-0.3238
744,451.949,4.8658,-0.3222
752,454.6337,4.8641,-0.3214
760,457.3063,4.8613,-0.3228
768,459.975,4.8584,-0.33
776,462.631,4.8547,-0.3236
784,465.283,4.8497,-0.3175
792,467.925,4.8452,-0.3124
800,470.562,4.8416,-0.3094
808,473.196,4.837,-0.3076
816,475.825,4.8299,-0.3058
824,478.4527,4.8244,-0.3042
832,481.079,4.8169,-0.3027
840,483.705,4.8127,-0.301
848,486.331,4.8035,-0.2991
856,488.9617,4.7988,-0.2982
864,491.592,4.7883,-0.2962
872,494.227,4.781,-0.2943
880,496.865,4.7722,-0.2917
888,499.507,4.7649,-0.2888
896,502.1537,4.7554,-0.2849
904,504.8023,4.7453,-0.2823
912,507.455,4.7347,-0.2793
920,510.1083,4.7239,-0.2773
928,512.767,4.7106,-0.2749
936,515.426,4.7002,-0.2728
944,518.085,4.6873,-0.272
952,520.7443,4.6739,-0.2714
960,523.408,4.6565,-0.2715
968,526.0667,4.6416,-0.2727
976,528.7287,4.6246,-0.2738
984,531.389,4.6066,-0.2754
992,534.0497,4.5847,-0.2774
1000,536.7067,4.5641,-0.2797
1008,539.366,4.5431,-0.2824
1016,542.0207,4.5209,-0.2862
1024,544.6763,4.4957,-0.2903
1032,547.329,4.4706,-0.2951
1040,549.986,4.4433,-0.2998
1048,552.6437,4.415,-0.3045
1056,555.299,4.3857,-0.3082
1064,557.9523,4.355,-0.3122
1072,560.6067,4.3212,-0.315
1080,563.262,4.2887,-0.3173
1088,565.9163,4.2557,-0.3189
1096,568.5703,4.2205,-0.3201
1104,571.228,4.1838,-0.3205
1112,573.8843,4.1493,-0.3207
1120,576.5427,4.1125,-0.321
1128,579.205,4.0726,-0.3214
1136,581.865,4.0328,-0.3227
1144,584.5283,3.9916,-0.3247
1152,587.19,3.9501,-0.3281
1160,589.858,3.9061,-0.334
1168,592.522,3.8597,-0.3417
1176,595.188,3.8112,-0.3518
1184,597.8567,3.7607,-0.3641
1192,600.523,3.7069,-0.3785
1200,603.187,3.6501,-0.3949
1208,605.849,3.592,-0.413
1216,608.5097,3.5312,-0.432
1224,611.174,3.4655,-0.4519
1232,613.833,3.3995,-0.472
1240,616.494,3.3312,-0.4917
1248,619.151,3.2604,-0.5102
1256,621.8087,3.188,-0.5283
1264,624.4673,3.1132,-0.5457
1272,627.124,3.0363,-0.5633
1280,629.7833,2.96,-0.582
1288,632.4407,2.8832,-0.6032
1296,635.096,2.8016,-0.6284
1304,637.7523,2.7187,-0.6577
1312,640.41,2.6333,-0.6927
1320,643.065,2.5461,-0.7319
1328,645.7227,2.4582,-0.7761
1336,648.3777,2.3601,-0.8243
1344,651.032,2.262,-0.8735
1352,653.6887,2.1622,-0.9226
1360,656.3437,2.0562,-0.9662
1368,658.999,1.9487,-0.9977
1376,661.6533,1.8437,-1.0108
1384,664.3087,1.7403,-0.9968
1392,666.966,1.6442,-0.9504
1400,669.6253,1.5572,-0.8672
1408,672.2837,1.4853,-0.7525
1416,674.945,1.4295,-0.6183
1424,677.6093,1.3869,-0.4821
1432,680.2767,1.3602,-0.3637
1440,682.947,1.3389,-0.2745
1448,685.6167,1.3251,-0.2151
1456,688.285,1.3136,-0.1789
1464,690.95,1.3026,-0.1566
1472,693.616,1.2939,-0.1431
1480,696.2803,1.2843,-0.135
1488,698.945,1.274,-0.1291
1496,701.604,1.2638,-0.1251
1504,704.265,1.2552,-0.1206
1512,706.924,1.2468,-0.1173
1520,709.5823,1.2364,-0.1161
1528,712.2433,1.2281,-0.116
1536,714.901,1.22,-0.1167
1544,717.558,1.2126,-0.1185
1552,720.217,1.2049,-0.122
1560,722.873,1.1968,-0.1258
1568,725.5333,1.1891,-0.1317
1576,728.1927,1.1812,-0.1382
1584,730.853,1.1745,-0.146
1592,733.511,1.1683,-0.1543
1600,736.171,1.1594,-0.163
1608,738.825,1.1534,-0.1724
1616,741.479,1.1461,-0.1829
1624,744.1333,1.1402,-0.1943
1632,746.786,1.1359,-0.2064
1640,749.4443,1.1299,-0.2188
1648,752.1017,1.1242,-0.2308
1656,754.761,1.1181,-0.2433
1664,757.4217,1.1135,-0.2566
1672,760.0847,1.1088,-0.2679
1680,762.749,1.1056,-0.2795
1688,765.4177,1.1014,-0.2886
1696,768.0847,1.0971,-0.2957
1704,770.753,1.0917,-0.3019
1712,773.4263,1.0903,-0.3091
1720,776.0987,1.0847,-0.3163
1728,778.775,1.0807,-0.3235
1736,781.4507,1.079,-0.3309
1744,784.1237,1.076,-0.3375
1752,786.798,1.0711,-0.3442
1760,789.4746,1.068,-0.3495
1768,792.1473,1.0639,-0.3557
1776,794.821,1.0612,-0.361
1784,797.4963,1.0575,-0.368
1792,800.1733,1.0545,-0.3765
1800,802.849,1.0532,-0.3849
1808,805.5253,1.0493,-0.3915
1816,808.2,1.0473,-0.3978
1824,810.872,1.0425,-0.4044
1832,813.5487,1.0411,-0.4132
1840,816.2223,1.0373,-0.4222
1848,818.892,1.0358,-0.43
1856,821.567,1.0331,-0.4373
1864,824.238,1.0304,-0.4462
1872,826.907,1.0264,-0.4585
1880,829.5773,1.0241,-0.4707
1888,832.2453,1.023,-0.4816
1896,834.908,1.0203,-0.4918
1904,837.574,1.0174,-0.5038
1912,840.2407,1.0144,-0.5192
1920,842.905,1.0123,-0.5351
1928,845.5647,1.0095,-0.5514
1936,848.2247,1.0081,-0.5689
1944,850.883,1.0053,-0.5923
1952,853.546,1.0036,-0.621
1960,856.208,1.0027,-0.6519
1968,858.867,1.0,-0.6845
1976,861.525,0.9986,-0.7165
1984,864.184,0.996,-0.7481
1992,866.839,0.9933,-0.7799
2000,869.495,0.9933,-0.8106
2008,872.148,0.9896,-0.8393
2016,874.804,0.9882,-0.8672
2024,877.4577,0.9856,-0.8942
2032,880.115,0.9856,-0.9066
2040,882.774,0.9829,-0.8794
2048,885.4337,0.9806,-0.8299
2056,888.0923,0.9788,-0.7804
2064,890.756,0.9762,-0.7442
2072,893.4163,0.9762,-0.7219
2080,896.0753,0.9735,-0.7103
2088,898.738,0.9721,-0.7071
2096,901.397,0.9695,-0.7129
2104,904.0624,0.9681,-0.722
2112,906.726,0.9658,-0.7372
2120,909.391,0.9641,-0.7564
2128,912.0596,0.9628,-0.7742
2136,914.729,0.9601,-0.7879
2144,917.3967,0.9614,-0.8001
2152,920.0657,0.9587,-0.8097
2160,922.734,0.9577,-0.8208
2168,925.4053,0.956,-0.8313
2176,928.0787,0.9547,-0.8428
2184,930.752,0.9534,-0.8588
2192,933.424,0.952,-0.8783
2200,936.0993,0.9507,-0.8999
2208,938.773,0.9493,-0.92
2216,941.449,0.9493,-0.9394
2224,944.1233,0.9477,-0.9567
2232,946.798,0.9463,-0.9696
2240,949.4733,0.9463,-0.98
2248,952.1467,0.9436,-0.9887
2256,954.819,0.9423,-0.9999
2264,957.4907,0.9423,-1.0145
2272,960.159,0.9409,-1.0284
2280,962.829,0.9399,-1.0448
2288,965.4967,0.9406,-1.0671
2296,968.1617,0.9376,-1.0973
2304,970.826,0.9376,-1.1277
2312,973.4883,0.9376,-1.1571
2320,976.0903,0.9349,-1.1945
2328,978.421,0.9336,-1.2863
2336,980.331,0.9329,-1.453
2344,981.7543,0.9318,-1.6861
2352,982.679,0.9322,-1.9678
2357,983.001,0.9319,-2.1501

File: TIFP+UCT_Wood_Gasification_30kW_hor_parallel_R4.csv
Time (s),Mass (g),TC back 1 (K),TC back 2 (K),TC back 3 (K)
0,92.08,294.95,295.35,296.35
12,92.32,295.95,296.45,298.25
24,92.20,296.85,297.35,300.15
36,92.03,297.85,298.15,301.95
48,91.49,298.75,298.85,303.75
60,91.18,299.75,299.65,305.45
72,90.86,300.75,300.45,307.25
84,90.28,301.85,301.35,309.05
96,89.89,302.95,302.15,311.25
108,89.52,304.05,303.05,313.35
120,89.08,305.15,304.05,315.45
132,88.64,306.35,305.05,317.45
144,88.41,307.75,306.15,319.55
156,88.06,309.05,307.25,321.65
168,87.65,310.55,308.65,323.85
180,87.23,312.15,309.95,326.15
192,87.02,313.75,311.45,328.45
204,86.72,315.55,312.95,330.85
216,86.34,317.45,314.55,333.25
228,86.09,319.45,316.35,335.65
240,85.76,321.45,318.05,338.05
252,85.46,323.65,319.95,340.55
264,85.15,325.85,321.95,342.95
276,84.88,328.15,324.05,345.45
288,84.62,330.45,326.15,347.85
300,84.33,332.75,328.35,350.35
312,83.89,335.15,330.55,352.65
324,83.63,337.55,332.85,355.15
336,83.35,340.05,335.15,357.45
348,83.11,342.45,337.45,359.85
360,82.77,344.85,339.85,362.25
372,82.44,347.45,342.35,364.45
384,82.13,349.95,344.75,366.55
396,81.89,352.55,347.15,368.45
408,81.58,355.15,349.55,370.35
420,81.34,357.75,352.05,372.25
432,81.01,360.25,354.45,373.95
444,80.63,362.65,356.85,375.75
456,80.40,364.85,359.25,377.35
468,80.11,366.85,361.55,378.95
480,79.80,368.75,363.85,380.45
492,79.51,371.05,366.05,381.85
504,79.26,373.15,368.25,383.35
516,78.88,374.55,370.35,384.65
528,78.61,375.85,372.25,385.95
540,78.30,376.95,374.05,387.15
552,77.97,378.05,375.65,388.35
564,77.61,379.05,376.95,389.45
576,77.33,379.85,378.05,390.45
588,77.06,380.65,379.05,391.45
600,76.70,381.35,379.95,392.35
612,76.47,381.95,380.75,393.35
624,76.24,382.55,381.45,394.35
636,75.99,383.05,382.15,395.25
648,75.53,383.55,382.75,396.15
660,75.39,384.05,383.35,397.05
672,74.98,384.55,384.05,398.05
684,74.77,385.05,384.65,398.95
696,74.46,385.55,385.25,399.95
708,74.16,386.05,385.85,400.85
720,73.93,386.45,386.45,401.85
732,73.57,386.95,387.05,402.85
744,73.32,387.45,387.75,403.85
756,73.09,387.95,388.35,404.85
768,72.81,388.55,389.05,405.95
780,72.50,389.05,389.65,406.95
792,72.19,389.65,390.35,408.05
804,71.92,390.15,391.05,409.15
816,71.71,390.75,391.75,410.25
828,71.49,391.35,392.35,411.45
840,71.28,391.95,393.05,412.55
852,70.97,392.55,393.75,413.75
864,70.65,393.15,394.55,414.95
876,70.41,393.85,395.35,416.15
888,70.10,394.45,396.15,417.35
900,69.85,395.15,396.85,418.65
912,69.59,395.85,397.65,419.95
924,69.36,396.65,398.55,421.35
936,69.10,397.35,399.35,422.75
948,68.85,398.15,400.35,424.25
960,68.57,398.95,401.25,425.75
972,68.36,399.75,402.15,427.25
984,68.07,400.65,403.15,428.85
996,67.78,401.45,404.15,430.45
1008,67.53,402.45,405.25,432.15
1020,67.25,403.45,406.25,433.85
1032,67.05,404.55,407.45,435.65
1044,66.77,405.55,408.55,437.45
1056,66.52,406.75,409.75,439.25
1068,66.27,407.85,410.95,441.15
1080,66.09,409.05,412.15,443.05
1092,65.78,410.35,413.45,445.05
1104,65.52,411.55,414.75,447.05
1116,65.25,412.85,416.05,449.05
1128,65.04,414.25,417.45,451.05
1140,64.77,415.65,418.85,453.15
1152,64.53,417.05,420.35,455.15
1164,64.25,418.65,421.85,457.35
1176,64.00,420.25,423.45,459.35
1188,63.74,421.85,425.05,461.45
1200,63.50,423.55,426.65,463.55
1212,63.23,425.25,428.45,465.55
1224,62.98,426.95,430.15,467.65
1236,62.74,428.75,431.95,469.75
1248,62.51,430.55,433.75,471.85
1260,62.28,432.35,435.65,473.85
1272,61.99,434.25,437.55,475.95
1284,61.74,436.15,439.55,477.95
1296,61.47,438.05,441.55,479.95
1308,61.22,439.95,443.55,482.05
1320,60.95,441.95,445.65,484.05
1332,60.70,443.85,447.75,486.05
1344,60.47,445.75,449.85,487.95
1356,60.17,447.75,451.95,489.95
1368,59.91,449.65,454.05,491.85
1380,59.68,451.65,456.15,493.85
1392,59.40,453.55,458.35,495.75
1404,59.10,455.45,460.45,497.75
1416,58.86,457.45,462.65,499.65
1428,58.60,459.35,464.75,501.45
1440,58.28,461.15,466.85,503.35
1452,58.01,463.05,468.95,505.25
1464,57.73,464.95,471.15,507.15
1476,57.42,466.75,473.15,508.95
1488,57.18,468.45,475.25,510.75
1500,56.87,470.25,477.25,512.45
1512,56.53,472.05,479.25,514.25
1524,56.29,473.75,481.25,516.05
1536,56.06,475.55,483.25,517.85
1548,55.68,477.25,485.25,519.55
1560,55.37,478.85,487.15,521.25
1572,55.04,480.55,489.15,522.95
1584,54.74,482.15,491.05,524.75
1596,54.47,483.85,493.05,526.45
1608,54.11,485.35,494.95,528.15
1620,53.82,486.95,496.85,529.85
1632,53.50,488.45,498.65,531.45
1644,53.18,490.05,500.55,533.15
1656,52.86,491.55,502.45,534.65
1668,52.52,493.05,504.35,536.35
1680,52.20,494.65,506.15,537.85
1692,51.85,496.15,507.95,539.45
1704,51.56,497.65,509.65,541.05
1716,51.25,499.15,511.55,542.55
1728,50.89,500.65,513.35,544.15
1740,50.59,502.15,515.15,545.65
1752,50.26,503.65,516.95,547.05
1764,49.93,505.15,518.75,548.55
1776,49.57,506.75,520.55,550.05
1788,49.22,508.25,522.35,551.55
1800,48.89,509.85,524.15,552.95
1812,48.58,511.45,525.95,554.45
1824,48.21,512.95,527.75,555.85
1836,47.90,514.55,529.55,557.25
1848,47.52,516.05,531.25,558.55
1860,47.18,517.65,533.05,559.95
1872,46.86,519.15,534.85,561.35
1884,46.52,520.65,536.55,562.65
1896,46.18,522.15,538.35,563.95
1908,45.83,523.75,540.05,565.25
1920,45.48,525.25,541.85,566.55
1932,45.13,526.75,543.55,567.85
1944,44.79,528.25,545.25,569.05
1956,44.44,529.75,546.95,570.15
1968,44.09,531.25,548.65,571.45
1980,43.73,532.65,550.35,572.55
1992,43.39,534.15,551.95,573.65
2004,43.04,535.65,553.65,574.85
2016,42.72,537.15,555.25,575.95
2028,42.36,538.55,556.85,577.05
2040,42.00,539.85,558.35,578.05
2052,41.62,541.25,559.85,579.15
2064,41.27,542.65,561.25,580.15
2076,40.93,544.25,562.85,581.25
2088,40.58,545.75,564.25,582.15
2100,40.24,547.35,565.75,583.15
2112,39.88,548.85,567.25,584.05
2124,39.55,550.35,568.85,584.95
2136,39.19,551.85,570.25,585.85
2148,38.84,553.25,571.75,586.75
2160,38.52,554.65,573.15,587.75
2172,38.20,556.15,574.55,588.55
2184,37.85,557.55,576.05,589.45
2196,37.52,558.95,577.45,590.35
2208,37.18,560.25,578.75,591.15
2220,36.87,561.55,580.05,592.05
2232,36.54,562.75,581.35,592.85
2244,36.21,564.05,582.55,593.65
2256,35.94,565.25,583.65,594.45
2268,35.60,566.35,584.75,595.35
2280,35.29,567.55,585.85,596.05
2292,35.00,568.65,586.85,596.85
2304,34.69,569.75,587.95,597.65
2316,34.42,570.75,588.85,598.35
2328,34.11,571.85,589.75,599.15
2340,33.84,572.65,590.65,599.95
2352,33.56,572.55,591.45,600.75
2364,33.33,573.25,592.25,601.55
2376,33.07,573.85,593.05,602.25
2388,32.82,574.55,593.85,602.85
2400,32.58,575.15,594.55,603.45
2412,32.33,575.95,595.15,603.95
2424,32.12,576.55,595.85,604.45
2436,31.86,577.15,596.55,604.85
2448,31.67,577.85,597.25,605.35
2460,31.44,578.55,598.05,605.75
2472,31.21,579.15,598.75,606.15
2484,31.02,579.85,599.65,606.45
2496,30.81,580.45,600.55,606.75
2508,30.59,581.05,601.45,606.95
2520,30.41,581.65,602.35,607.35
2532,30.23,582.25,603.35,607.45
2544,30.02,582.75,604.15,607.65
2556,29.87,583.25,605.05,607.95
2568,29.70,583.65,605.75,608.25
2580,29.52,584.15,606.55,608.45
2592,29.33,584.65,607.25,608.65
2604,29.16,585.05,607.95,608.75
2616,29.02,585.45,608.65,608.95
2628,28.87,585.85,609.15,609.05
2640,28.73,586.15,609.45,609.25
2652,28.59,586.45,609.75,609.35
2664,28.45,586.85,610.15,609.45
2676,28.32,587.25,610.55,609.55
2688,28.20,587.65,610.85,609.45
2700,28.07,588.05,611.25,609.55
2712,27.95,588.35,611.45,609.45
2724,27.83,588.65,611.65,609.45
2736,27.77,588.95,611.85,609.45
2748,27.61,589.25,612.05,609.45
2760,27.51,589.45,612.15,609.55
2772,27.41,589.75,612.25,609.55
2784,27.31,590.05,612.25,609.65
2796,27.23,590.25,612.15,609.75
2808,27.14,590.45,612.25,609.65
2820,27.06,590.55,612.05,609.65
2832,26.98,590.85,612.25,609.85
2844,26.89,590.95,612.25,609.85
2856,26.81,591.05,612.35,609.85
2868,26.74,591.35,612.45,609.95
2880,26.66,591.45,612.55,610.05
2892,26.61,591.65,612.45,609.95
2904,26.53,591.75,612.45,610.15
2916,26.49,591.85,612.55,610.15
2928,26.42,592.05,612.55,610.25
2940,26.36,592.05,612.55,610.25
2952,26.28,592.15,612.45,610.25
2964,26.26,592.15,612.45,610.25
2976,26.19,592.05,612.45,610.25
2988,26.13,592.15,612.45,610.35
3000,26.12,592.15,612.45,610.45
3012,26.04,592.15,612.15,610.35
3024,25.99,592.05,612.15,610.25
3036,25.97,591.95,612.05,610.35
3048,25.92,591.85,611.95,610.35
3060,25.89,591.75,611.85,610.25
3072,25.83,591.75,611.85,610.35
3084,25.80,591.65,611.75,610.45
3096,25.74,591.55,611.55,610.45
3108,25.73,591.35,611.35,610.35
3120,25.69,591.25,611.25,610.35
3132,25.63,591.25,611.25,610.45
3144,25.61,590.95,611.15,610.35
3156,25.57,590.85,611.05,610.35
3168,25.54,590.65,610.95,610.35
3180,25.50,590.45,610.85,610.35
3192,25.47,590.25,610.55,610.25
3204,25.43,590.05,610.35,610.25
3216,25.39,589.95,610.25,610.25
3228,25.38,589.75,610.15,610.35
3240,25.34,589.55,610.05,610.25
3252,25.30,589.45,609.85,610.25
3264,25.27,589.35,609.75,610.25
3276,25.26,589.25,609.75,610.25
3288,25.21,589.05,609.35,610.15
3300,25.19,588.85,609.25,610.15
3312,25.17,588.75,609.15,610.25
3324,25.14,588.55,609.05,610.25
3336,25.09,588.45,608.95,610.25
3348,25.08,588.25,608.85,610.25
3360,25.06,588.05,608.75,610.25
3372,25.06,587.95,608.55,610.05
3384,25.00,587.85,608.45,610.05
3396,24.97,587.75,608.35,610.05
3408,24.96,587.55,608.25,610.15
3420,24.93,587.35,608.15,610.15
3432,24.92,587.25,608.15,610.15
3444,24.88,587.15,608.05,610.15
3456,24.87,586.95,607.95,610.15
3468,24.83,586.75,607.85,610.25
3480,24.81,586.65,607.75,610.25
3492,24.79,586.55,607.65,610.35
3500,24.78,586.45,607.55,610.45