Folder: matl-db/Wood/Calibration_Data/TIFP+UCT (part 2)

File: TIFP+UCT_Gasification_hor_parallel_60kW_R2.csv
Time (s),Mass (g),TC back 1 (K),TC back 2 (K),TC back 3 (K)
0,111.07,305.25,303.75,304.45
6,110.46,306.75,304.15,305.35
12,109.84,308.45,304.95,306.55
18,108.65,310.15,305.85,307.85
24,107.92,311.65,306.75,309.25
30,107.21,313.35,307.65,310.65
36,106.50,314.95,308.55,312.05
42,105.90,316.65,309.45,313.45
48,105.31,318.15,310.25,314.85
54,104.71,319.65,311.05,316.25
60,104.16,321.15,311.85,317.65
66,103.63,322.65,312.75,319.05
72,103.09,324.05,313.55,320.45
78,102.58,325.55,314.45,321.85
84,102.08,327.05,315.25,323.35
90,101.61,328.55,316.15,324.65
96,101.14,330.05,317.05,326.15
102,100.66,331.45,317.95,327.55
108,100.21,332.95,318.85,328.95
114,99.77,334.45,319.75,330.45
120,99.33,335.95,320.65,331.85
126,98.90,337.45,321.65,333.35
132,98.45,338.95,322.55,334.85
138,98.04,340.45,323.55,336.35
144,97.62,342.05,324.55,337.85
150,97.19,343.65,325.65,339.45
156,96.77,345.25,326.65,340.95
162,96.37,346.85,327.75,342.65
168,95.95,348.55,328.85,344.15
174,95.55,350.25,329.95,345.85
180,95.13,351.95,331.05,347.45
186,94.73,353.65,332.25,349.15
192,94.32,355.45,333.45,350.75
198,93.92,357.15,334.65,352.55
204,93.52,358.95,335.85,354.35
210,93.13,360.75,337.15,356.25
216,92.73,362.45,338.45,358.05
222,92.33,364.15,339.75,359.95
228,91.96,365.85,341.05,361.75
234,91.57,367.55,342.45,363.65
240,91.17,369.25,343.85,365.45
246,90.80,370.75,345.25,367.25
252,90.41,372.25,346.75,369.05
258,90.03,373.65,348.15,370.65
264,89.66,375.05,349.65,372.35
270,89.27,376.35,351.15,373.85
276,88.90,377.55,352.75,375.35
282,88.54,378.75,354.35,376.75
288,88.15,379.95,356.05,378.05
294,87.77,381.05,357.65,379.35
300,87.43,382.15,359.45,380.55
306,87.05,383.25,361.15,381.65
312,86.65,384.25,362.85,382.75
318,86.29,385.25,364.65,383.65
324,85.93,386.25,366.55,384.55
330,85.55,387.15,368.55,385.35
336,85.16,388.05,370.85,386.25
342,84.81,388.95,373.25,386.95
348,84.43,389.85,375.35,387.75
354,84.05,390.75,377.05,388.55
360,83.70,391.65,378.45,389.35
366,83.33,392.45,379.55,390.05
372,82.95,393.25,380.35,390.75
378,82.58,394.15,381.15,391.55
384,82.21,395.05,381.75,392.35
390,81.85,395.85,382.45,393.15
396,81.47,396.65,383.05,393.85
402,81.11,397.55,383.75,394.65
408,80.74,398.55,384.35,395.45
414,80.37,399.35,385.05,396.35
420,80.00,400.35,385.75,397.15
426,79.65,401.25,386.35,397.95
432,79.28,402.15,387.15,398.75
438,78.90,403.05,387.85,399.65
444,78.54,403.95,388.55,400.45
450,78.18,404.95,389.35,401.25
456,77.83,405.95,390.05,402.15
462,77.46,406.95,390.75,402.95
468,77.11,407.95,391.55,403.85
474,76.75,408.95,392.25,404.75
480,76.37,409.95,392.95,405.55
486,76.03,410.95,393.75,406.45
492,75.68,411.85,394.45,407.35
498,75.29,412.85,395.15,408.25
504,74.92,413.85,395.85,409.15
510,74.57,414.85,396.55,410.05
516,74.20,415.85,397.25,410.85
522,73.86,416.95,397.95,411.75
528,73.51,417.95,398.65,412.65
534,73.14,419.05,399.45,413.55
540,72.79,420.05,400.15,414.45
546,72.42,421.15,400.85,415.25
552,72.07,422.25,401.55,416.15
558,71.72,423.45,402.25,417.05
564,71.34,424.55,403.05,417.95
570,71.00,425.65,403.75,418.85
576,70.63,426.85,404.55,419.75
582,70.28,427.95,405.25,420.75
588,69.93,429.15,405.95,421.75
594,69.57,430.25,406.75,422.65
600,69.21,431.45,407.45,423.65
606,68.86,432.65,408.25,424.65
612,68.50,434.05,409.05,425.65
618,68.14,435.25,409.85,426.65
624,67.76,436.55,410.55,427.75
630,67.39,437.85,411.45,428.75
636,67.03,439.25,412.15,429.85
642,66.65,440.75,412.95,430.95
648,66.29,442.15,413.85,432.05
654,65.92,443.65,414.65,433.15
660,65.54,445.05,415.55,434.25
666,65.17,446.55,416.35,435.45
672,64.79,448.15,417.25,436.65
678,64.41,449.75,418.25,437.85
684,64.03,451.45,419.15,439.05
690,63.65,453.15,420.15,440.25
696,63.25,454.95,421.15,441.55
702,62.86,456.75,422.15,442.95
708,62.48,458.55,423.25,444.35
714,62.08,460.35,424.35,445.75
720,61.67,462.25,425.45,447.15
726,61.27,464.15,426.55,448.65
732,60.88,466.15,427.75,450.05
738,60.47,468.25,428.95,451.65
744,60.07,470.25,430.15,453.25
750,59.67,472.25,431.35,454.85
756,59.27,474.45,432.65,456.55
762,58.86,476.55,433.95,458.25
768,58.46,478.85,435.35,460.05
774,58.05,481.05,436.75,461.75
780,57.65,483.25,438.15,463.65
786,57.25,485.55,439.65,465.55
792,56.83,487.85,441.15,467.45
798,56.43,490.25,442.75,469.45
804,56.02,492.65,444.35,471.45
810,55.61,494.95,445.95,473.45
816,55.19,497.45,447.75,475.55
822,54.78,499.95,449.45,477.65
828,54.37,502.35,451.25,479.85
834,53.97,504.85,453.15,482.05
840,53.55,507.35,455.05,484.25
846,53.16,509.85,457.05,486.45
852,52.74,512.45,459.05,488.75
858,52.33,514.85,461.15,490.95
864,51.91,517.35,463.35,493.25
870,51.50,519.85,465.55,495.55
876,51.10,522.35,467.75,497.85
882,50.69,524.85,470.05,500.15
888,50.27,527.25,472.45,502.35
894,49.85,529.65,474.75,504.75
900,49.44,532.05,477.15,507.05
906,49.03,534.45,479.65,509.35
912,48.62,536.85,482.15,511.55
918,48.20,539.15,484.65,513.85
924,47.78,541.45,487.25,516.15
930,47.37,543.85,489.85,518.45
936,46.96,546.25,492.55,520.85
942,46.54,548.55,495.15,523.15
948,46.12,550.95,497.85,525.45
954,45.71,553.45,500.55,527.85
960,45.28,555.75,503.15,530.15
966,44.87,558.15,505.85,532.55
972,44.45,560.55,508.55,535.05
978,44.02,563.05,511.15,537.45
984,43.62,565.35,513.75,539.85
990,43.20,567.85,516.35,542.25
996,42.77,570.25,518.95,544.75
1002,42.35,572.65,521.45,547.25
1008,41.93,575.15,523.95,549.65
1014,41.52,577.55,526.55,552.25
1020,41.09,580.05,529.05,554.85
1026,40.65,582.55,531.55,557.45
1032,40.24,585.15,534.15,560.15
1038,39.81,587.55,536.75,562.75
1044,39.38,590.15,539.45,565.35
1050,38.95,592.65,542.05,568.05
1056,38.53,595.05,544.75,570.75
1062,38.16,597.65,547.25,573.35
1068,37.74,600.05,549.65,576.15
1074,37.32,602.55,552.05,578.95
1080,36.87,604.95,554.55,581.85
1086,36.46,607.35,557.05,584.65
1092,36.03,609.75,559.85,587.45
1098,35.61,612.45,562.85,590.35
1104,35.20,614.95,565.95,593.25
1110,34.78,617.45,569.05,596.25
1116,34.36,620.05,572.05,599.25
1122,33.91,622.65,575.25,602.25
1128,33.49,625.25,578.65,605.25
1134,33.07,627.65,582.05,608.25
1140,32.65,630.25,585.55,611.25
1146,32.24,632.55,588.95,614.05
1152,31.82,634.95,592.35,616.85
1158,31.40,637.35,595.75,619.65
1164,30.98,639.75,599.25,622.45
1170,30.60,642.35,602.75,625.35
1176,30.20,644.55,606.25,628.25
1182,29.79,646.95,609.85,631.05
1188,29.40,649.45,613.55,633.75
1194,29.00,651.95,617.25,636.35
1200,28.64,654.35,620.95,638.85
1206,28.29,656.55,624.25,641.25
1212,27.90,659.25,627.35,643.65
1218,27.53,662.35,630.45,646.05
1224,27.20,665.75,633.65,648.75
1230,26.86,670.05,636.65,651.45
1236,26.54,674.25,643.95,654.85
1242,26.23,678.35,646.75,658.45
1248,25.96,690.65,650.85,662.15
1254,25.65,696.85,655.35,666.35
1260,25.44,703.45,657.35,671.05
1266,25.19,710.15,659.95,676.05
1272,24.97,714.45,666.95,682.25
1278,24.74,719.65,662.85,690.35
1284,24.49,724.25,664.45,699.15
1290,24.30,723.25,667.65,709.05
1296,24.07,728.05,671.75,719.45
1302,23.88,734.45,677.75,730.15
1308,23.83,736.15,684.35,741.15
1314,23.63,736.75,694.25,750.05
1320,23.62,738.05,705.25,755.25
1326,23.45,741.05,720.05,759.35
1332,23.29,743.55,738.95,762.95
1338,23.21,747.05,759.05,765.35
1344,23.12,750.25,770.65,767.55
1350,23.05,753.05,772.25,769.65
1356,22.98,755.55,771.95,771.45
1362,22.93,757.55,771.95,773.25
1368,22.89,759.35,772.35,774.95
1374,22.85,761.75,773.05,776.75
1380,22.79,764.65,774.05,778.35
1386,22.74,767.65,775.15,779.95
1392,22.71,770.35,776.35,781.55
1398,22.67,772.85,777.85,783.25
1404,22.63,775.25,779.25,784.75
1410,22.60,777.55,780.65,786.25
1416,22.56,779.85,782.25,787.85
1422,22.53,781.95,783.75,789.25
1428,22.50,783.85,785.25,790.65
1434,22.48,785.65,786.65,792.05
1440,22.45,787.35,788.15,793.35
1446,22.41,788.95,789.55,794.65
1452,22.38,790.55,791.05,795.95
1458,22.36,792.15,792.45,797.15
1464,22.34,793.75,793.85,798.35
1470,22.32,795.35,795.15,799.45
1476,22.28,796.75,796.35,800.55
1482,22.26,798.35,797.75,801.65
1488,22.24,799.65,798.85,802.65
1494,22.21,800.95,800.05,803.65
1500,22.20,802.15,801.15,804.65
1506,22.17,803.45,802.25,805.65
1512,22.16,804.65,803.25,806.45
1518,22.14,805.75,804.25,807.35
1524,22.12,806.55,805.25,808.15
1530,22.10,807.65,806.25,808.85
1536,22.08,808.45,807.05,809.65
1542,22.05,809.35,807.95,810.35
1548,22.04,810.15,808.75,811.05
1554,22.02,810.95,809.55,811.75
1560,22.00,811.85,810.35,812.45
1566,21.99,812.75,811.15,813.15
1572,21.97,813.55,811.95,813.85
1578,21.96,814.45,812.65,814.45
1584,21.93,815.05,813.35,815.05
1590,21.93,815.85,814.05,815.65
1593,21.93,816.15,814.35,815.95

File: TIFP+UCT_Gasification_hor_parallel_60kW_R3.csv
Time (s),Mass (g),TC back 1 (K),TC back 2 (K),TC back 3 (K)
0,94.71,303.95,302.35,303.25
6,93.66,305.45,303.55,305.05
12,93.35,307.15,304.65,306.85
18,92.80,308.65,305.75,308.65
24,92.12,310.25,306.75,310.35
30,91.47,311.85,307.85,312.15
36,90.85,313.45,308.95,313.85
42,90.23,315.05,310.05,315.55
48,89.68,316.65,311.15,317.25
54,89.11,318.25,312.15,318.95
60,88.59,319.75,313.25,320.65
66,88.08,321.35,314.35,322.35
72,87.59,322.85,315.35,324.05
78,87.11,324.35,316.45,325.75
84,86.64,325.95,317.55,327.55
90,86.17,327.45,318.55,329.25
96,85.71,328.95,319.65,331.05
102,85.27,330.45,320.75,332.85
108,84.84,331.95,321.85,334.75
114,84.40,333.55,322.95,336.65
120,83.98,335.05,324.05,338.55
126,83.57,336.55,325.25,340.55
132,83.14,338.05,326.45,342.55
138,82.73,339.55,327.65,344.65
144,82.32,341.15,328.75,346.65
150,81.91,342.65,330.05,348.65
156,81.51,344.15,331.35,350.75
162,81.12,345.75,332.65,352.95
168,80.72,347.25,333.95,355.05
174,80.33,348.85,335.25,357.15
180,79.96,350.45,336.65,359.25
186,79.57,352.05,338.05,361.35
192,79.22,353.65,339.55,363.35
198,78.84,355.15,340.95,365.45
204,78.47,356.85,342.45,367.35
210,78.12,358.45,343.95,369.25
216,77.75,360.05,345.55,371.05
222,77.38,361.65,347.15,372.85
228,77.01,363.25,348.75,374.45
234,76.67,364.85,350.35,376.05
240,76.31,366.45,352.15,377.65
246,75.95,367.95,354.05,379.05
252,75.60,369.55,355.85,380.15
258,75.27,371.05,357.75,381.45
264,74.92,372.55,359.55,382.75
270,74.58,374.05,361.35,384.05
276,74.23,375.45,363.25,385.35
282,73.88,376.85,365.15,386.55
288,73.56,378.25,366.95,387.75
294,73.22,379.55,368.75,389.05
300,72.89,380.85,370.55,390.25
306,72.56,382.05,372.25,391.45
312,72.23,383.25,374.05,392.65
318,71.91,384.45,375.75,393.85
324,71.58,385.55,377.35,394.95
330,71.24,386.65,378.95,396.15
336,70.93,387.75,380.45,397.35
342,70.60,388.75,381.75,398.55
348,70.28,389.65,383.15,399.65
354,69.96,390.55,384.25,400.85
360,69.65,391.35,385.35,402.05
366,69.34,392.25,386.25,403.25
372,69.01,393.05,387.15,404.45
378,68.71,393.85,387.95,405.85
384,68.35,394.55,388.85,406.95
390,68.04,395.35,389.65,408.05
396,67.73,396.15,390.45,409.15
402,67.42,396.85,391.25,410.25
408,67.12,397.65,392.05,411.25
414,66.80,398.35,392.75,412.45
420,66.50,399.15,393.55,413.45
426,66.18,399.95,394.35,414.55
432,65.87,400.65,395.15,415.65
438,65.56,401.45,395.95,416.75
444,65.28,402.25,396.75,417.85
450,64.95,402.95,397.45,418.95
456,64.66,403.75,398.25,419.95
462,64.35,404.55,398.95,421.15
468,64.04,405.35,399.75,422.25
474,63.74,406.15,400.45,423.35
480,63.43,406.95,401.15,424.45
486,63.15,407.75,401.95,425.55
492,62.84,408.55,402.65,426.75
498,62.53,409.35,403.35,427.85
504,62.25,410.15,404.05,429.05
510,61.95,410.85,404.75,430.35
516,61.66,411.65,405.45,431.45
522,61.38,412.45,406.15,432.65
528,61.07,413.25,406.85,433.95
534,60.77,414.05,407.65,435.15
540,60.48,414.85,408.35,436.35
546,60.20,415.65,409.05,437.65
552,59.90,416.45,409.85,438.85
558,59.61,417.25,410.55,440.15
564,59.33,418.05,411.25,441.45
570,59.05,418.85,411.95,442.85
576,58.76,419.75,412.65,444.15
582,58.48,420.55,413.45,445.45
588,58.21,421.55,414.15,446.85
594,57.92,422.35,414.95,448.25
600,57.63,423.25,415.75,449.65
606,57.35,424.15,416.45,451.05
612,57.09,425.05,417.25,452.45
618,56.79,425.95,418.05,454.05
624,56.52,426.85,418.75,455.45
630,56.22,427.75,419.55,457.05
636,55.96,428.75,420.45,458.55
642,55.67,429.65,421.25,460.15
648,55.40,430.65,422.05,461.75
654,55.12,431.65,422.95,463.45
660,54.83,432.65,423.85,465.15
666,54.57,433.65,424.65,466.85
672,54.29,434.65,425.65,468.45
678,54.02,435.65,426.45,470.15
684,53.73,436.75,427.35,471.95
690,53.46,437.75,428.35,473.75
696,53.15,438.85,429.25,475.55
702,52.90,439.95,430.15,477.45
708,52.60,441.05,431.15,479.25
714,52.32,442.25,431.95,481.15
720,52.04,443.35,432.85,483.05
726,51.74,444.55,433.85,485.05
732,51.48,445.85,434.85,486.95
738,51.21,447.05,435.85,488.85
744,50.93,448.35,436.85,490.85
750,50.65,449.65,438.05,492.85
756,50.37,451.05,439.05,494.85
762,50.08,452.35,440.25,496.85
768,49.79,453.75,441.45,498.85
774,49.50,455.15,442.65,500.85
780,49.22,456.65,443.85,502.85
786,48.92,458.15,445.05,504.95
792,48.64,459.65,446.35,506.95
798,48.33,461.15,447.75,508.95
804,48.04,462.75,449.15,510.95
810,47.77,464.35,450.55,513.05
816,47.46,465.95,451.95,515.05
822,47.15,467.65,453.55,517.05
828,46.86,469.35,455.05,519.15
834,46.55,471.15,456.65,521.15
840,46.27,472.85,458.35,523.25
846,45.96,474.65,460.05,525.25
852,45.67,476.45,461.75,527.35
858,45.35,478.35,463.55,529.35
864,45.05,480.15,465.45,531.45
870,44.74,482.05,467.35,533.55
876,44.43,483.95,469.35,535.65
882,44.13,485.85,471.35,537.65
888,43.83,487.85,473.45,539.75
894,43.52,489.75,475.55,541.85
900,43.21,491.75,477.65,543.95
906,42.89,493.75,479.85,546.05
912,42.57,495.75,482.05,548.15
918,42.26,497.75,484.25,550.25
924,41.94,499.75,486.45,552.35
930,41.62,501.85,488.75,554.45
936,41.28,503.85,491.05,556.55
942,40.94,505.95,493.35,558.65
948,40.62,508.05,495.75,560.75
954,40.29,510.05,498.05,562.85
960,39.95,512.05,500.35,564.95
966,39.61,514.05,502.65,567.05
972,39.27,516.15,505.05,569.15
978,38.93,518.15,507.45,571.15
984,38.57,520.25,509.75,573.15
990,38.23,522.25,512.05,575.25
996,37.88,524.25,514.35,577.25
1002,37.53,526.35,516.65,579.25
1008,37.17,528.45,518.95,581.25
1014,36.82,530.45,521.25,583.35
1020,36.45,532.55,523.55,585.35
1026,36.10,534.65,525.85,587.35
1032,35.74,536.75,528.15,589.35
1038,35.37,538.95,530.45,591.35
1044,35.02,541.05,532.75,593.35
1050,34.65,543.15,535.15,595.35
1056,34.29,545.25,537.45,597.25
1062,33.92,547.25,539.85,599.25
1068,33.53,549.25,542.25,601.25
1074,33.16,551.25,544.55,603.15
1080,32.80,553.35,547.05,605.15
1086,32.43,555.35,549.55,607.05
1092,32.05,557.35,552.05,608.95
1098,31.67,559.45,554.65,610.95
1104,31.30,561.45,557.15,612.85
1110,30.92,563.55,559.85,614.75
1116,30.56,565.55,562.45,616.55
1122,30.19,567.65,565.05,618.35
1128,29.79,569.75,567.75,620.15
1134,29.41,571.75,570.25,621.95
1140,29.05,573.75,572.75,623.65
1146,28.68,575.85,575.35,625.35
1152,28.30,577.85,577.95,626.95
1158,27.93,579.95,580.65,628.55
1164,27.56,581.95,583.25,630.15
1170,27.21,584.05,586.05,631.85
1176,26.82,586.15,588.75,633.65
1182,26.46,588.25,591.45,635.55
1188,26.09,590.35,594.15,638.05
1194,25.76,592.45,596.75,640.45
1200,25.37,594.55,599.35,642.45
1206,25.01,596.65,601.95,644.75
1212,24.66,598.65,604.65,647.15
1218,24.28,600.75,607.45,649.95
1224,23.93,602.85,610.15,653.35
1230,23.59,604.85,612.85,656.85
1236,23.26,606.85,615.55,661.45
1242,22.93,608.95,618.15,666.65
1248,22.60,610.95,620.85,673.65
1254,22.28,613.05,623.35,681.15
1260,21.96,615.05,625.65,688.95
1266,21.64,617.35,627.65,695.55
1272,21.33,619.45,629.55,701.25
1278,21.09,621.55,631.65,707.25
1284,20.80,623.05,633.75,712.05
1290,20.56,624.85,636.05,714.95
1296,20.28,626.95,638.45,717.65
1302,20.01,629.25,640.85,720.05
1308,19.75,631.75,643.45,722.45
1314,19.49,634.25,646.55,724.45
1320,19.32,636.55,649.95,726.35
1326,19.09,638.95,653.85,729.25
1332,18.90,641.35,658.35,733.75
1338,18.74,643.55,664.55,738.95
1344,18.59,645.85,672.75,744.25
1350,18.45,645.95,683.05,741.65
1356,18.30,647.65,692.85,742.55
1362,18.12,651.15,705.45,743.35
1368,17.97,655.45,719.45,745.25
1374,17.81,660.15,732.35,748.25
1380,17.71,665.75,742.75,752.15
1386,17.55,673.05,750.15,755.55
1392,17.45,682.85,755.05,758.45
1398,17.34,693.95,758.85,761.05
1404,17.24,704.75,761.75,762.95
1410,17.16,715.35,764.55,764.65
1416,17.06,724.75,767.65,766.45
1422,16.95,732.95,771.35,768.75
1428,16.88,739.85,775.65,771.25
1434,16.78,745.25,780.35,773.65
1440,16.75,749.55,785.25,776.15
1446,16.67,752.95,789.35,778.35
1452,16.63,755.85,792.65,780.05
1458,16.60,758.45,795.45,781.65
1464,16.55,760.65,797.65,782.95
1470,16.51,762.65,799.35,784.15
1476,16.48,764.45,800.65,785.15
1482,16.47,766.15,801.75,786.05
1488,16.44,767.65,802.85,786.95
1494,16.42,769.05,803.65,787.55
1500,16.37,770.35,804.45,788.25
1506,16.34,771.65,805.25,789.05
1512,16.33,772.85,805.95,789.75
1518,16.31,773.75,806.55,790.35
1524,16.31,774.75,807.15,790.95
1530,16.27,775.65,807.55,791.45
1536,16.24,776.45,808.15,791.95
1542,16.22,777.25,808.65,792.45
1548,16.20,778.05,809.15,792.95
1554,16.20,778.75,809.55,793.35
1560,16.16,779.45,810.15,793.85
1566,16.15,780.15,810.75,794.35
1572,16.15,780.75,811.15,794.75
1578,16.13,781.35,811.45,795.05
1584,16.11,781.85,811.95,795.55
1590,16.11,782.45,812.35,795.95
1596,16.10,782.95,812.75,796.35
1600,16.09,783.25,812.85,796.55