Folder: matl-db/Wood/Calibration_Data/TIFP+UCT (part 9)

File: TIFP+UCT_Wood_STA_N2_10K_R1.csv
Time (s),Temperature (K),Mass (mg),Heat Flow Rate (W/g)
0,303.159,5.196,0.0002
15,303.1605,5.1954,-0.0
30,303.168,5.1963,-0.0002
45,303.1725,5.1974,-0.0005
60,303.18,5.1976,-0.0005
75,303.1815,5.1967,-0.0006
90,303.183,5.1963,-0.0008
105,303.1805,5.1959,-0.0007
120,303.178,5.1977,-0.0007
135,303.1785,5.1991,-0.0008
150,303.172,5.1996,-0.0008
165,303.1705,5.1992,-0.0008
180,303.167,5.1993,-0.0008
195,303.163,5.1987,-0.0007
210,303.159,5.2,-0.0009
225,303.156,5.1987,-0.0009
240,303.156,5.1986,-0.0009
255,303.156,5.2009,-0.0009
270,303.159,5.1997,-0.0013
285,303.1535,5.201,-0.0014
300,303.152,5.1998,-0.0014
315,303.168,5.2017,-0.0018
330,303.341,5.2018,-0.0051
345,303.866,5.1998,-0.0165
360,304.909,5.1993,-0.0395
375,306.588,5.1985,-0.0732
390,308.912,5.1999,-0.113
405,311.832,5.1993,-0.153
420,315.214,5.2004,-0.1894
435,318.89,5.1979,-0.2181
450,322.688,5.1964,-0.2374
465,326.473,5.1961,-0.2471
480,330.129,5.1957,-0.2496
495,333.594,5.1943,-0.2456
510,336.838,5.1916,-0.2382
525,339.862,5.1903,-0.2287
540,342.696,5.1876,-0.2188
555,345.376,5.1835,-0.2086
570,347.939,5.1831,-0.1961
585,350.437,5.1835,-0.1839
600,352.898,5.1795,-0.1722
615,355.356,5.1781,-0.161
630,357.817,5.1741,-0.1503
645,360.303,5.1725,-0.1392
660,362.805,5.1725,-0.1284
675,365.326,5.1712,-0.1171
690,367.854,5.1712,-0.1061
705,370.393,5.1698,-0.0959
720,372.93,5.1671,-0.0859
735,375.466,5.1686,-0.077
750,377.997,5.169,-0.0686
765,380.517,5.1674,-0.0615
780,383.034,5.1688,-0.055
795,385.546,5.1688,-0.0493
810,388.055,5.1675,-0.0438
825,390.558,5.1662,-0.0392
840,393.064,5.1648,-0.035
855,395.567,5.1673,-0.0315
870,398.076,5.1663,-0.0281
885,400.589,5.1649,-0.0253
900,403.106,5.1649,-0.0224
915,405.636,5.1626,-0.0204
930,408.167,5.1626,-0.0187
945,410.703,5.1636,-0.0174
960,413.238,5.1622,-0.016
975,415.777,5.1596,-0.0159
990,418.305,5.1596,-0.0163
1005,420.831,5.1596,-0.0172
1020,423.351,5.1569,-0.0182
1035,425.858,5.1575,-0.0195
1050,428.361,5.1569,-0.02
1065,430.857,5.1545,-0.0208
1080,433.35,5.1545,-0.0216
1095,435.839,5.1518,-0.0223
1110,438.324,5.1505,-0.0235
1125,440.811,5.1478,-0.0252
1140,443.304,5.1458,-0.027
1155,445.792,5.1438,-0.0295
1170,448.284,5.1411,-0.0317
1185,450.776,5.1381,-0.0344
1200,453.269,5.1347,-0.0376
1215,455.764,5.1304,-0.0419
1230,458.258,5.125,-0.0506
1245,460.754,5.1223,-0.0581
1260,463.245,5.1156,-0.0551
1275,465.739,5.1089,-0.0568
1290,468.23,5.1039,-0.0592
1305,470.716,5.0982,-0.0601
1320,473.201,5.0915,-0.0611
1335,475.69,5.0848,-0.0619
1350,478.181,5.076,-0.063
1365,480.669,5.0687,-0.0644
1380,483.163,5.0595,-0.0658
1395,485.659,5.051,-0.0667
1410,488.151,5.0418,-0.0677
1425,490.642,5.0324,-0.0691
1440,493.139,5.0235,-0.0729
1455,495.629,5.0137,-0.076
1470,498.12,5.0019,-0.0786
1485,500.614,4.9924,-0.0811
1500,503.102,4.9805,-0.0828
1515,505.595,4.9665,-0.0834
1530,508.09,4.9524,-0.084
1545,510.581,4.9391,-0.0854
1560,513.074,4.9244,-0.0875
1575,515.571,4.9063,-0.0897
1590,518.063,4.8888,-0.0921
1605,520.558,4.8706,-0.0945
1620,523.048,4.8484,-0.097
1635,525.539,4.8284,-0.1001
1650,528.03,4.8051,-0.1033
1665,530.524,4.7805,-0.1069
1680,533.014,4.7564,-0.1101
1695,535.505,4.7288,-0.114
1710,538.001,4.7038,-0.1176
1725,540.497,4.6746,-0.1213
1740,542.999,4.6447,-0.124
1755,545.502,4.6131,-0.1261
1770,548.003,4.5824,-0.1278
1785,550.499,4.5492,-0.1294
1800,552.994,4.5152,-0.1308
1815,555.49,4.4824,-0.1322
1830,557.983,4.4461,-0.1336
1845,560.477,4.41,-0.1352
1860,562.973,4.3725,-0.1369
1875,565.469,4.3335,-0.1388
1890,567.967,4.2963,-0.1407
1905,570.465,4.2558,-0.1435
1920,572.966,4.2138,-0.1469
1935,575.467,4.171,-0.1507
1950,577.963,4.1257,-0.1554
1965,580.464,4.0787,-0.1611
1980,582.963,4.0318,-0.168
1995,585.463,3.9785,-0.1756
2010,587.967,3.9245,-0.1849
2025,590.467,3.8666,-0.1954
2040,592.967,3.8054,-0.2064
2055,595.463,3.7429,-0.2185
2070,597.956,3.6791,-0.2302
2085,600.452,3.6114,-0.2421
2100,602.945,3.5414,-0.2534
2115,605.435,3.468,-0.2643
2130,607.931,3.3939,-0.2751
2145,610.43,3.3184,-0.2843
2160,612.926,3.2405,-0.2942
2175,615.423,3.1608,-0.3034
2190,617.919,3.081,-0.313
2205,620.416,2.9985,-0.323
2220,622.912,2.916,-0.3342
2235,625.411,2.8299,-0.3469
2250,627.913,2.7406,-0.3625
2265,630.413,2.6498,-0.3816
2280,632.912,2.555,-0.4014
2295,635.411,2.4559,-0.4227
2310,637.908,2.3541,-0.4436
2325,640.404,2.2477,-0.4613
2340,642.905,2.1398,-0.475
2355,645.403,2.0307,-0.4799
2370,647.9,1.9273,-0.4729
2385,650.398,1.8258,-0.4493
2400,652.893,1.7322,-0.4064
2415,655.389,1.6494,-0.345
2430,657.889,1.5844,-0.2701
2445,660.385,1.5371,-0.1908
2460,662.887,1.5009,-0.1185
2475,665.386,1.4757,-0.0622
2490,667.89,1.4587,-0.0256
2505,670.39,1.4446,-0.0057
2520,672.888,1.4342,0.0045
2535,675.387,1.4224,0.0097
2550,677.885,1.4136,0.0125
2565,680.386,1.4034,0.0139
2580,682.88,1.3949,0.0143
2595,685.376,1.3878,0.0143
2610,687.868,1.3777,0.014
2625,690.36,1.369,0.0125
2640,692.851,1.3581,0.0107
2655,695.348,1.3496,0.0087
2670,697.846,1.3405,0.0073
2685,700.346,1.3321,0.0059
2700,702.849,1.3236,0.0046
2715,705.354,1.315,0.0039
2730,707.864,1.3057,0.0026
2745,710.368,1.3001,0.001
2760,712.87,1.2922,-0.0022
2775,715.37,1.284,-0.0061
2790,717.866,1.277,-0.0104
2805,720.363,1.2685,-0.0153
2820,722.859,1.2593,-0.0208
2835,725.353,1.2546,-0.0264
2850,727.846,1.2479,-0.0327
2865,730.34,1.2414,-0.0392
2880,732.838,1.2344,-0.0458
2895,735.335,1.2287,-0.0526
2910,737.833,1.2233,-0.0591
2925,740.329,1.217,-0.0661
2940,742.823,1.2116,-0.1053
2955,745.319,1.2089,-0.1059
2970,747.814,1.2039,-0.1097
2985,750.311,1.2005,-0.1146
3000,752.811,1.1944,-0.1203
3015,755.31,1.189,-0.1253
3030,757.811,1.1863,-0.1303
3045,760.312,1.1847,-0.1344
3060,762.815,1.1793,-0.1391
3075,765.319,1.1766,-0.1436
3090,767.824,1.1711,-0.1486
3105,770.331,1.1674,-0.1526
3120,772.84,1.1651,-0.1571
3135,775.344,1.1606,-0.1611
3150,777.851,1.1581,-0.1649
3165,780.35,1.1547,-0.1686
3180,782.855,1.1507,-0.1737
3195,785.356,1.1479,-0.1787
3210,787.859,1.1452,-0.1829
3225,790.36,1.1402,-0.1864
3240,792.866,1.1385,-0.19
3255,795.373,1.1361,-0.193
3270,797.877,1.1331,-0.196
3285,800.387,1.1298,-0.201
3300,802.891,1.1271,-0.2059
3315,805.393,1.1244,-0.2103
3330,807.892,1.1217,-0.2138
3345,810.39,1.1197,-0.2184
3360,812.887,1.117,-0.2245
3375,815.384,1.114,-0.2297
3390,817.886,1.1127,-0.2357
3405,820.393,1.1096,-0.2324
3420,822.898,1.1063,-0.212
3435,825.411,1.1033,-0.2165
3450,827.919,1.1016,-0.2338
3465,830.42,1.1009,-0.2488
3480,832.916,1.0962,-0.2607
3495,835.405,1.0949,-0.2688
3510,837.899,1.0936,-0.2763
3525,840.391,1.0909,-0.2842
3540,842.884,1.0868,-0.2914
3555,845.375,1.0868,-0.2966
3570,847.867,1.0842,-0.302
3585,850.363,1.0808,-0.3068
3600,852.862,1.0788,-0.3133
3615,855.365,1.0764,-0.3225
3630,857.866,1.0738,-0.3294
3645,860.37,1.0724,-0.3373
3660,862.869,1.0724,-0.3433
3675,865.368,1.0697,-0.3474
3690,867.868,1.0674,-0.3553
3705,870.367,1.0654,-0.3634
3720,872.865,1.0624,-0.3698
3735,875.348,1.061,-0.3766
3750,877.825,1.0593,-0.3874
3765,880.303,1.0567,-0.3953
3780,882.787,1.055,-0.394
3795,885.278,1.0536,-0.3937
3810,887.78,1.0526,-0.3998
3825,890.288,1.0496,-0.4111
3840,892.802,1.0496,-0.4159
3855,895.321,1.0469,-0.4134
3870,897.844,1.0456,-0.4128
3885,900.363,1.0456,-0.415
3900,902.88,1.0429,-0.4269
3915,905.382,1.0429,-0.4384
3930,907.881,1.0412,-0.4463
3945,910.375,1.0366,-0.4447
3960,912.869,1.0373,-0.4346
3975,915.359,1.0363,-0.4276
3990,917.852,1.0343,-0.4269
4005,920.35,1.0333,-0.4406
4020,922.847,1.0306,-0.4531
4035,925.347,1.0306,-0.4618
4050,927.854,1.0299,-0.465
4065,930.358,1.0306,-0.46
4080,932.865,1.0283,-0.4511
4095,935.377,1.0256,-0.4464
4110,937.887,1.0236,-0.4437
4125,940.395,1.0249,-0.4478
4140,942.897,1.0207,-0.454
4155,945.403,1.023,-0.4558
4170,947.904,1.0202,-0.4541
4185,950.404,1.0199,-0.4519
4200,952.9,1.0189,-0.449
4215,955.395,1.0189,-0.4453
4230,957.889,1.0165,-0.4371
4245,960.382,1.0179,-0.4296
4260,962.884,1.0179,-0.4228
4275,965.381,1.0172,-0.4244
4290,967.881,1.0157,-0.4268
4305,970.386,1.0151,-0.427
4320,972.898,1.0137,-0.4228
4323,973.299,1.0137,-0.4214

File: TIFP+UCT_Wood_STA_N2_10K_R2.csv
Time (s),Temperature (K),Mass (mg),Heat Flow Rate (W/g)
0,303.151,4.9516,0.004
15,303.152,4.9529,0.0041
30,303.155,4.953,0.0041
45,303.159,4.9534,0.0039
60,303.164,4.9553,0.0038
75,303.1685,4.9541,0.0034
90,303.17,4.9517,0.0036
105,303.174,4.952,0.0035
120,303.172,4.9534,0.0035
135,303.1725,4.9547,0.0033
150,303.171,4.9534,0.0031
165,303.1685,4.9535,0.0032
180,303.166,4.9546,0.003
195,303.1655,4.9549,0.003
210,303.164,4.9549,0.0031
225,303.1605,4.9556,0.0029
240,303.158,4.9543,0.0029
255,303.1595,4.9556,0.0029
270,303.157,4.9549,0.003
285,303.157,4.9564,0.0031
300,303.158,4.955,0.003
315,303.171,4.9563,0.0027
330,303.344,4.9545,0.0017
345,303.872,4.9535,-0.0004
360,304.921,4.9553,-0.002
375,306.593,4.9541,-0.0018
390,308.924,4.954,-0.0011
405,311.846,4.9532,-0.0005
420,315.225,4.9545,0.0012
435,318.905,4.9534,0.0027
450,322.706,4.952,0.0037
465,326.494,4.9523,0.0055
480,330.155,4.9524,0.0075
495,333.621,4.9514,0.0089
510,336.861,4.9504,0.0105
525,339.881,4.949,0.0124
540,342.705,4.9474,0.0145
555,345.382,4.9463,0.0161
570,347.939,4.945,0.0163
585,350.434,4.9443,0.0144
600,352.895,4.9417,0.0115
615,355.346,4.9403,0.0066
630,357.813,4.9403,0.0009
645,360.294,4.9387,-0.0064
660,362.799,4.9388,-0.0139
675,365.324,4.9374,-0.0221
690,367.862,4.9374,-0.0304
705,370.405,4.9361,-0.0377
720,372.948,4.9361,-0.0445
735,375.486,4.9334,-0.0504
750,378.013,4.9337,-0.0557
765,380.534,4.9352,-0.0598
780,383.041,4.9352,-0.0635
795,385.545,4.9353,-0.0664
810,388.046,4.9339,-0.069
825,390.544,4.9336,-0.0708
840,393.047,4.9339,-0.0722
855,395.551,4.9349,-0.0742
870,398.063,4.9339,-0.0753
885,400.579,4.9326,-0.0764
900,403.103,4.9326,-0.0777
915,405.633,4.9299,-0.0781
930,408.165,4.9309,-0.0783
945,410.702,4.9313,-0.0782
960,413.236,4.9312,-0.0785
975,415.771,4.9287,-0.0773
990,418.302,4.9287,-0.0739
1005,420.827,4.9287,-0.0709
1020,423.348,4.9287,-0.0688
1035,425.858,4.926,-0.0665
1050,428.363,4.926,-0.0647
1065,430.855,4.926,-0.0627
1080,433.353,4.9247,-0.0604
1095,435.844,4.922,-0.058
1110,438.332,4.9233,-0.0562
1125,440.822,4.9193,-0.0544
1140,443.309,4.9186,-0.0528
1155,445.798,4.9139,-0.0505
1170,448.285,4.9112,-0.0484
1185,450.777,4.9082,-0.0455
1200,453.267,4.9072,-0.0431
1215,455.76,4.9019,-0.04
1230,458.252,4.8965,-0.0332
1245,460.748,4.8925,-0.0294
1260,463.242,4.8884,-0.0321
1275,465.73,4.8831,-0.0316
1290,468.222,4.8791,-0.0305
1305,470.712,4.8723,-0.0278
1320,473.203,4.8655,-0.0251
1335,475.694,4.8543,-0.0224
1350,478.186,4.8486,-0.0195
1365,480.681,4.8412,-0.0167
1380,483.172,4.8289,-0.0148
1395,485.664,4.8207,-0.0131
1410,488.159,4.8104,-0.0116
1425,490.652,4.7997,-0.0096
1440,493.148,4.7914,-0.0056
1455,495.639,4.7804,-0.0015
1470,498.13,4.7679,0.0007
1485,500.617,4.758,0.0031
1500,503.109,4.7457,0.005
1515,505.598,4.732,0.0057
1530,508.086,4.7194,0.0065
1545,510.575,4.7061,0.0083
1560,513.064,4.6917,0.0105
1575,515.551,4.6747,0.0128
1590,518.043,4.6529,0.0164
1605,520.536,4.6348,0.0197
1620,523.027,4.6213,0.022
1635,525.52,4.5986,0.0245
1650,528.009,4.5757,0.0277
1665,530.505,4.5524,0.031
1680,533,4.5318,0.0342
1695,535.497,4.5054,0.0378
1710,537.995,4.4803,0.0413
1725,540.497,4.448,0.0454
1740,542.997,4.4219,0.0486
1755,545.5,4.39,0.0511
1770,547.998,4.3625,0.0525
1785,550.5,4.3299,0.0537
1800,552.995,4.3001,0.0545
1815,555.494,4.2673,0.0549
1830,557.991,4.2343,0.0555
1845,560.492,4.1977,0.057
1860,562.994,4.166,0.0574
1875,565.494,4.1287,0.0585
1890,567.99,4.0944,0.0596
1905,570.486,4.0558,0.0619
1920,572.982,4.0167,0.0649
1935,575.476,3.9773,0.0681
1950,577.972,3.9333,0.0718
1965,580.47,3.8925,0.0756
1980,582.966,3.8432,0.0825
1995,585.465,3.7948,0.0891
2010,587.966,3.7431,0.0975
2025,590.462,3.6899,0.1068
2040,592.961,3.6366,0.1162
2055,595.462,3.5747,0.1268
2070,597.958,3.5143,0.1374
2085,600.454,3.4497,0.1478
2100,602.948,3.3849,0.1582
2115,605.444,3.3162,0.1679
2130,607.943,3.2454,0.1772
2145,610.435,3.1786,0.1852
2160,612.93,3.1031,0.1939
2175,615.424,3.0273,0.2024
2190,617.917,2.9562,0.2101
2205,620.413,2.878,0.219
2220,622.912,2.7992,0.2293
2235,625.411,2.7187,0.2416
2250,627.909,2.6377,0.2553
2265,630.405,2.5489,0.274
2280,632.898,2.4617,0.2935
2295,635.398,2.3646,0.315
2310,637.898,2.2677,0.3369
2325,640.397,2.1653,0.3571
2340,642.898,2.0629,0.373
2355,645.396,1.9602,0.3779
2370,647.893,1.86,0.3695
2385,650.388,1.7624,0.344
2400,652.883,1.6702,0.2987
2415,655.378,1.5914,0.2343
2430,657.878,1.5264,0.1546
2445,660.373,1.4779,0.07
2460,662.875,1.4422,-0.0085
2475,665.382,1.4177,-0.0705
2490,667.882,1.4024,-0.1113
2505,670.388,1.3893,-0.135
2520,672.892,1.3786,-0.1468
2535,675.391,1.3689,-0.1541
2550,677.892,1.3604,-0.1585
2565,680.387,1.3537,-0.1622
2580,682.882,1.3438,-0.1644
2595,685.377,1.3334,-0.1662
2610,687.875,1.3236,-0.1676
2625,690.369,1.3158,-0.169
2640,692.862,1.3075,-0.1702
2655,695.359,1.3005,-0.1716
2670,697.854,1.2933,-0.1732
2685,700.354,1.2832,-0.1745
2700,702.85,1.2758,-0.1759
2715,705.349,1.2686,-0.1776
2730,707.847,1.2615,-0.1776
2745,710.346,1.254,-0.1775
2760,712.845,1.2466,-0.1765
2775,715.348,1.238,-0.1756
2790,717.847,1.2307,-0.1737
2805,720.345,1.2267,-0.172
2820,722.84,1.2199,-0.1699
2835,725.336,1.2117,-0.1664
2850,727.828,1.2065,-0.1629
2865,730.323,1.1983,-0.1589
2880,732.821,1.1943,-0.155
2895,735.319,1.1899,-0.1516
2910,737.816,1.1844,-0.1484
2925,740.316,1.1793,-0.1451
2940,742.814,1.1738,-0.1082
2955,745.307,1.1701,-0.111
2970,747.8,1.1674,-0.1107
2985,750.296,1.1634,-0.1097
3000,752.796,1.1594,-0.1087
3015,755.298,1.154,-0.1079
3030,757.796,1.1512,-0.107
3045,760.299,1.1482,-0.1062
3060,762.804,1.1428,-0.105
3075,765.314,1.1402,-0.1047
3090,767.823,1.1371,-0.1031
3105,770.328,1.1331,-0.1022
3120,772.828,1.1294,-0.1008
3135,775.326,1.1264,-0.1005
3150,777.824,1.1258,-0.101
3165,780.321,1.1218,-0.1016
3180,782.824,1.1191,-0.1017
3195,785.332,1.1178,-0.1
3210,787.832,1.1155,-0.099
3225,790.338,1.1101,-0.0986
3240,792.843,1.1084,-0.0989
3255,795.351,1.1061,-0.0985
3270,797.862,1.1034,-0.0977
3285,800.37,1.0997,-0.0965
3300,802.875,1.0997,-0.096
3315,805.381,1.0957,-0.0942
3330,807.887,1.0943,-0.0924
3345,810.388,1.0923,-0.091
3360,812.893,1.0896,-0.0887
3375,815.393,1.0893,-0.0878
3390,817.895,1.0853,-0.0854
3405,820.397,1.0835,-0.0937
3420,822.898,1.0821,-0.1182
3435,825.405,1.0778,-0.1223
3450,827.91,1.0761,-0.116
3465,830.409,1.0748,-0.1098
3480,832.904,1.0707,-0.1058
3495,835.401,1.0714,-0.1027
3510,837.893,1.0684,-0.0994
3525,840.383,1.0656,-0.0967
3540,842.874,1.0629,-0.0947
3555,845.368,1.0643,-0.0944
3570,847.862,1.0616,-0.0938
3585,850.358,1.0596,-0.0845
3600,852.855,1.0564,-0.0801
3615,855.356,1.0547,-0.0739
3630,857.86,1.0511,-0.0683
3645,860.362,1.049,-0.0621
3660,862.856,1.0488,-0.0593
3675,865.34,1.0475,-0.0587
3690,867.82,1.0468,-0.0539
3705,870.308,1.0461,-0.0475
3720,872.8,1.0418,-0.0458
3735,875.306,1.0378,-0.0375
3750,877.814,1.0388,-0.0279
3765,880.323,1.0374,-0.0234
3780,882.834,1.0374,-0.022
3795,885.347,1.0344,-0.02
3810,887.86,1.0321,-0.0175
3825,890.367,1.0304,-0.0055
3840,892.865,1.029,0.0046
3855,895.365,1.0277,0.0046
3870,897.864,1.0305,0.0039
3885,900.369,1.0265,0.0044
3900,902.87,1.0246,0.0094
3915,905.366,1.0219,0.0232
3930,907.862,1.0222,0.0331
3945,910.36,1.0239,0.032
3960,912.863,1.0203,0.0221
3975,915.367,1.0148,0.0147
3990,917.868,1.0152,0.0108
4005,920.365,1.0195,0.0098
4020,922.867,1.0147,0.0099
4035,925.366,1.0137,0.0153
4050,927.869,1.0124,0.0288
4065,930.368,1.0124,0.034
4080,932.87,1.011,0.0304
4095,935.369,1.0097,0.0257
4110,937.873,1.0097,0.0224
4125,940.369,1.01,0.0199
4140,942.869,1.01,0.0177
4155,945.373,1.0074,0.0149
4170,947.88,1.008,0.0128
4185,950.384,1.0074,0.0086
4200,952.887,1.0033,0.0068
4215,955.39,1.0047,0.0072
4230,957.878,1.0037,0.0063
4245,960.369,1.005,0.0026
4260,962.863,1.0037,-0.0014
4275,965.362,0.9996,-0.0055
4290,967.866,1.0001,-0.0088
4305,970.373,0.9998,-0.0104
4320,972.879,0.9998,-0.0128
4323,973.277,0.9998,0

File: TIFP+UCT_Wood_STA_N2_10K_R3.csv
Time (s),Temperature (K),Mass (mg),Heat Flow Rate (W/g)
0,303.158,5.1394,0.0005
15,303.1595,5.1392,0.0006
30,303.159,5.1394,0.0008
45,303.158,5.1399,0.0012
60,303.163,5.1403,0.0012
75,303.1625,5.1381,0.0012
90,303.161,5.1391,0.0013
105,303.1605,5.1393,0.0013
120,303.162,5.1389,0.0012
135,303.1605,5.1398,0.001
150,303.163,5.1405,0.001
165,303.161,5.1405,0.0008
180,303.161,5.1406,0.0007
195,303.1625,5.1393,0.0006
210,303.162,5.1393,0.0005
225,303.1645,5.1396,0.0004
240,303.165,5.1393,0.0004
255,303.17,5.1413,0.0003
270,303.167,5.1407,0.0007
285,303.167,5.1409,0.0008
300,303.166,5.1406,0.001
315,303.183,5.1399,0.0008
330,303.352,5.1396,-0.0035
345,303.881,5.1389,-0.0074
360,304.93,5.14,-0.0036
375,306.609,5.1381,0.0099
390,308.942,5.1387,0.0316
405,311.87,5.1373,0.0563
420,315.254,5.1375,0.0808
435,318.936,5.1372,0.102
450,322.739,5.1376,0.1172
465,326.523,5.1365,0.1268
480,330.175,5.1361,0.1304
495,333.63,5.135,0.1278
510,336.864,5.1337,0.1218
525,339.879,5.1337,0.1142
540,342.702,5.1324,0.1056
555,345.37,5.131,0.0966
570,347.931,5.1297,0.087
585,350.423,5.1297,0.0773
600,352.882,5.1277,0.0676
615,355.332,5.1253,0.0577
630,357.795,5.1243,0.0482
645,360.278,5.1231,0.0385
660,362.783,5.1241,0.0291
675,365.307,5.1227,0.0196
690,367.841,5.1214,0.01
705,370.387,5.1224,0.0013
720,372.93,5.1214,-0.0067
735,375.471,5.1201,-0.0148
750,378.005,5.1204,-0.0223
765,380.527,5.1201,-0.0292
780,383.045,5.1201,-0.0358
795,385.554,5.1201,-0.042
810,388.051,5.1201,-0.0475
825,390.552,5.1191,-0.0526
840,393.048,5.1187,-0.057
855,395.554,5.1201,-0.0611
870,398.066,5.1187,-0.0652
885,400.581,5.1187,-0.0688
900,403.104,5.1184,-0.072
915,405.631,5.1174,-0.0747
930,408.167,5.1157,-0.0772
945,410.702,5.116,-0.079
960,413.239,5.116,-0.0814
975,415.779,5.1147,-0.0826
990,418.309,5.1144,-0.0822
1005,420.834,5.1133,-0.0817
1020,423.354,5.1124,-0.0822
1035,425.865,5.112,-0.0824
1050,428.367,5.1107,-0.0833
1065,430.862,5.1107,-0.0841
1080,433.353,5.1093,-0.0854
1095,435.846,5.1067,-0.086
1110,438.332,5.107,-0.0872
1125,440.818,5.104,-0.0886
1140,443.306,5.102,-0.0898
1155,445.793,5.1006,-0.091
1170,448.283,5.0979,-0.0923
1185,450.775,5.0942,-0.0931
1200,453.264,5.0909,-0.0934
1215,455.756,5.0869,-0.094
1230,458.252,5.0838,-0.0932
1245,460.745,5.0785,-0.0946
1260,463.241,5.0745,-0.0968
1275,465.737,5.0691,-0.0979
1290,468.236,5.065,-0.099
1305,470.73,5.0582,-0.0999
1320,473.223,5.0529,-0.101
1335,475.718,5.0448,-0.1026
1350,478.209,5.0395,-0.1036
1365,480.698,5.0331,-0.1043
1380,483.185,5.024,-0.1061
1395,485.667,5.016,-0.1074
1410,488.152,5.0078,-0.1091
1425,490.635,4.9998,-0.11
1440,493.119,4.9917,-0.1087
1455,495.61,4.9816,-0.1073
1470,498.099,4.9707,-0.1077
1485,500.587,4.9618,-0.1087
1500,503.081,4.9509,-0.1103
1515,505.576,4.9399,-0.1131
1530,508.071,4.9278,-0.1161
1545,510.567,4.9134,-0.1181
1560,513.067,4.8979,-0.1199
1575,515.565,4.8822,-0.1212
1590,518.061,4.8667,-0.1225
1605,520.553,4.8482,-0.1241
1620,523.046,4.829,-0.1254
1635,525.539,4.8095,-0.1267
1650,528.031,4.7866,-0.1276
1665,530.521,4.764,-0.1284
1680,533.008,4.7428,-0.13
1695,535.497,4.7163,-0.1305
1710,537.99,4.6915,-0.1314
1725,540.481,4.6644,-0.1322
1740,542.975,4.6361,-0.1341
1755,545.479,4.6064,-0.1364
1770,547.982,4.5792,-0.1394
1785,550.489,4.5479,-0.1429
1800,552.993,4.5175,-0.1462
1815,555.495,4.4836,-0.149
1830,557.995,4.4494,-0.1522
1845,560.493,4.4155,-0.155
1860,562.987,4.38,-0.1579
1875,565.484,4.3417,-0.1601
1890,567.98,4.3066,-0.1629
1905,570.477,4.2669,-0.1645
1920,572.975,4.2244,-0.1652
1935,575.471,4.185,-0.1666
1950,577.968,4.1402,-0.1672
1965,580.465,4.095,-0.1674
1980,582.969,4.047,-0.1662
1995,585.467,3.9968,-0.1635
2010,587.966,3.943,-0.1606
2025,590.466,3.8869,-0.1571
2040,592.963,3.8274,-0.153
2055,595.46,3.7649,-0.1479
2070,597.958,3.6997,-0.1428
2085,600.453,3.635,-0.1382
2100,602.945,3.5662,-0.1335
2115,605.443,3.4927,-0.1293
2130,607.937,3.4206,-0.1258
2145,610.432,3.345,-0.1223
2160,612.93,3.2698,-0.1203
2175,615.43,3.1907,-0.1174
2190,617.925,3.1133,-0.1148
2205,620.423,3.0334,-0.1111
2220,622.918,2.951,-0.1065
2235,625.407,2.8677,-0.1005
2250,627.9,2.7805,-0.0923
2265,630.393,2.693,-0.0808
2280,632.89,2.5998,-0.0674
2295,635.386,2.5021,-0.0527
2310,637.883,2.3999,-0.0379
2325,640.385,2.2966,-0.0248
2340,642.887,2.1915,-0.0161
2355,645.392,2.083,-0.0146
2370,647.895,1.9775,-0.0249
2385,650.395,1.8789,-0.0514
2400,652.895,1.7834,-0.0966
2415,655.389,1.6996,-0.159
2430,657.885,1.6318,-0.2364
2445,660.386,1.5828,-0.32
2460,662.886,1.5446,-0.3986
2475,665.385,1.521,-0.4624
2490,667.886,1.5044,-0.508
2505,670.388,1.4901,-0.5374
2520,672.887,1.479,-0.5557
2535,675.379,1.4678,-0.5693
2550,677.873,1.4588,-0.5804
2565,680.369,1.4501,-0.5904
2580,682.865,1.4416,-0.599
2595,685.363,1.4315,-0.6073
2610,687.855,1.4214,-0.6152
2625,690.352,1.4136,-0.6226
2640,692.848,1.4039,-0.6294
2655,695.34,1.3971,-0.6366
2670,697.838,1.388,-0.6435
2685,700.339,1.3782,-0.6505
2700,702.845,1.3692,-0.658
2715,705.347,1.3623,-0.6661
2730,707.849,1.3545,-0.6736
2745,710.348,1.3475,-0.6815
2760,712.84,1.3398,-0.6875
2775,715.334,1.3316,-0.6938
2790,717.826,1.3231,-0.6994
2805,720.319,1.3176,-0.7053
2820,722.817,1.3108,-0.7106
2835,725.312,1.3053,-0.7154
2850,727.811,1.2972,-0.7196
2865,730.308,1.2907,-0.7236
2880,732.811,1.2867,-0.7279
2895,735.314,1.2807,-0.7313
2910,737.816,1.2757,-0.7355
2925,740.315,1.2678,-0.7395
2940,742.815,1.2652,-0.7117
2955,745.312,1.2588,-0.722
2970,747.809,1.2557,-0.7291
2985,750.308,1.2516,-0.735
3000,752.807,1.2489,-0.7413
3015,755.306,1.2422,-0.7476
3030,757.809,1.2409,-0.7537
3045,760.315,1.2375,-0.7598
3060,762.816,1.2298,-0.7663
3075,765.314,1.2271,-0.774
3090,767.809,1.2258,-0.7814
3105,770.306,1.2221,-0.788
3120,772.806,1.2184,-0.7947
3135,775.306,1.2167,-0.8016
3150,777.811,1.2137,-0.8088
3165,780.316,1.2097,-0.8157
3180,782.824,1.2057,-0.8232
3195,785.331,1.2043,-0.8302
3210,787.838,1.2017,-0.8378
3225,790.338,1.198,-0.8455
3240,792.834,1.1949,-0.8524
3255,795.331,1.1926,-0.8591
3270,797.827,1.1896,-0.8652
3285,800.325,1.1862,-0.8719
3300,802.824,1.1849,-0.8786
3315,805.329,1.1822,-0.8842
3330,807.831,1.1795,-0.8901
3345,810.338,1.1762,-0.8966
3360,812.847,1.1762,-0.9026
3375,815.359,1.1718,-0.9094
3390,817.87,1.1705,-0.9151
3405,820.38,1.1688,-0.93
3420,822.89,1.1654,-0.9561
3435,825.398,1.1638,-0.9692
3450,827.896,1.1607,-0.9755
3465,830.393,1.1607,-0.9802
3480,832.89,1.1567,-0.9852
3495,835.387,1.1554,-0.9896
3510,837.883,1.154,-0.9955
3525,840.379,1.1513,-1.0021
3540,842.878,1.1487,-1.0082
3555,845.375,1.1487,-1.015
3570,847.875,1.1473,-1.0213
3585,850.376,1.144,-1.0286
3600,852.869,1.1416,-1.0355
3615,855.364,1.1383,-1.0409
3630,857.855,1.1369,-1.0472
3645,860.35,1.1356,-1.0513
3660,862.85,1.1342,-1.058
3675,865.345,1.1316,-1.0656
3690,867.834,1.1295,-1.0728
3705,870.318,1.1289,-1.079
3720,872.804,1.1259,-1.085
3735,875.295,1.1245,-1.0876
3750,877.791,1.1242,-1.0871
3765,880.293,1.1188,-1.0947
3780,882.798,1.1195,-1.1048
3795,885.311,1.1168,-1.1084
3810,887.825,1.1158,-1.113
3825,890.34,1.1161,-1.1204
3840,892.853,1.1141,-1.1347
3855,895.36,1.1138,-1.1493
3870,897.862,1.1111,-1.158
3885,900.361,1.1098,-1.1659
3900,902.861,1.1084,-1.1743
3915,905.364,1.1057,-1.1824
3930,907.87,1.1047,-1.1924
3945,910.376,1.1037,-1.2079
3960,912.879,1.1031,-1.2189
3975,915.374,1.1017,-1.2253
3990,917.866,1.099,-1.2325
4005,920.36,1.099,-1.2418
4020,922.859,1.098,-1.2526
4035,925.359,1.0957,-1.2633
4050,927.862,1.0947,-1.2744
4065,930.364,1.0947,-1.2918
4080,932.869,1.0927,-1.3107
4095,935.373,1.0933,-1.323
4110,937.884,1.0913,-1.3302
4125,940.386,1.09,-1.3388
4140,942.888,1.09,-1.3505
4155,945.387,1.0873,-1.3647
4170,947.884,1.0883,-1.3795
4185,950.383,1.087,-1.3946
4200,952.88,1.0843,-1.4102
4215,955.368,1.0856,-1.4252
4230,957.861,1.0833,-1.4421
4245,960.352,1.0846,-1.4596
4260,962.847,1.0839,-1.4773
4275,965.348,1.0823,-1.4932
4290,967.848,1.0819,-1.5096
4305,970.346,1.0813,-1.5233
4320,972.849,1.0813,-1.5391
4323,973.25,1.0813,-1.5414