Folder: matl-db/Wood/Calibration_Data/TIFP+UCT (part 4)

File: TIFP+UCT_STA_N2_5K_R1.csv
Time (s),Temperature (K),Mass (mg),Heat Flow Rate (W/g)
0,303.167,4.9303,-0.0072
28,303.1797,4.9319,-0.0071
56,303.194,4.9323,-0.007
84,303.199,4.9347,-0.0064
112,303.2007,4.9363,-0.0059
140,303.192,4.9385,-0.0052
168,303.186,4.9391,-0.0048
196,303.1793,4.9398,-0.0043
224,303.174,4.9401,-0.0044
252,303.165,4.9411,-0.0045
280,303.1597,4.9421,-0.0046
308,303.1627,4.9428,-0.0041
336,303.3382,4.9449,-0.0063
364,304.2199,4.9465,-0.0161
392,306.129,4.9467,-0.0328
420,308.9714,4.9481,-0.0492
448,312.3634,4.9469,-0.0617
476,315.8588,4.9467,-0.0695
504,319.1314,4.9482,-0.0732
532,322.0584,4.9477,-0.0745
560,324.6745,4.9474,-0.0751
588,327.0871,4.9468,-0.076
616,329.4088,4.9472,-0.0778
644,331.7098,4.9476,-0.0802
672,334.013,4.9458,-0.0829
700,336.336,4.9468,-0.0852
728,338.6673,4.9469,-0.0868
756,340.989,4.9478,-0.0865
784,343.3008,4.946,-0.0856
812,345.6125,4.9447,-0.0834
840,347.9298,4.9452,-0.0818
868,350.2535,4.9442,-0.0789
896,352.586,4.9442,-0.0764
924,354.9251,4.9442,-0.0738
952,357.2772,4.9455,-0.0714
980,359.6233,4.946,-0.0689
1008,361.97,4.9456,-0.0667
1036,364.3144,4.9456,-0.0654
1064,366.657,4.947,-0.0638
1092,368.9993,4.947,-0.063
1120,371.3442,4.947,-0.0624
1148,373.6843,4.9472,-0.062
1176,376.0179,4.947,-0.0616
1204,378.3558,4.947,-0.0615
1232,380.6943,4.947,-0.061
1260,383.0398,4.9456,-0.0606
1288,385.3856,4.947,-0.0603
1316,387.733,4.9483,-0.0597
1344,390.0814,4.947,-0.06
1372,392.4269,4.948,-0.0599
1400,394.768,4.9483,-0.0604
1428,397.1059,4.947,-0.061
1456,399.4428,4.9475,-0.062
1484,401.7843,4.9461,-0.0631
1512,404.1257,4.9476,-0.065
1540,406.4749,4.9476,-0.0672
1568,408.8258,4.9466,-0.0689
1596,411.1788,4.9456,-0.071
1624,413.5266,4.9458,-0.0727
1652,415.8735,4.9443,-0.0742
1680,418.2113,4.9443,-0.0762
1708,420.5486,4.9429,-0.078
1736,422.877,4.9416,-0.0801
1764,425.2079,4.9416,-0.082
1792,427.5364,4.9423,-0.0834
1820,429.8715,4.9392,-0.0848
1848,432.2027,4.9389,-0.0858
1876,434.5376,4.937,-0.0872
1904,436.8735,4.9362,-0.0889
1932,439.2057,4.9325,-0.0911
1960,441.5326,4.9312,-0.0934
1988,443.8598,4.9285,-0.0957
2016,446.1877,4.9268,-0.0978
2044,448.519,4.9232,-0.0996
2072,450.8475,4.9194,-0.1008
2100,453.1758,4.9174,-0.1029
2128,455.5018,4.9117,-0.1058
2156,457.8228,4.9067,-0.1113
2184,460.147,4.904,-0.1134
2212,462.4746,4.8973,-0.1116
2240,464.8098,4.8936,-0.1129
2268,467.1359,4.8869,-0.1144
2296,469.4664,4.8826,-0.1161
2324,471.797,4.8766,-0.1182
2352,474.1298,4.8683,-0.1203
2380,476.4576,4.8621,-0.122
2408,478.7898,4.8551,-0.1241
2436,481.118,4.847,-0.1257
2464,483.4408,4.839,-0.1281
2492,485.7685,4.8296,-0.1304
2520,488.0919,4.8205,-0.1326
2548,490.4186,4.8098,-0.135
2576,492.747,4.8004,-0.1369
2604,495.0788,4.7897,-0.139
2632,497.4156,4.7773,-0.1414
2660,499.7565,4.7638,-0.1443
2688,502.0929,4.7505,-0.1475
2716,504.4214,4.7351,-0.1512
2744,506.7433,4.7179,-0.1548
2772,509.0649,4.7014,-0.1585
2800,511.3868,4.683,-0.1618
2828,513.7208,4.6636,-0.165
2856,516.0539,4.6421,-0.168
2884,518.3889,4.6217,-0.1714
2912,520.721,4.5999,-0.1751
2940,523.0538,4.5782,-0.1788
2968,525.383,4.5535,-0.1827
2996,527.714,4.5292,-0.1861
3024,530.0456,4.5024,-0.1891
3052,532.3798,4.4766,-0.1915
3080,534.716,4.4488,-0.1945
3108,537.0439,4.4221,-0.1973
3136,539.3728,4.3932,-0.1999
3164,541.703,4.3646,-0.2027
3192,544.0301,4.3351,-0.2055
3220,546.3593,4.3055,-0.2075
3248,548.6975,4.2747,-0.2097
3276,551.0379,4.2435,-0.2123
3304,553.3768,4.2096,-0.2146
3332,555.7083,4.1769,-0.2184
3360,558.0338,4.1433,-0.2224
3388,560.3626,4.1056,-0.2268
3416,562.6893,4.0701,-0.2319
3444,565.0166,4.031,-0.2373
3472,567.3432,3.9925,-0.243
3500,569.677,3.9508,-0.2489
3528,572.015,3.9051,-0.2553
3556,574.3558,3.8602,-0.2627
3584,576.687,3.8103,-0.2706
3612,579.0139,3.7623,-0.2793
3640,581.3379,3.706,-0.2884
3668,583.6718,3.6499,-0.2972
3696,586.0019,3.5931,-0.3054
3724,588.3372,3.534,-0.3135
3752,590.6723,3.4696,-0.3213
3780,593.0069,3.4055,-0.3285
3808,595.3442,3.3394,-0.3355
3836,597.6855,3.2682,-0.3416
3864,600.0258,3.1999,-0.3477
3892,602.3586,3.1288,-0.3542
3920,604.6815,3.0573,-0.3617
3948,606.9979,2.9823,-0.3692
3976,609.3236,2.9076,-0.3764
4004,611.651,2.8299,-0.3847
4032,613.9878,2.7515,-0.3933
4060,616.3303,2.6713,-0.4038
4088,618.6713,2.5862,-0.4156
4116,621.0039,2.4983,-0.4288
4144,623.3342,2.4069,-0.4414
4172,625.6603,2.3122,-0.4518
4200,627.986,2.216,-0.4603
4228,630.3152,2.1164,-0.4659
4256,632.644,2.017,-0.4664
4284,634.9746,1.9189,-0.4599
4312,637.311,1.8242,-0.4449
4340,639.6478,1.7354,-0.4205
4368,641.9917,1.6593,-0.387
4396,644.3343,1.5933,-0.3451
4424,646.674,1.5429,-0.3016
4452,649.005,1.5065,-0.2627
4480,651.3314,1.4792,-0.2334
4508,653.6558,1.4616,-0.2158
4536,655.9878,1.4489,-0.207
4564,658.3188,1.4388,-0.2042
4592,660.6523,1.4288,-0.2046
4620,662.976,1.4185,-0.2061
4648,665.3016,1.4109,-0.2079
4676,667.6288,1.4035,-0.2097
4704,669.9638,1.3947,-0.2114
4732,672.2993,1.386,-0.2128
4760,674.6425,1.3778,-0.2145
4788,676.9856,1.3685,-0.2166
4816,679.3204,1.3617,-0.2198
4844,681.6545,1.354,-0.2224
4872,683.982,1.3453,-0.2257
4900,686.308,1.3376,-0.2294
4928,688.6345,1.3296,-0.233
4956,690.9579,1.3215,-0.2362
4984,693.2846,1.3138,-0.2397
5012,695.625,1.3058,-0.2429
5040,697.9638,1.299,-0.2473
5068,700.2978,1.2906,-0.2525
5096,702.6218,1.2833,-0.2585
5124,704.9409,1.2766,-0.2647
5152,707.2662,1.2705,-0.2707
5180,709.6033,1.2635,-0.2762
5208,711.9459,1.2581,-0.2822
5236,714.2912,1.2514,-0.2883
5264,716.6355,1.2474,-0.2948
5292,718.9701,1.2413,-0.3021
5320,721.2966,1.2363,-0.3099
5348,723.6138,1.2313,-0.3173
5376,725.9399,1.2258,-0.3239
5404,728.273,1.2231,-0.3299
5432,730.6165,1.2178,-0.3362
5460,732.9589,1.2144,-0.3421
5488,735.2976,1.2089,-0.3493
5516,737.6355,1.2066,-0.3567
5544,739.972,1.2026,-0.3633
5572,742.3099,1.1999,-0.3702
5600,744.64,1.1955,-0.3784
5628,746.9689,1.1928,-0.3856
5656,749.296,1.1884,-0.3933
5684,751.6228,1.1854,-0.4005
5712,753.9508,1.1828,-0.4071
5740,756.2878,1.1797,-0.4138
5768,758.626,1.1757,-0.4204
5796,760.9657,1.1737,-0.4281
5824,763.3062,1.171,-0.4352
5852,765.635,1.168,-0.4435
5880,767.9667,1.1667,-0.4512
5908,770.3024,1.1653,-0.4585
5936,772.6455,1.1619,-0.4655
5964,774.9917,1.1602,-0.474
5992,777.3268,1.1585,-0.4833
6020,779.6608,1.1548,-0.4918
6048,781.9899,1.1548,-0.501
6076,784.3056,1.1508,-0.5106
6104,786.621,1.1518,-0.5195
6132,788.9501,1.1472,-0.5271
6160,791.2966,1.1454,-0.5344
6188,793.6465,1.1443,-0.5427
6216,795.9887,1.1417,-0.5524
6244,798.3275,1.1404,-0.562
6272,800.6615,1.1377,-0.5715
6300,802.9939,1.1364,-0.5815
6328,805.3338,1.134,-0.591
6356,807.6735,1.1323,-0.6008
6384,810.0089,1.131,-0.6103
6412,812.3436,1.1289,-0.6213
6440,814.6685,1.1263,-0.6327
6468,816.9908,1.1237,-0.6445
6496,819.312,1.1225,-0.6556
6524,821.6415,1.1213,-0.6645
6552,823.9798,1.1189,-0.6747
6580,826.319,1.1169,-0.6851
6608,828.659,1.1153,-0.6971
6636,831.0005,1.1146,-0.7088
6664,833.334,1.1122,-0.7215
6692,835.6663,1.1105,-0.7339
6720,837.9928,1.1079,-0.7465
6748,840.3212,1.1065,-0.7583
6776,842.638,1.1058,-0.7725
6804,844.948,1.1048,-0.786
6832,847.2724,1.1005,-0.7983
6860,849.6192,1.0985,-0.809
6888,851.9718,1.0991,-0.8223
6916,854.3232,1.0985,-0.8355
6944,856.6653,1.0955,-0.8484
6972,859.0088,1.0938,-0.8605
7000,861.341,1.0938,-0.8749
7028,863.6645,1.0922,-0.8892
7056,865.9889,1.0904,-0.9034
7084,868.3102,1.0881,-0.9175
7112,870.6368,1.0878,-0.931
7140,872.9579,1.0854,-0.9425
7168,875.2908,1.084,-0.9519
7196,877.6278,1.083,-0.9635
7224,879.9728,1.0817,-0.975
7252,882.3122,1.0807,-0.9865
7280,884.65,1.0794,-0.9985
7308,886.9898,1.0767,-1.0092
7336,889.3256,1.0767,-1.0208
7364,891.6595,1.0737,-1.0319
7392,893.9859,1.072,-1.0406
7420,896.3122,1.072,-1.0499
7448,898.6423,1.071,-1.059
7476,900.9789,1.0703,-1.0676
7504,903.3218,1.07,-1.0745
7532,905.6603,1.0676,-1.0806
7560,908.004,1.0669,-1.0887
7588,910.3398,1.0674,-1.0975
7616,912.6733,1.0666,-1.1042
7644,915.004,1.0643,-1.1105
7672,917.3292,1.0623,-1.1165
7700,919.654,1.0609,-1.1221
7728,921.986,1.0609,-1.1272
7756,924.3148,1.0596,-1.1322
7784,926.6515,1.0576,-1.1357
7812,928.9869,1.0559,-1.1398
7840,931.3206,1.0555,-1.1439
7868,933.6665,1.0545,-1.1463
7896,936.0059,1.0549,-1.1545
7924,938.3409,1.0529,-1.1589
7952,940.664,1.0515,-1.1629
7980,942.9858,1.0508,-1.1659
8008,945.3162,1.0509,-1.1667
8036,947.6582,1.0488,-1.1685
8064,949.9937,1.0502,-1.1723
8092,952.3358,1.0495,-1.1741
8120,954.6765,1.0475,-1.1778
8148,957.0181,1.0462,-1.1805
8176,959.3524,1.0468,-1.1842
8204,961.6798,1.0451,-1.1877
8232,964.0001,1.0452,-1.1914
8260,966.3202,1.0425,-1.1944
8288,968.6528,1.0425,-1.196
8316,970.9949,1.0411,-1.2004
8343,973.212,1.0398,-1.2038

File: TIFP+UCT_STA_N2_5K_R2.csv
Time (s),Temperature (K),Mass (mg),Heat Flow Rate (W/g)
0,303.16,5.0767,-0.0037
28,303.1757,5.0765,-0.0038
56,303.188,5.0776,-0.004
84,303.2,5.0794,-0.0034
112,303.204,5.0802,-0.003
140,303.203,5.0815,-0.0023
168,303.194,5.0812,-0.002
196,303.188,5.0818,-0.0015
224,303.1817,5.083,-0.002
252,303.175,5.0846,-0.002
280,303.1693,5.0858,-0.0023
308,303.1673,5.086,-0.0024
336,303.3344,5.0869,-0.0021
364,304.2049,5.0877,-0.015
392,306.1015,5.0896,-0.0476
420,308.9455,5.0899,-0.0859
448,312.3491,5.0884,-0.1161
476,315.8505,5.0894,-0.1322
504,319.1336,5.0909,-0.1347
532,322.0694,5.0909,-0.1288
560,324.688,5.0888,-0.1204
588,327.1005,5.0882,-0.1122
616,329.4136,5.0896,-0.1079
644,331.7063,5.089,-0.1066
672,334.0138,5.0883,-0.1073
700,336.3384,5.0883,-0.1087
728,338.6655,5.0883,-0.1097
756,340.9838,5.0883,-0.1086
784,343.3022,5.0862,-0.1069
812,345.6135,5.0853,-0.1042
840,347.929,5.0865,-0.1014
868,350.251,5.0842,-0.0978
896,352.5855,5.0842,-0.095
924,354.9218,5.0842,-0.0915
952,357.2678,5.0855,-0.0884
980,359.618,5.0851,-0.0852
1008,361.9726,5.0855,-0.0823
1036,364.3194,5.0855,-0.0801
1064,366.6638,5.0855,-0.0772
1092,369.0028,5.0869,-0.0752
1120,371.3406,5.0865,-0.0732
1148,373.6818,5.0858,-0.0716
1176,376.0219,5.0869,-0.0702
1204,378.3612,5.0869,-0.0685
1232,380.706,5.0869,-0.0671
1260,383.0468,5.0869,-0.0653
1288,385.3924,5.0869,-0.0636
1316,387.739,5.088,-0.0623
1344,390.0819,5.0882,-0.0611
1372,392.421,5.0867,-0.0597
1400,394.7568,5.0869,-0.0591
1428,397.1007,5.0857,-0.0583
1456,399.4422,5.0853,-0.0579
1484,401.7913,5.0862,-0.0574
1512,404.1349,5.0863,-0.0578
1540,406.4826,5.087,-0.0583
1568,408.827,5.0857,-0.0587
1596,411.1738,5.0833,-0.059
1624,413.5162,5.0844,-0.0593
1652,415.8568,5.084,-0.0589
1680,418.1987,5.0846,-0.0591
1708,420.5418,5.0823,-0.0596
1736,422.8823,5.0823,-0.0593
1764,425.2216,5.0823,-0.0591
1792,427.5518,5.0814,-0.0586
1820,429.8755,5.0793,-0.0586
1848,432.2011,5.0789,-0.0581
1876,434.5332,5.0766,-0.0578
1904,436.8618,5.0756,-0.0579
1932,439.1989,5.0729,-0.0582
1960,441.5302,5.0699,-0.0581
1988,443.863,5.0679,-0.0578
2016,446.1879,5.0659,-0.0579
2044,448.5159,5.0612,-0.058
2072,450.8423,5.0585,-0.0575
2100,453.1688,5.0561,-0.0578
2128,455.4966,5.0514,-0.0584
2156,457.8218,5.0464,-0.0601
2184,460.1519,5.0424,-0.0601
2212,462.4778,5.0368,-0.0591
2240,464.8088,5.0319,-0.0586
2268,467.136,5.0239,-0.0581
2296,469.4702,5.017,-0.0576
2324,471.802,5.0099,-0.0581
2352,474.131,5.0026,-0.0582
2380,476.4578,4.9951,-0.0581
2408,478.783,4.9867,-0.0578
2436,481.1118,4.9787,-0.0568
2464,483.4368,4.9706,-0.0563
2492,485.7615,4.9599,-0.0563
2520,488.0868,4.9507,-0.056
2548,490.4112,4.9413,-0.056
2576,492.7445,4.9291,-0.056
2604,495.0818,4.9184,-0.0558
2632,497.4218,4.9049,-0.0559
2660,499.751,4.8902,-0.0565
2688,502.08,4.8765,-0.0573
2716,504.4062,4.8605,-0.0584
2744,506.7325,4.8446,-0.0589
2772,509.0599,4.8275,-0.0597
2800,511.3883,4.8077,-0.0605
2828,513.7163,4.7888,-0.0613
2856,516.0389,4.7659,-0.0621
2884,518.3742,4.7455,-0.0628
2912,520.707,4.7228,-0.0636
2940,523.0407,4.7,-0.0642
2968,525.3762,4.6752,-0.0644
2996,527.7095,4.6486,-0.0644
3024,530.0408,4.6215,-0.0643
3052,532.3726,4.5966,-0.0636
3080,534.703,4.5679,-0.0626
3108,537.0319,4.5378,-0.0618
3136,539.3648,4.5091,-0.0603
3164,541.6953,4.4784,-0.059
3192,544.027,4.4491,-0.0574
3220,546.3594,4.4184,-0.0557
3248,548.6908,4.3864,-0.0542
3276,551.0267,4.3542,-0.0521
3304,553.3676,4.3193,-0.0501
3332,555.704,4.2854,-0.0487
3360,558.0281,4.2515,-0.0479
3388,560.3462,4.2104,-0.0478
3416,562.668,4.1743,-0.0477
3444,564.9949,4.1353,-0.0478
3472,567.3334,4.0947,-0.0479
3500,569.672,4.0523,-0.0487
3528,572.0138,4.0052,-0.0499
3556,574.3522,3.9592,-0.0516
3584,576.6888,3.9084,-0.0535
3612,579.019,3.8573,-0.056
3640,581.3512,3.8009,-0.0593
3668,583.6828,3.7438,-0.0624
3696,586.0209,3.6847,-0.0653
3724,588.3568,3.6232,-0.0681
3752,590.6915,3.5591,-0.0705
3780,593.0269,3.4934,-0.0726
3808,595.3574,3.426,-0.0748
3836,597.681,3.3548,-0.0765
3864,600.0039,3.282,-0.0777
3892,602.3356,3.2106,-0.0786
3920,604.672,3.1373,-0.0798
3948,607.0081,3.061,-0.0818
3976,609.3429,2.9861,-0.0843
4004,611.677,2.9056,-0.0873
4032,614.0075,2.826,-0.0914
4060,616.3332,2.7433,-0.0969
4088,618.6605,2.6574,-0.1033
4116,620.9928,2.567,-0.1101
4144,623.322,2.473,-0.1165
4172,625.6493,2.3765,-0.1222
4200,627.9718,2.2779,-0.1262
4228,630.3092,2.1771,-0.1274
4256,632.6515,2.0753,-0.1242
4284,634.9967,1.9739,-0.1138
4312,637.332,1.8775,-0.095
4340,639.6625,1.7883,-0.0672
4368,641.9888,1.7087,-0.0314
4396,644.3146,1.6418,0.0108
4424,646.6473,1.5917,0.0551
4452,648.9819,1.5546,0.0959
4480,651.3192,1.5273,0.1295
4508,653.6578,1.5101,0.1517
4536,655.993,1.4975,0.1658
4564,658.3286,1.4873,0.1742
4592,660.6658,1.4767,0.1799
4620,663.0057,1.4683,0.1846
4648,665.3372,1.4599,0.1888
4676,667.67,1.4505,0.193
4704,670.0018,1.4418,0.1977
4732,672.3258,1.4332,0.2019
4760,674.6488,1.4264,0.2067
4788,676.9669,1.4161,0.2107
4816,679.2902,1.4079,0.2142
4844,681.6248,1.4012,0.2183
4872,683.9589,1.391,0.2222
4900,686.2942,1.386,0.2261
4928,688.6333,1.3753,0.2296
4956,690.978,1.3686,0.2333
4984,693.3166,1.3595,0.2366
5012,695.6538,1.3527,0.2394
5040,697.9848,1.3448,0.2416
5068,700.3042,1.3379,0.2443
5096,702.6303,1.3311,0.2464
5124,704.9658,1.325,0.2483
5152,707.2976,1.3176,0.2499
5180,709.6325,1.3105,0.2512
5208,711.97,1.3049,0.2521
5236,714.3022,1.2996,0.2533
5264,716.634,1.2944,0.2543
5292,718.9627,1.2875,0.2554
5320,721.2898,1.283,0.2561
5348,723.6273,1.277,0.2576
5376,725.9599,1.2716,0.2585
5404,728.2942,1.2676,0.2597
5432,730.6265,1.2636,0.2611
5460,732.9578,1.2602,0.2632
5488,735.2894,1.2535,0.2647
5516,737.6275,1.2498,0.2664
5544,739.9647,1.2472,0.2686
5572,742.296,1.2445,0.2704
5600,744.6285,1.2401,0.2718
5628,746.9599,1.2374,0.2737
5656,749.2908,1.233,0.2756
5684,751.6173,1.23,0.2775
5712,753.9379,1.226,0.2794
5740,756.2652,1.2233,0.2818
5768,758.6125,1.2203,0.2838
5796,760.9559,1.217,0.2853
5824,763.2972,1.2142,0.2876
5852,765.6305,1.2113,0.2897
5880,767.9578,1.2089,0.2917
5908,770.2852,1.2062,0.294
5936,772.6238,1.2022,0.2964
5964,774.9668,1.2009,0.2983
5992,777.3104,1.1992,0.3
6020,779.6505,1.1955,0.3017
6048,781.9829,1.1942,0.303
6076,784.3126,1.1901,0.3046
6104,786.644,1.1901,0.3058
6132,788.9739,1.1881,0.3078
6160,791.3069,1.1854,0.3096
6188,793.6385,1.1844,0.3115
6216,795.9588,1.1818,0.3133
6244,798.2768,1.1791,0.3144
6272,800.6015,1.1764,0.3161
6300,802.9449,1.175,0.3171
6328,805.2994,1.1737,0.3179
6356,807.654,1.171,0.3196
6384,810.0038,1.171,0.3216
6412,812.3416,1.1676,0.3226
6440,814.6655,1.1653,0.3234
6468,816.9927,1.1636,0.3239
6496,819.3044,1.1608,0.3246
6524,821.619,1.1598,0.3263
6552,823.9498,1.1578,0.3273
6580,826.2942,1.1558,0.3277
6608,828.6425,1.1531,0.3278
6636,830.9907,1.1531,0.3286
6664,833.3346,1.1504,0.3291
6692,835.6675,1.1481,0.3293
6720,837.9911,1.1464,0.3289
6748,840.3172,1.1444,0.3296
6776,842.6473,1.1431,0.3296
6804,844.9809,1.1417,0.3295
6832,847.3126,1.1389,0.3292
6860,849.6287,1.137,0.3297
6888,851.9449,1.137,0.3299
6916,854.2802,1.1364,0.3304
6944,856.6298,1.1333,0.3317
6972,858.9697,1.1317,0.333
7000,861.3013,1.1317,0.3337
7028,863.6325,1.1293,0.3343
7056,865.9659,1.128,0.3347
7084,868.3024,1.1264,0.3349
7112,870.6343,1.1253,0.336
7140,872.9676,1.124,0.3377
7168,875.312,1.1226,0.3414
7196,877.6505,1.1216,0.3433
7224,879.9897,1.1203,0.345
7252,882.3188,1.1179,0.3455
7280,884.6515,1.1169,0.3479
7308,886.982,1.1143,0.351
7336,889.3193,1.1152,0.3545
7364,891.6575,1.1119,0.3581
7392,893.9898,1.1119,0.3626
7420,896.3142,1.1105,0.3663
7448,898.6388,1.1102,0.3702
7476,900.9729,1.1075,0.3736
7504,903.3132,1.1082,0.3786
7532,905.651,1.1055,0.3845
7560,907.9869,1.1058,0.3896
7588,910.3242,1.1043,0.394
7616,912.654,1.1038,0.3995
7644,914.9839,1.1016,0.4054
7672,917.3213,1.0998,0.4114
7700,919.6618,1.0991,0.4179
7728,921.999,1.0985,0.4243
7756,924.3358,1.0971,0.4306
7784,926.6698,1.0951,0.4258
7812,929.0029,1.0934,0.4335
7840,931.3378,1.0936,0.4414
7868,933.6608,1.0928,0.4491
7896,935.9856,1.0918,0.4565
7924,938.3136,1.0921,0.4647
7952,940.6435,1.0901,0.4734
7980,942.9848,1.0908,0.4813
8008,945.3288,1.0898,0.4896
8036,947.677,1.0877,0.4991
8064,950.0148,1.0884,0.5072
8092,952.3416,1.0877,0.515
8120,954.6645,1.0867,0.5238
8148,956.9919,1.0854,0.5333
8176,959.3186,1.0867,0.5425
8204,961.6533,1.085,0.5533
8232,963.9987,1.0851,0.5634
8260,966.3468,1.0825,0.5728
8288,968.6828,1.0824,0.5821
8316,971.006,1.0814,0.5945
8343,973.202,1.08,0.6044

File: TIFP+UCT_STA_N2_5K_R3.csv
Time (s),Temperature (K),Mass (mg),Heat Flow Rate (W/g)
0,303.163,5.1073,-0.0091
28,303.172,5.1033,-0.0085
56,303.1847,5.1009,-0.0084
84,303.193,5.1005,-0.0077
112,303.1953,5.0977,-0.0073
140,303.188,5.097,-0.0067
168,303.177,5.093,-0.0065
196,303.1643,5.0923,-0.0062
224,303.156,5.0897,-0.0062
252,303.15,5.0883,-0.0061
280,303.1547,5.088,-0.0057
308,303.165,5.0855,-0.0051
336,303.3409,5.0853,-0.0042
364,304.1969,5.084,-0.0053
392,306.0625,5.0847,-0.0124
420,308.8783,5.0837,-0.022
448,312.2709,5.0815,-0.0319
476,315.7885,5.0816,-0.0384
504,319.1035,5.0802,-0.0398
532,322.075,5.0776,-0.039
560,324.7215,5.0741,-0.0383
588,327.1468,5.0715,-0.0377
616,329.4602,5.0702,-0.0386
644,331.7398,5.0683,-0.04
672,334.0282,5.0648,-0.0419
700,336.3392,5.0635,-0.0438
728,338.6545,5.0622,-0.0447
756,340.9758,5.0608,-0.0444
784,343.2866,5.0585,-0.043
812,345.5985,5.0558,-0.0408
840,347.9189,5.055,-0.0381
868,350.2458,5.0526,-0.0348
896,352.583,5.05,-0.0315
924,354.924,5.0495,-0.028
952,357.272,5.0486,-0.0247
980,359.6143,5.0463,-0.0219
1008,361.9548,5.0446,-0.0189
1036,364.2959,5.0446,-0.0167
1064,366.6435,5.0446,-0.0146
1092,368.998,5.0419,-0.0127
1120,371.3492,5.0419,-0.0107
1148,373.6928,5.0395,-0.009
1176,376.0357,5.0392,-0.0078
1204,378.3692,5.0365,-0.0062
1232,380.7068,5.0365,-0.0046
1260,383.0521,5.0352,-0.0026
1288,385.3936,5.0339,-0.0008
1316,387.7348,5.0325,0.0003
1344,390.0725,5.0312,0.0012
1372,392.4128,5.0296,0.0018
1400,394.752,5.0285,0.0023
1428,397.0949,5.0272,0.0026
1456,399.439,5.0258,0.0024
1484,401.7878,5.025,0.0019
1512,404.1396,5.0238,0.0009
1540,406.4863,5.0231,-0.0005
1568,408.8293,5.0204,-0.0018
1596,411.1718,5.0191,-0.0032
1624,413.5158,5.0179,-0.0046
1652,415.86,5.0151,-0.0052
1680,418.208,5.0154,-0.0063
1708,420.5548,5.0121,-0.0077
1736,422.893,5.0107,-0.0091
1764,425.2288,5.0087,-0.01
1792,427.5556,5.0068,-0.0111
1820,429.8845,5.004,-0.0123
1848,432.2067,5.0126,-0.0108
1876,434.5332,5.0036,-0.0117
1904,436.8648,4.9992,-0.0133
1932,439.1938,4.9938,-0.0151
1960,441.5238,4.9898,-0.0165
1988,443.8515,4.9865,-0.0177
2016,446.1848,4.9831,-0.0189
2044,448.5128,4.9781,-0.0202
2072,450.8445,4.9737,-0.0208
2100,453.1667,4.9742,-0.0216
2128,455.4906,4.9657,-0.0237
2156,457.8193,4.9594,-0.0255
2184,460.1546,4.9527,-0.0265
2212,462.4892,4.9463,-0.0281
2240,464.827,4.9395,-0.0295
2268,467.1588,4.9316,-0.0305
2296,469.4962,4.9247,-0.0317
2324,471.8265,4.9173,-0.0338
2352,474.1567,4.9084,-0.0353
2380,476.4812,4.8999,-0.0371
2408,478.7973,4.8925,-0.0389
2436,481.1148,4.8833,-0.0401
2464,483.4342,4.8727,-0.0417
2492,485.7553,4.8628,-0.0438
2520,488.0819,4.8492,-0.0468
2548,490.4086,4.8416,-0.0479
2576,492.7375,4.8325,-0.0487
2604,495.0627,4.8206,-0.0501
2632,497.3926,4.8094,-0.0517
2660,499.724,4.7918,-0.0539
2688,502.0589,4.7764,-0.0576
2716,504.3956,4.7618,-0.06
2744,506.735,4.7479,-0.0618
2772,509.0708,4.7294,-0.0639
2800,511.406,4.7107,-0.0665
2828,513.7365,4.69,-0.0695
2856,516.0678,4.6674,-0.0725
2884,518.3936,4.6447,-0.0756
2912,520.723,4.6202,-0.0788
2940,523.0508,4.5971,-0.0817
2968,525.3802,4.5724,-0.0843
2996,527.708,4.5468,-0.0862
3024,530.0398,4.5197,-0.0877
3052,532.3756,4.4927,-0.0888
3080,534.7115,4.4644,-0.0894
3108,537.0498,4.4364,-0.0907
3136,539.3814,4.4057,-0.0919
3164,541.705,4.3756,-0.0934
3192,544.0269,4.3446,-0.095
3220,546.3532,4.3136,-0.0957
3248,548.6795,4.2811,-0.0965
3276,551.0137,4.2476,-0.0967
3304,553.3525,4.2113,-0.097
3332,555.689,4.1773,-0.0981
3360,558.0287,4.1424,-0.0997
3388,560.3665,4.1032,-0.1021
3416,562.7008,4.0648,-0.1051
3444,565.0358,4.0238,-0.1087
3472,567.3652,3.9831,-0.1126
3500,569.691,3.9391,-0.117
3528,572.0191,3.8915,-0.1216
3556,574.3486,3.8443,-0.1261
3584,576.677,3.7911,-0.1311
3612,579.0029,3.7389,-0.1368
3640,581.3332,3.6816,-0.1425
3668,583.6625,3.6243,-0.1482
3696,585.9977,3.5632,-0.1534
3724,588.3338,3.5005,-0.1585
3752,590.6738,3.434,-0.163
3780,593.0159,3.3686,-0.167
3808,595.3538,3.2991,-0.1714
3836,597.6858,3.2273,-0.1754
3864,600.0159,3.1548,-0.1791
3892,602.3516,3.0822,-0.1821
3920,604.6818,3.009,-0.1863
3948,607.0129,2.9322,-0.191
3976,609.3432,2.8553,-0.1965
4004,611.672,2.7765,-0.2034
4032,614.0048,2.6962,-0.2107
4060,616.3376,2.611,-0.2197
4088,618.6763,2.5238,-0.2296
4116,621.0059,2.4338,-0.2406
4144,623.3362,2.3374,-0.2503
4172,625.6605,2.24,-0.2597
4200,627.9829,2.1399,-0.2663
4228,630.3142,2.0385,-0.2686
4256,632.65,1.9453,-0.2639
4284,634.9908,1.8296,-0.2575
4312,637.3236,1.7354,-0.2407
4340,639.654,1.6481,-0.2137
4368,641.9839,1.5681,-0.1795
4396,644.3186,1.5056,-0.1379
4424,646.6518,1.458,-0.0966
4452,648.9877,1.4253,-0.0605
4480,651.3278,1.3905,-0.0347
4508,653.6675,1.3785,-0.0199
4536,655.9989,1.3681,-0.0125
4564,658.326,1.3601,-0.0105
4592,660.6498,1.3487,-0.0107
4620,662.9758,1.3405,-0.0111
4648,665.297,1.3323,-0.0118
4676,667.627,1.3211,-0.0122
4704,669.9628,1.3131,-0.0124
4732,672.3028,1.3042,-0.0121
4760,674.6408,1.2968,-0.0124
4788,676.9808,1.2877,-0.0128
4816,679.3132,1.2797,-0.0147
4844,681.642,1.2716,-0.0161
4872,683.9687,1.2629,-0.0178
4900,686.2992,1.2534,-0.0197
4928,688.6303,1.2428,-0.0216
4956,690.9697,1.2357,-0.0228
4984,693.3066,1.2279,-0.0248
5012,695.6413,1.2206,-0.0278
5040,697.969,1.2132,-0.0317
5068,700.2998,1.2046,-0.0352
5096,702.6275,1.1974,-0.0394
5124,704.9577,1.1907,-0.0432
5152,707.2932,1.182,-0.0473
5180,709.6315,1.1758,-0.0515
5208,711.9696,1.1696,-0.0577
5236,714.2982,1.1629,-0.0634
5264,716.628,1.1588,-0.0692
5292,718.9589,1.1515,-0.0746
5320,721.2846,1.1474,-0.0808
5348,723.6065,1.1413,-0.0865
5376,725.9367,1.136,-0.0909
5404,728.2798,1.1309,-0.0949
5432,730.6263,1.128,-0.1
5460,732.9669,1.1246,-0.1058
5488,735.2974,1.1179,-0.113
5516,737.6278,1.1142,-0.1192
5544,739.9578,1.1105,-0.1252
5572,742.2878,1.1062,-0.1306
5600,744.6195,1.1029,-0.1366
5628,746.9479,1.0991,-0.1418
5656,749.2823,1.0947,-0.147
5684,751.6203,1.0921,-0.1528
5712,753.9529,1.0878,-0.158
5740,756.2895,1.0834,-0.1637
5768,758.628,1.082,-0.169
5796,760.9609,1.0777,-0.1759
5824,763.292,1.0746,-0.1815
5852,765.6278,1.0716,-0.1871
5880,767.9619,1.0716,-0.1937
5908,770.2953,1.0676,-0.2002
5936,772.6288,1.0639,-0.2056
5964,774.9706,1.0612,-0.2114
5992,777.3024,1.0596,-0.2187
6020,779.6348,1.0559,-0.2253
6048,781.961,1.0545,-0.2322
6076,784.2908,1.0505,-0.2384
6104,786.6323,1.0505,-0.2434
6132,788.9768,1.0468,-0.2486
6160,791.3202,1.0455,-0.2557
6188,793.656,1.0431,-0.263
6216,795.984,1.0404,-0.2711
6244,798.3112,1.0378,-0.2777
6272,800.6475,1.0351,-0.2828
6300,802.9817,1.0314,-0.2925
6328,805.3142,1.0284,-0.3021
6356,807.6533,1.0273,-0.3071
6384,809.9959,1.027,-0.3127
6412,812.3414,1.0236,-0.3197
6440,814.6715,1.0213,-0.3292
6468,816.9902,1.0197,-0.3374
6496,819.317,1.0168,-0.3443
6524,821.644,1.016,-0.3506
6552,823.9729,1.0136,-0.3581
6580,826.3102,1.0116,-0.3644
6608,828.6488,1.0089,-0.3724
6636,830.9869,1.0079,-0.3806
6664,833.3142,1.0052,-0.39
6692,835.6438,1.0039,-0.3983
6720,837.9728,1.0022,-0.4065
6748,840.306,1.0007,-0.4136
6776,842.6463,0.9992,-0.4243
6804,844.9818,0.9982,-0.4395
6832,847.3132,0.9964,-0.4502
6860,849.6415,0.9942,-0.4586
6888,851.9659,0.9932,-0.4665
6916,854.2972,0.9911,-0.4728
6944,856.6278,0.9895,-0.4788
6972,858.9658,0.9878,-0.4852
7000,861.3062,0.9878,-0.4915
7028,863.6488,0.9865,-0.4979
7056,865.9931,0.9841,-0.5057
7084,868.3272,0.9814,-0.5148
7112,870.6575,0.9814,-0.5227
7140,872.9807,0.9801,-0.5379
7168,875.3076,0.9787,-0.5452
7196,877.6415,0.9764,-0.5469
7224,879.974,0.9758,-0.5484
7252,882.3142,0.974,-0.5513
7280,884.645,0.973,-0.5557
7308,886.978,0.97,-0.5578
7336,889.3082,0.971,-0.5614
7364,891.6343,0.9677,-0.5699
7392,893.9677,0.9663,-0.5715
7420,896.3119,0.965,-0.5706
7448,898.654,0.9633,-0.5707
7476,900.9799,0.9633,-0.5694
7504,903.3042,0.9626,-0.56
7532,905.636,0.9617,-0.5495
7560,907.9786,0.9601,-0.543
7588,910.3168,0.9595,-0.5378
7616,912.6513,0.9588,-0.5313
7644,914.9858,0.9572,-0.5242
7672,917.3154,0.9558,-0.5175
7700,919.6438,0.9545,-0.5095
7728,921.9739,0.9531,-0.5016
7756,924.3083,0.9527,-0.4919
7784,926.6473,0.9501,-0.4818
7812,928.987,0.9484,-0.4709
7840,931.3262,0.9481,-0.4626
7868,933.659,0.9481,-0.4512
7896,935.994,0.9468,-0.4403
7924,938.3218,0.9461,-0.431
7952,940.6363,0.9454,-0.4186
7980,942.958,0.9441,-0.405
8008,945.3022,0.9437,-0.3888
8036,947.6563,0.9421,-0.3748
8064,949.9999,0.9417,-0.363
8092,952.3316,0.9411,-0.3515
8120,954.6543,0.9411,-0.3394
8148,956.9728,0.9397,-0.3242
8176,959.3072,0.9397,-0.3079
8204,961.65,0.9394,-0.2912
8232,963.9959,0.9387,-0.2774
8260,966.3346,0.9367,-0.263
8288,968.675,0.937,-0.2486
8316,971.0108,0.936,-0.2348
8343,973.203,0.9347,-0.2228