Folder: matl-db/Wood/Calibration_Data/TIFP+UCT (part 5)

File: TIFP+UCT_STA_N2_5K_R4.csv
Time (s),Temperature (K),Mass (mg),Heat Flow Rate (W/g)
0,303.153,5.0882,-0.0111
28,303.1607,5.0846,-0.0098
56,303.169,5.0814,-0.0092
84,303.179,5.0816,-0.0081
112,303.185,5.0788,-0.0075
140,303.183,5.0774,-0.0071
168,303.179,5.0753,-0.0066
196,303.176,5.0709,-0.0063
224,303.17,5.0694,-0.0066
252,303.165,5.068,-0.0065
280,303.1587,5.0663,-0.0064
308,303.1607,5.0639,-0.0064
336,303.324,5.0636,0.0039
364,304.1767,5.0628,0.0282
392,306.05,5.0635,0.0513
420,308.876,5.0633,0.0666
448,312.2827,5.0614,0.0713
476,315.8073,5.0587,0.0685
504,319.126,5.0573,0.0622
532,322.0973,5.0547,0.0549
560,324.737,5.0515,0.0491
588,327.155,5.0483,0.0457
616,329.463,5.0472,0.0439
644,331.7453,5.0449,0.0434
672,334.033,5.0429,0.0438
700,336.3397,5.0416,0.0441
728,338.6557,5.0416,0.0448
756,340.974,5.0382,0.0468
784,343.2853,5.0351,0.0492
812,345.603,5.0339,0.0525
840,347.919,5.0331,0.0561
868,350.2423,5.0307,0.0606
896,352.579,5.0281,0.0648
924,354.92,5.0281,0.0691
952,357.2643,5.0267,0.0734
980,359.6123,5.0257,0.0773
1008,361.96,5.024,0.0811
1036,364.3113,5.0234,0.0838
1064,366.6603,5.0227,0.087
1092,369.009,5.0214,0.0897
1120,371.3527,5.019,0.092
1148,373.692,5.0176,0.0941
1176,376.033,5.0173,0.096
1204,378.3703,5.016,0.0982
1232,380.7093,5.016,0.1
1260,383.056,5.0136,0.1026
1288,385.4007,5.0133,0.105
1316,387.747,5.012,0.1068
1344,390.09,5.0106,0.108
1372,392.4247,5.0082,0.1094
1400,394.7587,5.0079,0.1104
1428,397.097,5.0066,0.1118
1456,399.4417,5.0039,0.1127
1484,401.785,5.0044,0.1135
1512,404.131,5.0032,0.1139
1540,406.481,5.0026,0.1139
1568,408.83,4.9999,0.1142
1596,411.18,4.9985,0.1139
1624,413.5283,4.9973,0.1139
1652,415.8737,4.9942,0.1141
1680,418.212,4.9959,0.1136
1708,420.5513,4.9918,0.1133
1736,422.888,4.9904,0.1132
1764,425.221,4.9898,0.1129
1792,427.5513,4.9868,0.1132
1820,429.8817,4.9848,0.1133
1848,432.207,4.9926,0.1159
1876,434.5403,4.9842,0.1164
1904,436.8737,4.9805,0.1159
1932,439.207,4.9765,0.1162
1960,441.5417,4.9725,0.1163
1988,443.8697,4.9685,0.1165
2016,446.199,4.9661,0.1166
2044,448.52,4.9631,0.1166
2072,450.8393,4.9627,0.1183
2100,453.165,4.956,0.1183
2128,455.4923,4.9488,0.1178
2156,457.822,4.9414,0.1164
2184,460.157,4.9372,0.118
2212,462.4893,4.9305,0.1191
2240,464.8183,4.9235,0.1194
2268,467.143,4.9196,0.12
2296,469.4717,4.9111,0.121
2324,471.799,4.9031,0.1216
2352,474.132,4.8949,0.1223
2380,476.4673,4.8879,0.1236
2408,478.802,4.8788,0.1246
2436,481.135,4.8704,0.1254
2464,483.4603,4.859,0.1251
2492,485.786,4.8496,0.1251
2520,488.11,4.839,0.1261
2548,490.4377,4.8294,0.1266
2576,492.763,4.8174,0.1272
2604,495.092,4.8051,0.1278
2632,497.4193,4.7921,0.1275
2660,499.7437,4.7789,0.1276
2688,502.064,4.7648,0.128
2716,504.399,4.7321,0.1248
2744,506.7297,4.7234,0.1247
2772,509.059,4.7051,0.1257
2800,511.3943,4.6888,0.1263
2828,513.725,4.6717,0.1272
2856,516.06,4.6495,0.128
2884,518.393,4.6293,0.1287
2912,520.7273,4.6054,0.1289
2940,523.059,4.5816,0.1284
2968,525.3843,4.5558,0.1286
2996,527.711,4.5297,0.1292
3024,530.044,4.5024,0.1305
3052,532.378,4.4762,0.1324
3080,534.7117,4.4467,0.1338
3108,537.039,4.417,0.1354
3136,539.368,4.3867,0.1371
3164,541.6967,4.3567,0.1392
3192,544.036,4.3249,0.142
3220,546.372,4.2928,0.1442
3248,548.7007,4.2609,0.1457
3276,551.028,4.2276,0.1476
3304,553.358,4.1918,0.15
3332,555.6897,4.1573,0.1521
3360,558.021,4.1233,0.154
3388,560.3577,4.084,0.155
3416,562.6907,4.0454,0.1556
3444,565.023,4.0049,0.156
3472,567.3533,3.963,0.1554
3500,569.6823,3.9199,0.1546
3528,572.003,3.8726,0.1534
3556,574.333,3.8236,0.1529
3584,576.6733,3.7719,0.1527
3612,579.015,3.7194,0.1514
3640,581.355,3.6631,0.1496
3668,583.693,3.6038,0.147
3696,586.026,3.5421,0.1445
3724,588.3553,3.4794,0.1427
3752,590.68,3.413,0.141
3780,593.008,3.348,0.1411
3808,595.343,3.2787,0.1412
3836,597.6793,3.2067,0.1413
3864,600.012,3.134,0.1415
3892,602.3433,3.062,0.1419
3920,604.6703,2.9878,0.1413
3948,606.993,2.9124,0.14
3976,609.324,2.8368,0.139
4004,611.6597,2.7568,0.1371
4032,613.999,2.6767,0.1345
4060,616.34,2.5927,0.1294
4088,618.6787,2.5086,0.1244
4116,621.009,2.4119,0.1161
4144,623.3323,2.3148,0.1089
4172,625.6577,2.2172,0.1042
4200,627.989,2.1197,0.1028
4228,630.3277,2.0165,0.105
4256,632.669,1.912,0.1102
4284,635.004,1.8106,0.1222
4312,637.335,1.7115,0.1412
4340,639.66,1.6245,0.1696
4368,641.982,1.5464,0.2062
4396,644.3097,1.486,0.2484
4424,646.642,1.4359,0.2905
4452,648.984,1.4,0.3265
4480,651.322,1.381,0.3557
4508,653.661,1.3645,0.3741
4536,655.996,1.3494,0.3838
4564,658.3233,1.3424,0.3902
4592,660.65,1.3323,0.3958
4620,662.985,1.3246,0.4014
4648,665.321,1.3162,0.4058
4676,667.652,1.3068,0.4099
4704,669.981,1.2987,0.4137
4732,672.2973,1.2894,0.4179
4760,674.6203,1.2811,0.4229
4788,676.953,1.2721,0.4285
4816,679.2913,1.264,0.4336
4844,681.639,1.2467,0.4379
4872,683.983,1.2422,0.4415
4900,686.3163,1.2379,0.446
4928,688.6453,1.2285,0.4503
4956,690.973,1.2218,0.4552
4984,693.306,1.2127,0.4592
5012,695.6393,1.2056,0.4627
5040,697.968,1.1992,0.466
5068,700.294,1.1917,0.4693
5096,702.628,1.1834,0.4727
5124,704.963,1.1754,0.4763
5152,707.3017,1.1683,0.479
5180,709.6403,1.162,0.4814
5208,711.967,1.1556,0.4826
5236,714.285,1.1489,0.4846
5264,716.6097,1.1462,0.4875
5292,718.937,1.1388,0.4906
5320,721.276,1.1334,0.4939
5348,723.6177,1.1274,0.4965
5376,725.961,1.122,0.4989
5404,728.298,1.118,0.5016
5432,730.6297,1.1133,0.5038
5460,732.96,1.1093,0.5067
5488,735.29,1.1039,0.5087
5516,737.6143,1.1002,0.5115
5544,739.943,1.0952,0.5154
5572,742.2747,1.0922,0.5187
5600,744.609,1.0878,0.5222
5628,746.939,1.0841,0.5258
5656,749.2687,1.0807,0.5294
5684,751.5997,1.0774,0.5335
5712,753.937,1.0734,0.5384
5740,756.2817,1.0704,0.5424
5768,758.6217,1.0677,0.5462
5796,760.953,1.0634,0.5488
5824,763.2887,1.0602,0.5532
5852,765.6213,1.0573,0.5578
5880,767.958,1.056,0.5627
5908,770.2987,1.0531,0.5676
5936,772.6357,1.0496,0.5725
5964,774.976,1.0459,0.5774
5992,777.3123,1.0439,0.5811
6020,779.647,1.0402,0.5854
6048,781.974,1.0389,0.5887
6076,784.2953,1.0349,0.5928
6104,786.6177,1.0349,0.597
6132,788.95,1.0322,0.602
6160,791.2877,1.0285,0.6049
6188,793.6263,1.0271,0.6087
6216,795.966,1.0234,0.6127
6244,798.3067,1.0231,0.617
6272,800.6393,1.0202,0.6216
6300,802.965,1.0181,0.6245
6328,805.297,1.0147,0.6284
6356,807.634,1.0124,0.6327
6384,809.972,1.011,0.6369
6412,812.309,1.0077,0.6409
6440,814.6467,1.0053,0.6448
6468,816.98,1.0037,0.6483
6496,819.3124,1.0021,0.6519
6524,821.6397,1.0003,0.6571
6552,823.977,0.9976,0.6623
6580,826.315,0.997,0.6626
6608,828.642,0.9956,0.663
6636,830.966,0.9931,0.6663
6664,833.2917,0.9905,0.6703
6692,835.627,0.989,0.6754
6720,837.966,0.9864,0.6795
6748,840.305,0.9858,0.685
6776,842.6483,0.9838,0.6893
6804,844.986,0.9814,0.6935
6832,847.319,0.9796,0.6974
6860,849.653,0.9764,0.7021
6888,851.992,0.9764,0.7068
6916,854.323,0.9699,0.711
6944,856.652,0.9689,0.7169
6972,858.984,0.9702,0.7253
7000,861.3143,0.9699,0.7315
7028,863.6447,0.9676,0.7368
7056,865.967,0.9676,0.7418
7084,868.2897,0.9653,0.7468
7112,870.612,0.9655,0.7429
7140,872.946,0.9629,0.7398
7168,875.2807,0.9615,0.7462
7196,877.626,0.9592,0.7543
7224,879.968,0.9578,0.7635
7252,882.3043,0.9568,0.7719
7280,884.6344,0.9555,0.7806
7308,886.963,0.9528,0.7896
7336,889.295,0.9531,0.7988
7364,891.6353,0.9508,0.8092
7392,893.975,0.9498,0.8197
7420,896.31,0.9484,0.8304
7448,898.6386,0.9478,0.8407
7476,900.976,0.9468,0.851
7504,903.307,0.947,0.864
7532,905.6437,0.9461,0.8787
7560,907.986,0.9434,0.8908
7588,910.3227,0.9445,0.903
7616,912.6553,0.9424,0.9156
7644,914.984,0.94,0.9279
7672,917.3124,0.939,0.9428
7700,919.6497,0.938,0.9575
7728,921.989,0.936,0.973
7756,924.3247,0.9347,0.988
7784,926.6597,0.9327,1.0041
7812,928.989,0.9317,1.0199
7840,931.3197,0.931,1.0368
7868,933.6577,0.9307,1.0534
7896,935.99,0.9307,1.0696
7924,938.3223,0.9293,1.0875
7952,940.6577,0.9293,1.1064
7980,942.995,0.9293,1.1243
8008,945.3337,0.927,1.1426
8036,947.6646,0.9263,1.1625
8064,949.992,0.9263,1.1809
8092,952.3217,0.9267,1.2002
8120,954.658,0.925,1.22
8148,956.991,0.9256,1.2405
8176,959.325,0.927,1.2608
8204,961.6583,0.9246,1.282
8232,963.985,0.9253,1.3032
8260,966.3143,0.9216,1.3236
8288,968.651,0.9226,1.3468
8316,970.993,0.9213,1.3693
8343,973.194,0.9219,1.3902

File: TIFP+UCT_STA_N2_20K_R1.csv
Time (s),Temperature (K),Mass (mg),Heat Flow Rate (W/g)
0,303.147,5.0232,-0.0036
8,303.148,5.0226,-0.0035
16,303.1497,5.0236,-0.0035
24,303.153,5.0233,-0.0034
32,303.156,5.0238,-0.0034
40,303.1563,5.0229,-0.0035
48,303.16,5.0217,-0.0034
56,303.1643,5.0234,-0.0033
64,303.1647,5.023,-0.0036
72,303.17,5.022,-0.0033
80,303.1683,5.0231,-0.0034
88,303.168,5.0226,-0.0034
96,303.173,5.023,-0.0036
104,303.1737,5.0216,-0.0035
112,303.1723,5.0242,-0.0033
120,303.174,5.023,-0.0035
128,303.1747,5.0231,-0.0033
136,303.1723,5.023,-0.0032
144,303.173,5.0231,-0.0032
152,303.173,5.0229,-0.0028
160,303.1723,5.0239,-0.0028
168,303.171,5.0232,-0.0026
176,303.1703,5.0214,-0.0026
184,303.1683,5.023,-0.0022
192,303.17,5.0226,-0.0023
200,303.168,5.022,-0.0023
208,303.166,5.0233,-0.0023
216,303.166,5.0232,-0.0022
224,303.1633,5.0228,-0.0022
232,303.1627,5.0217,-0.0023
240,303.161,5.0233,-0.0022
248,303.16,5.0229,-0.0024
256,303.1617,5.0216,-0.0024
264,303.16,5.022,-0.0026
272,303.1593,5.0233,-0.0025
280,303.1603,5.0219,-0.0025
288,303.158,5.022,-0.0025
296,303.16,5.021,-0.0027
304,303.1567,5.0206,-0.0025
312,303.171,5.0202,-0.0038
320,303.247,5.0207,-0.0101
328,303.4523,5.02,-0.0242
336,303.851,5.022,-0.0485
344,304.514,5.0195,-0.0825
352,305.4873,5.0205,-0.1271
360,306.83,5.0215,-0.1806
368,308.5587,5.02,-0.2419
376,310.698,5.0207,-0.3079
384,313.233,5.0199,-0.3767
392,316.1457,5.0196,-0.4456
400,319.3897,5.0194,-0.5122
408,322.917,5.021,-0.5742
416,326.6753,5.0208,-0.6286
424,330.6087,5.0201,-0.6742
432,334.655,5.0203,-0.7104
440,338.7673,5.0182,-0.7365
448,342.898,5.0189,-0.7547
456,347.0,5.0181,-0.7656
464,351.0433,5.0161,-0.7708
472,354.997,5.0155,-0.77
480,358.839,5.0145,-0.7628
488,362.5623,5.013,-0.7491
496,366.1477,5.0112,-0.7283
504,369.603,5.0092,-0.7006
512,372.9257,5.0085,-0.6677
520,376.122,5.0067,-0.6312
528,379.198,5.005,-0.5929
536,382.173,5.0036,-0.5554
544,385.057,5.005,-0.5197
552,387.863,5.0039,-0.4888
560,390.6043,5.0039,-0.4612
568,393.2953,5.0036,-0.4382
576,395.944,5.0025,-0.4192
584,398.5697,5.0022,-0.4043
592,401.178,5.0022,-0.3926
600,403.779,5.0025,-0.3834
608,406.379,5.0013,-0.3768
616,408.983,4.9995,-0.372
624,411.595,4.9995,-0.3683
632,414.2223,4.9995,-0.3656
640,416.8637,4.9995,-0.3637
648,419.517,4.9968,-0.363
656,422.1903,4.9955,-0.3625
664,424.8743,4.9941,-0.3634
672,427.569,4.9951,-0.3646
680,430.2727,4.9941,-0.3651
688,432.9877,4.9928,-0.3657
696,435.7,4.9914,-0.3648
704,438.414,4.9901,-0.3638
712,441.1297,4.9888,-0.362
720,443.839,4.9874,-0.36
728,446.5433,4.9847,-0.357
736,449.2403,4.9847,-0.3544
744,451.928,4.9847,-0.3517
752,454.6093,4.9807,-0.3488
760,457.2843,4.978,-0.3475
768,459.946,4.975,-0.3522
776,462.6057,4.9727,-0.3439
784,465.2557,4.9686,-0.3363
792,467.902,4.966,-0.331
800,470.5393,4.9633,-0.3259
808,473.1743,4.9579,-0.3219
816,475.805,4.9524,-0.3182
824,478.435,4.9465,-0.3148
832,481.0643,4.9392,-0.3125
840,483.691,4.9333,-0.3094
848,486.3213,4.9276,-0.3067
856,488.9523,4.9212,-0.3032
864,491.585,4.9127,-0.2994
872,494.2213,4.9035,-0.2951
880,496.8583,4.8953,-0.29
888,499.501,4.8865,-0.2849
896,502.1453,4.8772,-0.2796
904,504.7953,4.8678,-0.2744
912,507.443,4.8584,-0.2691
920,510.0997,4.8465,-0.2643
928,512.7553,4.8345,-0.2594
936,515.411,4.8228,-0.2555
944,518.0713,4.8107,-0.2524
952,520.7323,4.7977,-0.2496
960,523.394,4.7817,-0.2472
968,526.0557,4.7653,-0.2458
976,528.7197,4.7482,-0.2448
984,531.38,4.7311,-0.2443
992,534.044,4.71,-0.2439
1000,536.7033,4.6897,-0.2446
1008,539.365,4.6683,-0.2452
1016,542.0223,4.6463,-0.2472
1024,544.679,4.6216,-0.2497
1032,547.334,4.5972,-0.2533
1040,549.9907,4.5695,-0.2571
1048,552.6447,4.5417,-0.2609
1056,555.3,4.513,-0.2649
1064,557.9523,4.4819,-0.2682
1072,560.6063,4.4512,-0.2719
1080,563.259,4.4183,-0.2746
1088,565.9143,4.3853,-0.2774
1096,568.5713,4.3503,-0.2801
1104,571.223,4.3146,-0.2817
1112,573.8797,4.2784,-0.284
1120,576.5393,4.242,-0.2864
1128,579.194,4.2029,-0.2893
1136,581.8537,4.1619,-0.2931
1144,584.5153,4.1202,-0.2974
1152,587.178,4.0787,-0.3034
1160,589.8437,4.0343,-0.3113
1168,592.5073,3.9862,-0.3213
1176,595.174,3.9363,-0.3338
1184,597.8373,3.8837,-0.3489
1192,600.503,3.8297,-0.3662
1200,603.165,3.7728,-0.3847
1208,605.831,3.712,-0.4054
1216,608.4927,3.6494,-0.4271
1224,611.155,3.5858,-0.4493
1232,613.8173,3.5159,-0.4715
1240,616.4817,3.4462,-0.4933
1248,619.141,3.3738,-0.514
1256,621.8053,3.2997,-0.5342
1264,624.464,3.2235,-0.5532
1272,627.125,3.1469,-0.5726
1280,629.7847,3.0685,-0.5933
1288,632.445,2.99,-0.6165
1296,635.101,2.9079,-0.6433
1304,637.7573,2.8229,-0.6748
1312,640.4157,2.7368,-0.7123
1320,643.07,2.6474,-0.7541
1328,645.7233,2.5552,-0.8012
1336,648.3737,2.4559,-0.8527
1344,651.027,2.3561,-0.9036
1352,653.6803,2.2508,-0.953
1360,656.332,2.1422,-0.997
1368,658.989,2.0332,-1.0288
1376,661.6423,1.9225,-1.0436
1384,664.2983,1.8168,-1.0322
1392,666.954,1.7174,-0.9876
1400,669.6123,1.6267,-0.9078
1408,672.2767,1.5517,-0.7952
1416,674.937,1.4931,-0.6617
1424,677.6023,1.4476,-0.5251
1432,680.274,1.4186,-0.4048
1440,682.945,1.3962,-0.3126
1448,685.615,1.3802,-0.2505
1456,688.2837,1.3688,-0.2125
1464,690.953,1.3573,-0.1901
1472,693.6193,1.3488,-0.1773
1480,696.284,1.3371,-0.1702
1488,698.949,1.3272,-0.1662
1496,701.612,1.3181,-0.1643
1504,704.2763,1.3089,-0.1622
1512,706.938,1.3004,-0.161
1520,709.5973,1.2894,-0.1617
1528,712.2583,1.2818,-0.1627
1536,714.919,1.2728,-0.1644
1544,717.5803,1.2647,-0.1679
1552,720.2383,1.256,-0.1733
1560,722.898,1.2467,-0.1796
1568,725.556,1.2411,-0.1865
1576,728.2113,1.2326,-0.1948
1584,730.87,1.2266,-0.2043
1592,733.5267,1.2184,-0.2151
1600,736.1837,1.2105,-0.2264
1608,738.844,1.2046,-0.2391
1616,741.5017,1.1967,-0.2522
1624,744.162,1.1907,-0.2662
1632,746.822,1.1848,-0.2813
1640,749.484,1.1803,-0.2958
1648,752.142,1.1734,-0.31
1656,754.809,1.169,-0.3245
1664,757.47,1.163,-0.3374
1672,760.133,1.1578,-0.3478
1680,762.797,1.1549,-0.3582
1688,765.4603,1.1495,-0.3682
1696,768.123,1.1457,-0.3753
1704,770.786,1.1411,-0.383
1712,773.4473,1.1381,-0.3928
1720,776.114,1.134,-0.4025
1728,778.78,1.1284,-0.412
1736,781.4483,1.1273,-0.4201
1744,784.1207,1.1241,-0.4283
1752,786.793,1.1185,-0.4354
1760,789.463,1.1158,-0.4424
1768,792.1357,1.1118,-0.4489
1776,794.809,1.1091,-0.4568
1784,797.487,1.1067,-0.466
1792,800.164,1.1024,-0.4746
1800,802.843,1.1007,-0.4821
1808,805.523,1.0981,-0.488
1816,808.202,1.0943,-0.4939
1824,810.883,1.0903,-0.5015
1832,813.5617,1.0876,-0.5104
1840,816.2417,1.085,-0.5195
1848,818.922,1.0823,-0.5282
1856,821.5967,1.0807,-0.5365
1864,824.2727,1.0782,-0.5422
1872,826.945,1.0742,-0.5485
1880,829.6173,1.0715,-0.5565
1888,832.2897,1.0709,-0.5697
1896,834.962,1.0668,-0.5856
1904,837.6253,1.0628,-0.5997
1912,840.285,1.0601,-0.6126
1920,842.942,1.0588,-0.6245
1928,845.5963,1.0562,-0.6338
1936,848.248,1.0534,-0.6435
1944,850.903,1.0521,-0.6503
1952,853.56,1.049,-0.6718
1960,856.2267,1.0481,-0.7073
1968,858.891,1.0467,-0.7481
1976,861.5513,1.044,-0.788
1984,864.2093,1.0413,-0.8263
1992,866.869,1.0387,-0.8623
2000,869.5237,1.0387,-0.8956
2008,872.1777,1.0355,-0.9282
2016,874.833,1.0336,-0.9583
2024,877.492,1.0319,-0.9852
2032,880.151,1.031,-0.9968
2040,882.808,1.0283,-0.9671
2048,885.4657,1.0256,-0.9153
2056,888.1224,1.0242,-0.8638
2064,890.783,1.0216,-0.8253
2072,893.4373,1.0202,-0.8019
2080,896.0897,1.0189,-0.7885
2088,898.744,1.0169,-0.7838
2096,901.4013,1.015,-0.7858
2104,904.0597,1.0134,-0.7913
2112,906.723,1.0098,-0.7986
2120,909.388,1.0082,-0.8136
2128,912.0536,1.0064,-0.8294
2136,914.716,1.0041,-0.8442
2144,917.382,1.0041,-0.8568
2152,920.053,1.0028,-0.8674
2160,922.727,1.0004,-0.878
2168,925.4053,0.9997,-0.8866
2176,928.0853,0.998,-0.8963
2184,930.768,0.9961,-0.9058
2192,933.4497,0.9961,-0.9141
2200,936.134,0.9947,-0.9226
2208,938.814,0.9934,-0.9372
2216,941.4927,0.9921,-0.9552
2224,944.1717,0.9906,-0.9709
2232,946.847,0.9904,-0.9824
2240,949.5203,0.989,-0.9906
2248,952.192,0.9877,-0.9985
2256,954.862,0.9867,-1.0072
2264,957.5307,0.9863,-1.0168
2272,960.1987,0.985,-1.0281
2280,962.864,0.985,-1.0418
2288,965.5317,0.983,-1.0599
2296,968.1977,0.9809,-1.0789
2304,970.86,0.9817,-1.093
2312,973.52,0.9794,-1.1076
2320,976.1196,0.979,-1.14
2328,978.456,0.977,-1.2304
2336,980.3756,0.9763,-1.4024
2344,981.8207,0.9763,-1.6436
2352,982.771,0.9763,-1.9408
2357,983.109,0.9752,-2.1292

File: TIFP+UCT_STA_N2_20K_R2.csv
Time (s),Temperature (K),Mass (mg),Heat Flow Rate (W/g)
0,303.147,5.112,-0.0015
8,303.149,5.1104,-0.0014
16,303.148,5.1118,-0.0013
24,303.152,5.1113,-0.0013
32,303.1533,5.1108,-0.0013
40,303.1583,5.1101,-0.0013
48,303.161,5.1094,-0.0015
56,303.164,5.1107,-0.0014
64,303.1647,5.1103,-0.0017
72,303.167,5.1093,-0.0015
80,303.1707,5.109,-0.0018
88,303.1697,5.1086,-0.0018
96,303.173,5.1088,-0.0017
104,303.173,5.1079,-0.002
112,303.1747,5.1102,-0.0019
120,303.176,5.109,-0.0021
128,303.175,5.1083,-0.0017
136,303.1753,5.1089,-0.0019
144,303.175,5.109,-0.0018
152,303.1763,5.109,-0.0016
160,303.1723,5.1081,-0.0017
168,303.173,5.109,-0.0015
176,303.1733,5.1076,-0.0015
184,303.1707,5.1085,-0.0013
192,303.169,5.1083,-0.0011
200,303.1667,5.1085,-0.0013
208,303.1663,5.109,-0.0015
216,303.162,5.1075,-0.0011
224,303.1627,5.1076,-0.0012
232,303.1647,5.1072,-0.0014
240,303.161,5.1077,-0.0015
248,303.1607,5.1072,-0.0015
256,303.1623,5.1059,-0.0012
264,303.161,5.106,-0.0016
272,303.1637,5.1063,-0.0015
280,303.1607,5.1064,-0.0015
288,303.162,5.1063,-0.0015
296,303.1607,5.1051,-0.0016
304,303.1605,5.105,-0.0017
312,303.1758,5.1049,-0.0021
320,303.253,5.1063,-0.0031
328,303.4577,5.1049,-0.0064
336,303.8598,5.1066,-0.0146
344,304.519,5.1051,-0.0289
352,305.4949,5.1062,-0.051
360,306.829,5.1055,-0.0797
368,308.5605,5.1066,-0.1146
376,310.6939,5.1033,-0.1528
384,313.2311,5.1049,-0.1939
392,316.1381,5.1048,-0.2354
400,319.3834,5.1047,-0.2769
408,322.9163,5.1048,-0.3159
416,326.6746,5.1045,-0.3507
424,330.6104,5.1035,-0.3808
432,334.6646,5.1038,-0.4046
440,338.7836,5.1021,-0.4227
448,342.9171,5.1036,-0.4355
456,347.0264,5.1018,-0.4443
464,351.0756,5.0994,-0.4502
472,355.0336,5.0991,-0.4529
480,358.8819,5.0979,-0.4509
488,362.6051,5.0954,-0.4434
496,366.1936,5.094,-0.4296
504,369.6478,5.092,-0.4097
512,372.9681,5.0897,-0.3844
520,376.1634,5.089,-0.3557
528,379.2422,5.0875,-0.3241
536,382.2121,5.0861,-0.2927
544,385.0921,5.0861,-0.2624
552,387.8907,5.0848,-0.2355
560,390.6276,5.0847,-0.2114
568,393.3119,5.0847,-0.1905
576,395.9572,5.0847,-0.1728
584,398.5721,5.0844,-0.1579
592,401.1709,5.0831,-0.1451
600,403.7656,5.0834,-0.1343
608,406.3591,5.0821,-0.1253
616,408.9559,5.0817,-0.1178
624,411.5632,5.0817,-0.1111
632,414.1856,5.082,-0.1047
640,416.8237,5.0808,-0.0998
648,419.4776,5.0797,-0.0962
656,422.1481,5.0784,-0.0929
664,424.8316,5.077,-0.091
672,427.5281,5.077,-0.0902
680,430.2351,5.0757,-0.0884
688,432.9497,5.0757,-0.087
696,435.6672,5.0734,-0.0851
704,438.3861,5.0717,-0.0833
712,441.1042,5.0703,-0.0808
720,443.8204,5.0703,-0.0777
728,446.5286,5.0676,-0.0743
736,449.2307,5.0649,-0.0706
744,451.9259,5.0649,-0.0677
752,454.6126,5.0623,-0.0644
760,457.2887,5.0596,-0.0632
768,459.9564,5.0566,-0.0677
776,462.6161,5.0542,-0.0601
784,465.2687,5.0497,-0.0517
792,467.9126,5.0448,-0.0446
800,470.5496,5.0407,-0.0395
808,473.1839,5.0365,-0.0342
816,475.8142,5.0295,-0.0294
824,478.4396,5.0237,-0.0249
832,481.0624,5.0164,-0.0202
840,483.6897,5.0107,-0.0149
848,486.3156,5.003,-0.0102
856,488.9426,4.9947,-0.0049
864,491.5724,4.9861,0.001
872,494.2056,4.9772,0.0072
880,496.8417,4.9681,0.0137
888,499.4797,4.9594,0.0206
896,502.1211,4.9485,0.0278
904,504.7684,4.9377,0.0346
912,507.4194,4.9278,0.0415
920,510.0721,4.9154,0.0479
928,512.7266,4.9022,0.0542
936,515.3827,4.8897,0.0602
944,518.0441,4.8758,0.0652
952,520.7026,4.862,0.0696
960,523.3637,4.8441,0.0737
968,526.0266,4.8277,0.0763
976,528.6896,4.8088,0.079
984,531.3507,4.7907,0.0809
992,534.0131,4.7703,0.082
1000,536.6729,4.7475,0.0828
1008,539.3362,4.7254,0.0831
1016,541.9976,4.7012,0.0824
1024,544.6571,4.6752,0.0807
1032,547.3161,4.6488,0.0779
1040,549.9736,4.6207,0.0754
1048,552.6299,4.5918,0.0729
1056,555.2866,4.5616,0.0704
1064,557.9406,4.529,0.0676
1072,560.5929,4.4954,0.0658
1080,563.2464,4.46,0.0639
1088,565.9031,4.4249,0.0628
1096,568.5571,4.3885,0.0619
1104,571.2127,4.3504,0.062
1112,573.8721,4.3125,0.0625
1120,576.5294,4.2738,0.0632
1128,579.1886,4.2317,0.0641
1136,581.8476,4.1906,0.0639
1144,584.5076,4.1471,0.0639
1152,587.1707,4.1035,0.062
1160,589.8366,4.0576,0.0585
1168,592.4999,4.0091,0.0529
1176,595.1646,3.9581,0.0448
1184,597.8331,3.9057,0.0343
1192,600.4977,3.8504,0.0216
1200,603.1604,3.7917,0.007
1208,605.8246,3.731,-0.0094
1216,608.4879,3.6673,-0.0275
1224,611.1522,3.6003,-0.0454
1232,613.8126,3.5317,-0.0631
1240,616.4732,3.4603,-0.081
1248,619.1349,3.3871,-0.0978
1256,621.7941,3.3122,-0.1136
1264,624.4537,3.2349,-0.1291
1272,627.1111,3.1562,-0.1452
1280,629.7686,3.0769,-0.163
1288,632.4262,2.9971,-0.183
1296,635.0812,2.9144,-0.2081
1304,637.7361,2.8291,-0.2374
1312,640.3899,2.7416,-0.2727
1320,643.0459,2.6509,-0.314
1328,645.7011,2.5589,-0.3609
1336,648.3564,2.4595,-0.4129
1344,651.0124,2.3577,-0.4663
1352,653.6661,2.2529,-0.5189
1360,656.3186,2.144,-0.567
1368,658.9737,2.0337,-0.6031
1376,661.6291,1.9247,-0.619
1384,664.2826,1.818,-0.6086
1392,666.9411,1.7199,-0.5652
1400,669.5991,1.6307,-0.4859
1408,672.2601,1.5571,-0.3747
1416,674.9244,1.4986,-0.2445
1424,677.5901,1.4558,-0.112
1432,680.2586,1.4286,0.0029
1440,682.9267,1.4065,0.0898
1448,685.5976,1.3921,0.1479
1456,688.2664,1.3806,0.1836
1464,690.9316,1.3694,0.2046
1472,693.5986,1.3589,0.2177
1480,696.2629,1.3482,0.2257
1488,698.9256,1.3384,0.2324
1496,701.5876,1.3284,0.2381
1504,704.2467,1.3172,0.2437
1512,706.9067,1.3092,0.2474
1520,709.5646,1.2998,0.2494
1528,712.2234,1.291,0.2505
1536,714.8806,1.2814,0.2511
1544,717.5406,1.2734,0.2498
1552,720.1996,1.2659,0.2477
1560,722.8587,1.2564,0.2447
1568,725.5211,1.2494,0.2402
1576,728.1807,1.2405,0.235
1584,730.8416,1.2346,0.2291
1592,733.5031,1.2271,0.2224
1600,736.1666,1.2187,0.2152
1608,738.8294,1.2123,0.2075
1616,741.4881,1.2046,0.1994
1624,744.1467,1.1986,0.1915
1632,746.8086,1.1927,0.1827
1640,749.4706,1.1881,0.1714
1648,752.1307,1.1816,0.1607
1656,754.7952,1.1763,0.1502
1664,757.4576,1.1696,0.1403
1672,760.1219,1.1654,0.1318
1680,762.7859,1.1628,0.1228
1688,765.4486,1.1584,0.1146
1696,768.1144,1.1541,0.1087
1704,770.7802,1.1501,0.1038
1712,773.4471,1.1472,0.098
1720,776.1147,1.1416,0.0927
1728,778.7827,1.1366,0.0867
1736,781.4536,1.1345,0.0814
1744,784.1266,1.1318,0.0763
1752,786.7987,1.1264,0.07
1760,789.4741,1.1235,0.0634
1768,792.1491,1.1207,0.0556
1776,794.8253,1.1182,0.0489
1784,797.4976,1.1145,0.0426
1792,800.1725,1.1101,0.0388
1800,802.8462,1.1088,0.0364
1808,805.5201,1.1061,0.0342
1816,808.1937,1.1021,0.0318
1824,810.8676,1.0994,0.0276
1832,813.5411,1.0953,0.0177
1840,816.2162,1.0927,0.0062
1848,818.892,1.0904,-0.0055
1856,821.5661,1.0875,-0.0151
1864,824.2355,1.0855,-0.024
1872,826.9074,1.0819,-0.0312
1880,829.5796,1.0792,-0.0387
1888,832.2517,1.0772,-0.0491
1896,834.9239,1.0759,-0.0608
1904,837.5885,1.0719,-0.073
1912,840.2485,1.0704,-0.0845
1920,842.8996,1.0678,-0.0965
1928,845.5481,1.0652,-0.1102
1936,848.1929,1.063,-0.1358
1944,850.8437,1.0598,-0.1671
1952,853.4931,1.0579,-0.1976
1960,856.1456,1.0571,-0.2262
1968,858.7959,1.0544,-0.2548
1976,861.4516,1.0531,-0.2832
1984,864.1064,1.0493,-0.3113
1992,866.7616,1.0464,-0.339
2000,869.4231,1.0464,-0.3653
2008,872.0826,1.044,-0.3897
2016,874.7432,1.0414,-0.4149
2024,877.4031,1.04,-0.4366
2032,880.0649,1.04,-0.4454
2040,882.7264,1.0361,-0.4137
2048,885.3911,1.0346,-0.3593
2056,888.0584,1.0333,-0.3079
2064,890.7197,1.032,-0.2718
2072,893.3811,1.0301,-0.2483
2080,896.0425,1.0269,-0.2335
2088,898.7045,1.0253,-0.228
2096,901.3706,1.0239,-0.2298
2104,904.0399,1.0226,-0.2341
2112,906.7104,1.02,-0.2397
2120,909.3846,1.0172,-0.2474
2128,912.0586,1.0151,-0.2548
2136,914.7316,1.0145,-0.2664
2144,917.4006,1.0132,-0.2785
2152,920.0718,1.0118,-0.2889
2160,922.7427,1.0094,-0.2993
2168,925.41,1.0092,-0.309
2176,928.0806,1.0078,-0.3171
2184,930.7498,1.0065,-0.3255
2192,933.423,1.0051,-0.334
2200,936.0928,1.0024,-0.3413
2208,938.7632,1.0018,-0.3497
2216,941.432,1.0024,-0.3629
2224,944.1037,0.9994,-0.3777
2232,946.7744,0.9981,-0.3902
2240,949.4496,0.9981,-0.3994
2248,952.1224,0.9967,-0.4079
2256,954.7954,0.9951,-0.4157
2264,957.4706,0.9954,-0.4241
2272,960.1441,0.9941,-0.4348
2280,962.8164,0.9927,-0.4462
2288,965.4896,0.9921,-0.4606
2296,968.1595,0.9894,-0.4788
2304,970.8324,0.9895,-0.495
2312,973.5033,0.9894,-0.5104
2320,976.1187,0.988,-0.5451
2328,978.4664,0.9854,-0.6406
2336,980.3904,0.9853,-0.811
2344,981.8338,0.984,-1.0445
2352,982.7794,0.985,-1.3197
2357,983.113,0.985,-1.4982