Folder: matl-db/Wood/Calibration_Data/TIFP+UCT (part 8)

File: TIFP+UCT_Wood_Gasification_hor_parallel_30kW_R2.csv
Time (s),Mass (g),TC back 1 (K),TC back 2 (K),TC back 3 (K)
0,94.80,301.95,301.45,302.35
12,94.43,303.05,301.85,303.35
24,94.14,304.15,302.35,304.55
36,93.82,305.35,302.95,305.85
48,93.47,306.55,303.55,307.15
60,93.02,307.75,304.15,308.55
72,92.55,309.15,304.95,309.95
84,92.07,310.55,305.75,311.35
96,91.61,311.95,306.55,312.75
108,91.19,313.45,307.45,314.25
120,90.77,315.05,308.45,315.75
132,90.35,316.75,309.55,317.35
144,89.96,318.55,310.55,318.95
156,89.59,320.45,311.75,320.65
168,89.22,322.45,313.05,322.45
180,88.86,324.45,314.35,324.35
192,88.50,326.65,315.85,326.15
204,88.15,328.85,317.35,328.15
216,87.81,331.15,318.95,330.15
228,87.46,333.45,320.65,332.25
240,87.12,335.85,322.55,334.45
252,86.77,338.25,324.35,336.65
264,86.45,340.65,326.25,338.75
276,86.12,343.05,328.25,341.05
288,85.79,345.45,330.35,343.35
300,85.46,347.85,332.45,345.55
312,85.16,350.25,334.55,347.85
324,84.84,352.65,336.75,350.05
336,84.51,355.05,338.95,352.35
348,84.21,357.35,341.25,354.55
360,83.92,359.65,343.45,356.75
372,83.60,361.85,345.75,358.85
384,83.28,364.05,348.05,360.95
396,82.99,366.15,350.35,362.95
408,82.69,368.25,352.65,364.95
420,82.40,370.25,355.05,366.95
432,82.12,372.15,357.45,368.85
444,81.81,373.95,359.95,370.65
456,81.53,375.75,362.25,372.35
468,81.25,377.45,364.45,373.95
480,80.98,378.95,366.65,375.55
492,80.70,380.45,368.75,377.05
504,80.42,381.85,370.65,378.45
516,80.14,383.05,372.55,379.85
528,79.86,384.25,374.25,381.05
540,79.56,385.35,375.65,382.35
552,79.29,386.35,376.95,383.35
564,79.00,387.25,378.15,384.35
576,78.72,388.15,379.05,385.35
588,78.46,389.05,379.95,386.15
600,78.17,389.95,380.75,386.95
612,77.90,390.85,381.55,387.75
624,77.63,391.65,382.25,388.55
636,77.35,392.55,382.95,389.25
648,77.08,393.35,383.55,390.05
660,76.81,394.15,384.25,390.85
672,76.55,395.05,384.85,391.55
684,76.28,395.85,385.55,392.35
696,75.99,396.75,386.15,393.05
708,75.74,397.55,386.75,393.85
720,75.45,398.45,387.35,394.55
732,75.18,399.35,387.95,395.35
744,74.92,400.15,388.55,396.15
756,74.65,401.05,389.15,396.85
768,74.39,402.05,389.75,397.65
780,74.13,402.95,390.35,398.45
792,73.86,403.85,390.95,399.25
804,73.60,404.85,391.65,400.05
816,73.35,405.85,392.25,400.85
828,73.08,406.85,392.85,401.75
840,72.84,407.85,393.55,402.65
852,72.59,408.95,394.15,403.55
864,72.33,409.95,394.85,404.45
876,72.09,411.05,395.45,405.45
888,71.82,412.15,396.15,406.35
900,71.57,413.25,396.85,407.25
912,71.35,414.45,397.55,408.35
924,71.09,415.55,398.35,409.35
936,70.84,416.75,399.05,410.35
948,70.62,418.05,399.85,411.45
960,70.37,419.35,400.65,412.45
972,70.11,420.65,401.45,413.55
984,69.88,422.05,402.25,414.75
996,69.64,423.45,403.15,415.85
1008,69.40,424.95,404.05,417.05
1020,69.15,426.45,405.05,418.25
1032,68.92,428.05,406.05,419.45
1044,68.68,429.65,407.05,420.75
1056,68.44,431.25,408.05,422.05
1068,68.21,432.95,409.15,423.45
1080,67.97,434.65,410.25,424.75
1092,67.74,436.35,411.35,426.15
1104,67.51,438.15,412.55,427.65
1116,67.28,439.95,413.75,429.05
1128,67.04,441.75,415.05,430.55
1140,66.81,443.55,416.35,432.05
1152,66.58,445.45,417.65,433.65
1164,66.34,447.25,419.05,435.25
1176,66.11,449.15,420.55,436.75
1188,65.87,451.05,422.15,438.45
1200,65.64,452.95,423.75,440.05
1212,65.40,454.85,425.45,441.65
1224,65.18,456.75,427.15,443.35
1236,64.94,458.65,428.95,445.05
1248,64.69,460.55,430.85,446.85
1260,64.47,462.45,432.65,448.45
1272,64.24,464.35,434.65,450.25
1284,64.01,466.25,436.65,452.05
1296,63.76,468.15,438.65,453.75
1308,63.52,469.95,440.75,455.55
1320,63.29,471.85,442.85,457.25
1332,63.04,473.65,444.95,459.05
1344,62.82,475.45,447.05,460.75
1356,62.58,477.35,449.15,462.55
1368,62.34,479.15,451.35,464.35
1380,62.09,480.95,453.45,466.15
1392,61.85,482.75,455.65,467.95
1404,61.59,484.55,457.75,469.65
1416,61.35,486.25,459.95,471.45
1428,61.11,488.05,462.05,473.15
1440,60.86,489.75,464.15,474.95
1452,60.60,491.45,466.25,476.65
1464,60.35,493.15,468.25,478.35
1476,60.10,494.85,470.35,480.05
1488,59.85,496.55,472.45,481.75
1500,59.58,498.25,474.35,483.35
1512,59.32,499.85,476.35,485.05
1524,59.06,501.45,478.35,486.65
1536,58.79,503.15,480.25,488.35
1548,58.51,504.75,482.25,489.95
1560,58.24,506.35,484.15,491.55
1572,57.96,507.95,486.05,493.25
1584,57.69,509.55,487.85,494.75
1596,57.41,511.15,489.75,496.35
1608,57.12,512.65,491.65,497.95
1620,56.84,514.25,493.55,499.55
1632,56.56,515.75,495.35,501.05
1644,56.28,517.25,497.15,502.65
1656,55.99,518.75,499.05,504.15
1668,55.69,520.25,500.85,505.75
1680,55.39,521.75,502.65,507.25
1692,55.09,523.25,504.45,508.75
1704,54.81,524.65,506.25,510.25
1716,54.48,526.15,508.05,511.65
1728,54.18,527.65,509.75,513.15
1740,53.89,529.05,511.55,514.55
1752,53.57,530.55,513.25,515.95
1764,53.27,531.95,515.05,517.45
1776,52.96,533.35,516.75,518.85
1788,52.62,534.75,518.55,520.25
1800,52.29,536.15,520.25,521.75
1812,51.97,537.55,522.05,523.15
1824,51.64,538.95,523.75,524.55
1836,51.32,540.35,525.45,525.95
1848,50.99,541.75,527.15,527.35
1860,50.65,543.05,528.85,528.65
1872,50.32,544.45,530.55,530.05
1884,49.97,545.75,532.25,531.45
1896,49.63,547.15,533.95,532.85
1908,49.29,548.45,535.65,534.15
1920,48.96,549.75,537.25,535.45
1932,48.59,551.05,538.95,536.85
1944,48.24,552.35,540.55,538.15
1956,47.88,553.65,542.25,539.55
1968,47.54,554.95,543.95,540.85
1980,47.18,556.25,545.45,542.15
1992,46.84,557.55,547.15,543.55
2004,46.48,558.75,548.75,544.95
2016,46.11,560.05,550.45,546.25
2028,45.76,561.25,551.95,547.55
2040,45.41,562.55,553.55,548.85
2052,45.05,563.75,555.15,550.25
2064,44.69,564.85,556.65,551.55
2076,44.31,566.05,558.25,552.85
2088,43.98,567.15,559.75,554.15
2100,43.62,568.25,561.25,555.45
2112,43.26,569.45,562.65,556.75
2124,42.91,570.45,564.15,558.05
2136,42.55,571.55,565.65,559.35
2148,42.19,572.55,566.95,560.65
2160,41.85,573.55,568.35,561.85
2172,41.51,574.55,569.75,563.15
2184,41.17,575.55,571.05,564.35
2196,40.81,576.55,572.25,565.55
2208,40.48,577.55,573.55,566.75
2220,40.13,578.45,574.75,567.95
2232,39.80,579.35,575.95,569.15
2244,39.47,580.15,577.15,570.25
2256,39.13,581.05,578.25,571.45
2268,38.81,581.95,579.35,572.45
2280,38.49,582.75,580.45,573.65
2292,38.15,583.55,581.55,574.65
2304,37.84,584.35,582.65,575.75
2316,37.52,585.15,583.65,576.85
2328,37.20,585.95,584.65,577.85
2340,36.91,586.65,585.65,578.85
2352,36.61,587.45,586.65,579.85
2364,36.29,588.25,587.65,580.95
2376,36.01,588.95,588.55,581.85
2388,35.73,589.75,589.65,582.75
2400,35.46,590.65,590.95,583.35
2412,35.20,591.45,591.75,583.95
2424,34.93,592.15,592.75,584.65
2436,34.67,592.85,593.75,585.35
2448,34.39,593.45,594.75,586.05
2460,34.15,594.15,595.75,586.75
2472,33.90,594.85,596.65,587.35
2484,33.66,595.45,597.55,588.15
2496,33.42,596.05,598.35,588.85
2508,33.19,596.65,599.25,589.55
2520,32.95,597.25,599.95,590.25
2532,32.73,597.75,600.75,590.95
2544,32.50,598.25,601.55,591.65
2556,32.26,598.75,602.25,592.45
2568,32.04,599.25,602.85,593.25
2580,31.82,599.65,603.55,593.95
2592,31.60,600.05,604.15,594.75
2604,31.43,600.45,604.85,595.45
2616,31.25,600.75,605.55,596.25
2628,31.06,601.05,606.15,597.05
2640,30.88,601.35,606.85,597.85
2652,30.72,601.65,607.45,598.55
2664,30.52,601.85,608.05,599.25
2676,30.35,602.15,608.65,599.95
2688,30.23,602.35,609.35,600.65
2700,30.08,602.55,610.05,601.35
2712,29.93,602.75,610.65,602.05
2724,29.78,602.95,611.25,602.75
2736,29.62,603.15,611.75,603.45
2748,29.47,603.35,612.35,604.05
2760,29.33,603.55,612.95,604.75
2772,29.18,603.75,613.45,605.35
2784,29.05,603.95,613.95,605.95
2796,28.92,604.35,614.55,606.65
2808,28.80,604.65,615.05,607.25
2820,28.68,605.05,615.55,607.85
2832,28.55,605.35,616.15,608.45
2844,28.44,605.75,616.65,608.95
2856,28.33,606.15,617.25,609.45
2868,28.23,606.55,617.95,610.05
2880,28.13,606.85,618.65,610.65
2892,28.05,607.35,619.35,611.15
2904,27.96,607.75,619.95,611.65
2916,27.87,608.05,620.65,612.15
2928,27.79,608.95,621.25,612.65
2940,27.72,609.55,621.95,613.05
2952,27.66,610.05,622.65,613.55
2964,27.58,610.45,623.15,613.95
2976,27.52,610.95,623.75,614.35
2988,27.47,611.35,624.05,614.65
3000,27.43,611.85,624.25,614.95
3012,27.37,612.25,624.35,615.15
3024,27.32,612.65,624.55,615.35
3036,27.28,613.05,624.75,615.55
3048,27.23,613.45,624.85,615.65
3060,27.19,613.75,625.05,615.75
3072,27.15,614.05,625.25,615.85
3084,27.11,614.45,625.45,615.85
3096,27.07,614.75,625.55,615.95
3108,27.02,615.05,625.75,615.85
3120,27.00,615.35,625.85,615.75
3132,26.96,615.65,626.05,615.65
3144,26.93,615.95,626.05,615.55
3156,26.90,616.25,626.15,615.45
3168,26.87,616.55,626.35,615.35
3180,26.84,616.85,626.35,615.25
3192,26.82,617.15,626.45,615.15
3204,26.77,617.45,626.45,615.05
3216,26.76,617.65,626.55,614.85
3228,26.73,617.95,626.65,614.75
3240,26.71,618.25,626.75,614.55
3252,26.68,618.55,626.75,614.45
3264,26.65,618.75,626.65,614.25
3276,26.63,618.95,626.65,614.15
3288,26.61,619.15,626.65,613.95
3300,26.59,619.45,626.65,613.85
3312,26.57,619.65,626.65,613.65
3324,26.55,619.75,626.65,613.45
3336,26.52,619.95,626.65,613.35
3348,26.48,620.15,626.65,613.15
3360,26.47,620.35,626.65,613.05
3372,26.45,620.55,626.65,612.95
3384,26.45,620.75,626.55,612.75
3396,26.43,620.95,626.55,612.65
3408,26.42,621.15,626.55,612.45
3420,26.41,621.35,626.45,612.35
3432,26.39,621.45,626.45,612.25
3444,26.38,621.55,626.45,612.05
3456,26.36,621.75,626.35,611.95
3468,26.35,621.95,626.35,611.75
3480,26.34,622.15,626.35,611.65
3492,26.33,622.25,626.35,611.55
3500,26.30,622.45,626.35,611.55

File: TIFP+UCT_Wood_Gasification_hor_perpendicular_30kW_R2.csv
Time (s),Mass (g),TC back 1 (K),TC back 2 (K),TC back 3 (K)
0,105.88,302.15,300.15,301.05
8,105.49,302.65,300.65,301.95
16,105.50,303.15,300.95,302.95
24,105.38,303.65,301.35,303.85
32,105.29,304.15,301.65,304.75
40,104.82,304.75,301.95,305.65
48,104.91,305.25,302.35,306.55
56,104.62,305.75,302.85,307.55
64,104.19,306.45,303.35,308.55
72,104.20,307.35,304.05,309.95
80,103.53,308.35,304.95,311.45
88,103.47,309.55,305.95,313.25
96,102.99,311.25,307.55,315.45
104,102.69,313.05,309.35,317.95
112,102.35,315.15,311.45,320.65
120,101.81,317.65,314.05,323.95
128,101.38,320.35,316.75,327.15
136,100.95,323.15,319.75,330.65
144,100.55,326.45,323.15,334.35
152,100.25,329.75,326.35,337.95
160,100.06,333.05,329.75,341.45
168,99.45,336.65,333.45,345.25
176,99.04,340.05,336.75,348.75
184,98.69,343.35,340.15,352.25
192,98.27,346.85,343.75,355.95
200,97.75,350.05,347.05,359.15
208,97.44,353.05,350.15,362.15
216,97.03,356.25,353.45,365.25
224,96.79,358.95,356.35,367.85
232,96.35,361.55,359.05,370.25
240,96.12,364.05,361.75,372.75
248,95.62,366.15,363.95,374.95
256,95.40,368.15,366.05,377.05
264,94.96,370.15,368.25,378.75
272,94.71,371.85,370.15,379.75
280,94.26,373.25,371.85,380.25
288,93.87,374.65,373.75,380.75
296,93.45,375.75,375.15,381.05
304,93.06,376.65,376.25,381.35
312,92.85,377.55,377.05,381.55
320,92.38,378.15,377.55,381.75
328,92.03,378.65,377.85,381.95
336,91.62,378.95,378.15,382.25
344,91.23,379.25,378.25,382.45
352,91.04,379.45,378.35,382.65
360,90.62,379.55,378.45,382.95
368,90.36,379.75,378.55,383.25
376,90.01,379.85,378.65,383.45
384,89.55,380.05,378.75,383.75
392,89.35,380.15,378.85,383.95
400,89.19,380.25,379.05,384.25
408,88.81,380.45,379.15,384.55
416,88.50,380.65,379.25,384.85
424,88.05,380.75,379.35,385.15
432,87.72,380.95,379.55,385.55
440,87.38,381.05,379.65,385.85
448,87.11,381.25,379.75,386.15
456,86.77,381.45,379.95,386.55
464,86.45,381.65,380.05,386.95
472,86.13,381.75,380.25,387.35
480,85.98,382.05,380.45,387.85
488,85.62,382.25,380.55,388.25
496,85.20,382.45,380.75,388.75
504,85.20,382.65,380.95,389.35
512,84.67,382.85,381.15,389.85
520,84.43,383.15,381.35,390.45
528,84.19,383.45,381.65,391.15
536,83.89,383.75,381.85,391.75
544,83.54,384.05,382.05,392.55
552,83.22,384.45,382.35,393.35
560,83.00,384.75,382.65,394.25
568,82.81,385.15,382.85,395.15
576,82.54,385.65,383.25,396.25
584,82.15,386.05,383.55,397.25
592,81.97,386.55,383.95,398.35
600,81.58,387.15,384.35,399.75
608,81.32,387.75,384.75,400.95
616,81.05,388.35,385.15,402.35
624,80.82,389.05,385.75,403.95
632,80.66,389.75,386.25,405.45
640,80.28,390.55,386.75,407.15
648,80.15,391.45,387.45,409.05
656,79.87,392.35,388.15,410.85
664,79.57,393.25,388.85,412.75
672,79.32,394.45,389.75,414.95
680,79.04,395.45,390.65,417.05
688,78.67,396.65,391.65,419.15
696,78.47,398.05,392.75,421.55
704,78.23,399.35,393.85,423.95
712,77.96,400.75,395.05,426.35
720,77.77,402.35,396.45,429.05
728,77.52,404.05,397.85,431.65
736,77.30,405.65,399.25,434.15
744,77.01,407.55,400.95,436.95
752,76.76,409.45,402.45,439.45
760,76.46,411.35,404.15,441.95
768,76.20,413.45,406.05,444.75
776,75.97,415.45,407.95,447.25
784,75.75,417.55,409.75,449.75
792,75.46,419.85,411.75,452.45
800,75.11,422.15,413.75,454.95
808,74.93,424.45,415.75,457.45
816,74.60,426.95,417.95,460.15
824,74.32,429.35,420.05,462.55
832,74.16,431.75,422.35,464.95
840,73.89,434.35,424.75,467.65
848,73.75,436.85,426.95,469.95
856,73.44,439.25,429.25,472.25
864,73.08,441.95,431.75,474.75
872,72.83,444.45,434.05,477.05
880,72.61,446.85,436.45,479.25
888,72.27,449.55,439.05,481.65
896,71.93,451.95,441.45,483.85
904,71.65,454.45,443.85,486.05
912,71.77,456.95,446.45,488.35
920,71.14,459.35,448.95,490.45
928,70.89,461.75,451.35,492.55
936,70.58,464.25,454.05,494.75
944,70.33,466.55,456.45,496.85
952,70.04,468.85,458.95,498.85
960,69.72,471.25,461.55,500.95
968,69.35,473.55,463.95,502.95
976,69.00,475.65,466.35,504.85
984,68.77,478.05,468.95,506.95
992,68.46,480.15,471.35,508.85
1000,68.20,482.25,473.75,510.75
1008,67.74,484.45,476.15,512.75
1016,67.46,486.45,478.45,514.65
1024,67.30,488.45,480.65,516.45
1032,66.82,490.55,483.05,518.35
1040,66.44,492.45,485.25,520.15
1048,66.18,494.35,487.45,521.95
1056,65.87,496.45,489.75,523.85
1064,65.46,498.35,491.85,525.65
1072,65.09,500.15,493.85,527.45
1080,64.78,502.15,496.05,529.25
1088,64.46,503.95,498.05,530.95
1096,64.06,505.75,500.05,532.65
1104,63.67,507.75,502.25,534.55
1112,63.38,509.45,504.15,536.25
1120,62.96,511.25,506.15,537.95
1128,62.60,513.15,508.35,539.75
1136,62.22,514.95,510.25,541.45
1144,61.78,516.65,512.15,543.05
1152,61.44,518.55,514.15,544.85
1160,61.02,520.35,516.05,546.55
1168,60.68,522.15,517.95,548.25
1176,60.28,524.05,520.05,550.05
1184,59.90,525.85,521.85,551.65
1192,59.54,527.55,523.75,553.35
1200,59.08,529.55,525.65,555.05
1208,58.63,531.25,527.55,556.65
1216,58.22,533.05,529.35,558.35
1224,57.80,534.95,531.25,560.05
1232,57.35,536.75,533.05,561.65
1240,57.00,538.55,534.75,563.15
1248,56.57,540.45,536.65,564.85
1256,56.07,542.25,538.55,566.35
1264,55.67,544.05,540.45,567.95
1272,55.27,545.95,542.55,569.55
1280,54.78,547.85,544.55,570.95
1288,54.38,549.65,546.45,572.45
1296,53.93,551.65,548.55,573.95
1304,53.46,553.45,550.55,575.35
1312,53.02,555.25,552.55,576.85
1320,52.53,557.25,554.65,578.25
1328,52.12,559.15,556.65,579.65
1336,51.66,560.95,558.65,580.95
1344,51.20,562.95,560.75,582.35
1352,50.74,564.75,562.75,583.75
1360,50.30,566.55,564.75,585.05
1368,49.82,568.55,566.95,586.35
1376,49.38,570.25,568.85,587.65
1384,48.91,572.05,570.85,588.85
1392,48.43,573.85,572.85,590.25
1400,47.96,575.65,574.75,591.45
1408,47.49,577.25,576.75,592.65
1416,47.04,579.05,578.65,593.85
1424,46.55,580.65,580.45,595.05
1432,46.10,582.35,582.25,596.25
1440,45.64,583.95,584.15,597.45
1448,45.17,585.55,585.85,598.65
1456,44.71,587.15,587.55,599.75
1464,44.28,588.75,589.35,600.95
1472,43.79,590.15,590.95,601.95
1480,43.31,591.45,592.45,603.05
1488,42.92,592.75,594.05,604.15
1496,42.47,594.05,595.45,605.15
1504,41.99,595.15,596.85,606.05
1512,41.56,596.35,598.15,607.05
1520,41.13,597.25,599.45,607.95
1528,40.70,598.05,600.55,608.75
1536,40.28,598.95,601.75,609.65
1544,39.82,599.65,602.75,610.55
1552,39.42,600.25,603.65,611.35
1560,39.00,600.85,604.45,612.35
1568,38.58,601.45,605.05,612.95
1576,38.17,601.95,605.55,613.35
1584,37.79,602.55,606.05,613.75
1592,37.40,603.05,606.65,614.25
1600,37.02,603.65,607.35,614.75
1608,36.64,604.35,608.05,615.25
1616,36.25,605.05,608.25,615.75
1624,35.90,605.65,608.85,616.25
1632,35.62,606.45,609.65,616.95
1640,35.30,607.35,611.05,617.55
1648,34.96,608.45,613.05,618.25
1656,34.56,609.75,615.05,619.45
1664,34.26,610.95,616.85,620.15
1672,33.97,612.55,618.85,620.95
1680,33.66,614.35,621.25,622.05
1688,33.39,616.15,623.65,623.15
1696,33.12,618.15,626.15,624.35
1704,32.84,620.35,629.15,625.75
1712,32.63,622.75,632.15,627.35
1720,32.37,625.35,635.45,629.05
1728,32.21,628.45,639.35,631.05
1736,31.94,631.45,643.65,633.15
1744,31.71,634.85,648.05,635.35
1752,31.53,638.55,653.25,637.75
1760,31.36,642.35,658.35,640.05
1768,31.15,646.15,663.55,642.25
1776,31.02,650.25,668.95,644.55
1784,30.79,654.05,673.45,646.55
1792,30.75,657.75,677.25,648.35
1800,30.59,661.45,680.75,650.25
1808,30.45,664.45,683.35,651.85
1816,30.32,667.35,685.45,653.25
1824,30.17,670.15,687.15,654.65
1832,30.06,672.35,688.25,655.65
1840,29.95,674.35,689.25,656.75
1848,29.88,676.25,689.85,657.75
1856,29.71,677.85,690.35,658.45
1864,29.59,679.25,690.65,659.35
1872,29.48,680.55,690.75,659.95
1880,29.39,681.65,690.85,660.35
1888,29.31,682.65,690.85,660.85
1896,29.23,683.45,690.85,661.15
1904,29.12,684.05,690.75,661.45
1912,29.06,684.55,690.65,661.65
1920,28.99,685.15,690.55,661.95
1928,28.92,685.55,690.55,662.15
1936,28.80,685.95,690.35,662.25
1944,28.75,686.25,690.25,662.25
1952,28.67,686.45,690.05,662.35
1960,28.61,686.75,689.95,662.45
1968,28.56,686.85,689.75,662.35
1976,28.50,687.05,689.55,662.35
1984,28.42,687.25,689.45,661.95
1992,28.37,687.35,689.25,661.55
2000,28.32,687.55,689.15,661.35
2008,28.23,687.75,689.05,661.15
2016,28.20,687.75,688.85,661.05
2024,28.13,687.95,688.85,660.85
2032,28.09,687.95,688.65,660.65
2040,28.04,688.05,688.45,660.55
2048,27.96,688.05,688.25,660.25
2056,27.93,688.15,688.15,660.15
2064,27.87,688.15,687.95,659.85
2072,27.85,688.15,687.85,659.75
2080,27.83,688.05,687.75,659.65
2088,27.77,688.15,687.65,659.55
2096,27.73,688.25,687.55,659.45
2104,27.69,688.15,687.45,659.35
2112,27.64,688.25,687.35,659.15
2120,27.60,688.25,687.25,659.05
2128,27.58,688.25,687.25,658.95
2136,27.55,688.25,687.15,658.85
2144,27.48,688.25,687.15,658.75
2152,27.49,688.25,687.05,658.75
2160,27.46,688.15,686.95,658.65
2168,27.44,687.95,686.95,658.65
2176,27.40,687.95,686.85,658.55
2184,27.39,687.95,686.95,658.55
2192,27.34,687.85,686.85,658.55
2200,27.31,687.85,686.85,658.45
2208,27.29,687.75,686.75,658.35
2216,27.26,687.75,686.75,658.25
2224,27.22,687.75,686.75,658.15
2232,27.18,687.55,686.55,657.95
2240,27.16,687.45,686.65,657.95
2248,27.14,687.45,686.55,657.95
2256,27.13,687.35,686.45,657.85
2264,27.08,687.15,686.45,657.75
2272,27.07,687.25,686.45,657.65
2280,27.05,687.05,686.35,657.65
2288,27.03,687.05,686.25,657.55
2296,26.97,686.85,686.25,657.55
2304,27.00,686.75,686.15,657.35
2312,26.97,686.65,686.15,657.45
2320,26.95,686.55,686.15,657.35
2328,26.93,686.45,686.15,657.35
2336,26.89,686.45,686.15,657.25
2343,26.88,686.35,686.15,657.25