Folder: matl-db/Wood/Calibration_Data/TIFP+UCT (part 7)

File: TIFP+UCT_Wood_Gasification_30kW_hor_perpendicular_R1.csv
Time (s),Mass (g),MLR (g/s),TC back 1 (K),TC back 2 (K),TC back 3 (K)
0,118.55,0.62,299.85,299.25,301.35
12,118.39,-0.01,300.95,300.05,303.25
24,117.96,0.09,301.85,300.65,304.65
36,117.81,0.02,302.85,301.25,305.95
48,117.58,0.06,303.75,301.95,307.15
60,117.03,0.03,304.85,302.55,308.35
72,116.80,0.01,306.15,303.35,309.95
84,116.36,0.06,307.85,304.45,311.85
96,115.99,-0.05,310.25,305.85,314.25
108,115.50,0.11,313.05,307.75,317.15
120,114.90,0.06,316.45,310.25,320.65
132,114.40,0.14,320.35,313.25,324.55
144,113.83,-0.00,324.75,316.75,328.95
156,113.40,-0.01,329.45,320.65,333.45
168,112.90,0.04,334.35,324.95,338.05
180,112.44,0.04,339.25,329.35,342.65
192,111.92,0.01,344.15,333.85,347.15
204,111.53,0.01,348.95,338.35,351.45
216,111.10,0.09,353.65,342.75,355.65
228,110.53,0.01,357.95,347.05,359.45
240,110.06,0.04,361.95,351.25,362.85
252,109.67,0.02,365.95,355.05,365.95
264,109.17,0.08,369.45,358.65,368.85
276,108.74,0.02,372.65,361.85,371.35
288,108.24,0.06,375.55,364.95,373.65
300,107.63,0.06,378.05,367.85,375.55
312,107.43,-0.01,379.35,370.65,377.25
324,106.74,0.00,380.05,373.45,378.65
336,106.35,0.01,380.45,376.05,379.85
348,105.65,0.12,380.85,377.15,380.85
360,105.26,0.01,381.15,377.65,381.55
372,104.81,-0.00,381.55,378.05,382.25
384,104.38,0.04,381.85,378.25,382.75
396,103.88,-0.08,382.15,378.55,383.25
408,103.52,0.14,382.45,378.75,383.75
420,103.14,0.05,382.85,379.05,384.15
432,102.65,0.00,383.15,379.25,384.55
444,102.20,0.08,383.45,379.35,384.95
456,101.77,0.04,383.75,379.55,385.35
468,101.23,0.03,384.15,379.75,385.75
480,100.88,-0.01,384.45,379.95,386.05
492,100.53,0.03,384.95,380.05,386.55
504,99.97,-0.01,385.35,380.25,386.95
516,99.61,0.04,385.85,380.45,387.35
528,99.29,0.05,386.35,380.65,387.85
540,98.66,0.03,386.85,380.85,388.35
552,98.74,0.06,387.45,381.05,388.85
564,98.02,0.09,388.15,381.35,389.45
576,97.51,0.02,388.85,381.65,390.05
588,97.29,0.10,389.55,381.85,390.75
600,96.93,0.07,390.45,382.15,391.45
612,96.54,0.11,391.35,382.45,392.35
624,96.03,0.12,392.35,382.85,393.35
636,95.67,0.06,393.55,383.15,394.45
648,95.33,0.24,394.75,383.65,395.65
660,94.97,0.10,396.05,384.05,396.95
672,94.57,0.08,397.45,384.55,398.35
684,94.20,0.07,398.85,385.05,399.85
696,93.95,0.02,400.55,385.65,401.45
708,93.60,-0.06,402.15,386.25,403.15
720,93.16,0.05,403.95,386.95,405.15
732,92.84,0.07,405.95,387.75,407.15
744,92.51,-0.02,407.95,388.65,409.25
756,92.03,0.17,410.15,389.65,411.55
768,91.67,0.06,412.35,390.75,413.75
780,91.28,-0.01,414.65,391.85,416.05
792,90.95,-0.01,417.05,393.15,418.45
804,90.83,-0.01,419.55,394.65,420.85
816,90.41,0.05,422.15,396.15,423.35
828,90.15,-0.05,424.85,397.85,425.85
840,89.83,0.01,427.55,399.65,428.35
852,89.48,0.10,430.35,401.65,430.95
864,89.24,-0.02,433.15,403.75,433.45
876,88.79,-0.04,436.05,406.05,436.05
888,88.51,0.09,438.85,408.45,438.65
900,88.22,-0.07,441.75,410.85,441.15
912,87.95,0.03,444.65,413.45,443.75
924,87.55,-0.07,447.55,416.05,446.25
936,87.36,-0.01,450.35,418.65,448.75
948,86.93,0.04,453.25,421.45,451.25
960,86.67,0.01,456.05,424.35,453.65
972,86.27,0.04,458.85,427.15,456.15
984,86.04,0.09,461.65,430.05,458.55
996,85.67,-0.03,464.45,432.95,460.95
1008,85.40,0.01,467.05,435.95,463.25
1020,85.02,0.03,469.75,438.95,465.65
1032,84.78,0.04,472.45,441.85,467.85
1044,84.50,0.06,474.95,444.85,470.15
1056,84.05,0.05,477.55,447.75,472.45
1068,83.73,0.00,480.05,450.65,474.65
1080,83.41,0.06,482.45,453.55,476.85
1092,83.06,-0.03,484.95,456.45,478.95
1104,82.72,0.03,487.25,459.35,481.15
1116,82.49,0.08,489.65,462.15,483.25
1128,82.08,0.06,491.95,464.95,485.35
1140,81.65,0.07,494.25,467.65,487.45
1152,81.36,0.03,496.45,470.25,489.35
1164,81.04,0.00,498.75,472.95,491.35
1176,80.72,-0.01,500.85,475.55,493.35
1188,80.29,-0.02,503.05,478.05,495.25
1200,79.93,0.03,505.15,480.55,497.15
1212,79.44,0.04,507.35,483.05,499.05
1224,79.06,0.00,509.45,485.55,500.95
1236,78.84,0.00,511.45,487.95,502.75
1248,78.46,-0.01,513.55,490.35,504.65
1260,78.00,0.07,515.55,492.75,506.45
1272,77.53,-0.01,517.55,495.05,508.25
1284,77.15,-0.01,519.45,497.35,510.05
1296,76.71,0.07,521.35,499.65,511.75
1308,76.34,0.05,523.25,501.95,513.55
1320,75.88,0.04,525.15,504.25,515.25
1332,75.56,-0.01,527.05,506.45,517.05
1344,75.03,0.03,528.85,508.65,518.65
1356,74.59,0.02,530.65,510.85,520.45
1368,74.16,-0.01,532.45,512.95,522.05
1380,73.66,0.07,534.25,515.15,523.65
1392,73.27,0.05,535.95,517.25,525.35
1404,72.73,0.04,537.75,519.35,526.95
1416,72.30,-0.01,539.45,521.45,528.65
1428,71.81,0.03,541.25,523.55,530.15
1440,71.38,0.01,543.05,525.55,531.75
1452,70.87,0.04,544.75,527.65,533.25
1464,70.37,0.04,546.45,529.65,534.85
1476,69.88,0.05,548.15,531.65,536.35
1488,69.42,0.03,549.85,533.65,537.85
1500,68.84,0.03,551.65,535.65,539.35
1512,68.33,0.07,553.25,537.65,540.85
1524,67.83,0.05,554.95,539.75,542.25
1536,67.31,0.03,556.65,541.75,543.75
1548,66.78,0.08,558.25,543.75,545.15
1560,66.27,0.05,559.85,545.65,546.55
1572,65.77,-0.00,561.45,547.65,547.95
1584,65.23,0.04,563.05,549.55,549.25
1596,64.68,0.04,564.55,551.45,550.55
1608,64.16,0.07,566.05,553.45,551.95
1620,63.59,0.04,567.55,555.35,553.25
1632,63.09,0.02,568.95,557.15,554.55
1644,62.52,0.04,570.35,559.05,555.85
1656,61.98,0.02,571.65,560.95,557.05
1668,61.40,0.05,573.05,562.75,558.35
1680,60.83,0.09,574.25,564.55,559.55
1692,60.29,0.06,575.45,566.25,560.75
1704,59.72,0.03,576.65,568.05,561.95
1716,59.18,0.04,577.75,569.65,563.15
1728,58.62,0.06,578.75,571.15,564.35
1740,58.06,0.00,579.65,572.75,565.55
1752,57.50,0.06,580.65,574.15,566.65
1764,56.95,0.05,581.45,575.75,567.85
1776,56.41,0.04,582.25,577.15,568.95
1788,55.88,0.04,583.05,578.55,570.15
1800,55.29,0.05,583.85,580.05,571.25
1812,54.76,0.06,584.55,581.35,572.35
1824,54.21,0.04,585.25,582.75,573.35
1836,53.65,0.05,585.85,584.05,574.45
1848,53.15,0.04,586.65,585.45,575.55
1860,52.62,0.01,587.35,586.65,576.65
1872,52.11,0.02,587.95,587.95,577.75
1884,51.62,0.03,588.55,589.05,578.75
1896,51.04,0.01,589.15,590.35,579.85
1908,50.55,0.05,589.75,591.45,580.85
1920,50.05,0.02,590.25,592.45,581.85
1932,49.55,0.06,590.85,593.45,582.85
1944,49.08,0.02,591.55,594.35,583.85
1956,48.60,0.03,592.15,595.25,584.85
1968,48.09,0.04,592.75,596.05,585.85
1980,47.65,0.01,593.65,596.85,586.75
1992,47.21,0.05,594.35,597.75,587.75
2004,46.74,0.04,595.15,598.65,588.65
2016,46.29,0.06,595.85,599.45,589.55
2028,45.86,0.05,596.65,600.45,590.45
2040,45.42,0.04,597.35,601.25,591.25
2052,44.96,0.04,598.45,604.35,592.15
2064,44.56,0.03,599.55,605.35,592.95
2076,44.17,0.03,600.55,606.35,593.75
2088,43.80,0.04,601.45,607.45,594.35
2100,43.43,0.03,602.45,608.75,595.15
2112,43.07,0.04,603.55,610.05,595.85
2124,42.72,0.02,604.55,611.55,596.55
2136,42.37,0.03,605.65,612.85,597.35
2148,42.06,0.05,606.75,614.35,598.15
2160,41.74,0.03,607.95,616.05,598.85
2172,41.43,0.03,609.35,617.65,599.75
2184,41.12,0.03,610.65,619.15,600.65
2196,40.81,0.01,612.15,620.75,601.65
2208,40.53,0.04,613.65,622.45,602.55
2220,40.25,0.02,615.25,623.85,603.45
2232,40.01,0.02,616.85,625.45,604.75
2244,39.69,0.01,618.45,626.65,605.85
2256,39.46,0.00,620.15,627.95,606.85
2268,39.19,0.02,621.75,629.15,607.95
2280,38.94,0.03,623.45,630.15,608.35
2292,38.67,0.01,625.05,631.25,608.95
2304,38.44,0.03,626.55,632.15,610.25
2316,38.22,0.03,628.05,633.25,611.05
2328,37.98,0.02,629.35,634.05,611.75
2340,37.76,0.01,630.65,634.65,612.75
2352,37.56,0.02,631.95,635.55,614.35
2364,37.35,0.02,633.25,636.35,615.85
2376,37.14,0.03,634.45,637.25,617.45
2388,36.98,0.02,635.45,637.85,618.65
2400,36.78,0.02,636.55,638.55,620.25
2412,36.58,-0.00,637.45,639.25,621.85
2424,36.39,0.01,638.35,639.85,622.35
2436,36.21,0.00,639.15,640.45,623.35
2448,36.06,-0.01,639.95,640.85,624.35
2460,35.90,0.00,640.85,641.45,625.55
2472,35.75,0.01,641.65,641.95,626.65
2484,35.59,0.00,642.35,642.35,625.35
2496,35.41,0.01,643.15,642.85,621.05
2508,35.26,0.02,643.75,643.25,621.25
2520,35.14,-0.02,644.35,643.65,621.35
2532,35.03,0.02,644.95,644.15,621.75
2544,34.91,0.00,645.45,644.45,622.15
2556,34.79,0.01,645.95,644.75,622.35
2568,34.69,0.01,646.35,645.05,622.75
2580,34.59,-0.00,646.65,645.35,623.55
2592,34.51,0.01,647.05,645.65,624.25
2604,34.37,0.01,647.45,645.95,624.95
2616,34.28,0.01,647.75,646.15,625.85
2628,34.18,0.01,647.95,646.35,626.35
2640,34.07,0.03,648.35,646.65,626.75
2652,34.00,-0.01,648.55,646.75,627.25
2664,33.89,0.01,648.85,646.95,627.75
2676,33.82,0.03,649.05,647.25,628.05
2688,33.72,0.01,649.25,647.35,628.35
2700,33.65,0.01,649.45,647.45,628.85
2712,33.60,0.01,649.65,647.65,629.25
2724,33.52,0.02,649.85,647.75,629.65
2736,33.45,0.00,649.95,647.85,629.75
2748,33.40,0.00,650.35,648.05,629.95
2760,33.31,0.00,650.55,648.15,630.05
2772,33.27,0.00,650.65,648.15,630.25
2784,33.18,0.00,650.75,648.35,630.25
2796,33.13,-0.01,650.85,648.35,630.35
2808,33.08,0.01,650.95,648.45,630.45
2820,33.02,0.01,651.05,648.45,630.65
2832,32.95,0.00,651.05,648.45,630.85
2844,32.90,0.00,651.15,648.45,631.05
2856,32.85,0.01,651.25,648.45,631.25
2868,32.79,0.00,651.35,648.45,631.55
2880,32.66,0.01,651.35,648.45,631.75
2892,32.72,0.01,651.35,648.45,632.05
2904,32.66,0.01,651.45,648.45,632.25
2916,32.62,0.01,651.45,648.45,632.25
2928,32.57,0.02,651.55,648.45,632.35
2940,32.52,-0.00,651.55,648.45,632.45
2952,32.47,-0.01,651.65,648.45,632.55
2964,32.46,0.01,651.65,648.45,632.65
2976,32.43,0.01,651.65,648.35,632.75
2988,32.36,0.01,651.65,648.35,632.95
3000,32.33,0.01,651.55,648.35,633.15
3012,32.27,-0.00,651.55,648.15,633.05
3024,32.26,-0.01,651.65,648.25,633.15
3030,32.25,0.02,651.65,648.25,633.15

File: TIFP+UCT_Wood_Gasification_60kW_hor_perpendicular_R2.csv
Time (s),Mass (g),TC back 1 (K),TC back 2 (K),TC back 3 (K)
0,114.35,298.05,298.05,295.65
4,113.71,298.65,298.55,296.35
8,113.36,299.35,299.35,296.95
12,113.17,299.95,300.15,297.45
16,112.87,300.45,300.75,297.85
20,112.50,301.15,301.45,298.35
24,112.08,301.75,302.15,298.75
28,111.65,302.25,302.75,299.05
32,111.07,302.95,303.35,299.45
36,110.44,303.55,304.05,299.85
40,109.97,304.15,304.55,300.15
44,109.45,304.75,305.25,300.45
48,108.91,305.55,305.95,300.95
52,108.52,306.15,306.55,301.35
56,108.04,307.05,307.35,301.75
60,107.48,307.95,308.15,302.35
64,107.14,308.85,308.95,302.85
68,106.69,310.05,310.05,303.65
72,106.30,311.45,311.25,304.45
76,105.95,312.65,312.45,305.25
80,105.55,314.35,313.95,306.35
84,105.08,316.15,315.65,307.65
88,104.82,317.85,317.25,308.85
92,104.42,319.95,319.25,310.45
96,104.13,322.15,321.45,312.15
100,103.75,324.15,323.45,313.85
104,103.40,326.55,325.85,315.95
108,103.01,329.05,328.45,318.15
112,102.68,331.35,330.65,320.15
116,102.26,333.95,333.25,322.65
120,101.97,336.55,336.05,325.25
124,101.68,338.95,338.45,327.55
128,101.38,341.85,341.35,330.25
132,101.03,345.05,344.15,333.15
136,100.77,347.55,346.65,335.65
140,100.40,350.55,349.45,338.55
144,100.05,353.35,352.05,341.55
148,99.73,355.55,354.25,344.15
152,99.43,358.15,356.75,347.15
156,99.12,360.65,359.05,349.95
160,98.77,362.65,361.05,352.35
164,98.41,365.25,363.15,354.95
168,98.04,368.35,365.25,357.45
172,97.79,370.75,366.95,359.55
176,97.41,373.15,369.05,361.85
180,97.06,375.05,371.15,363.95
184,96.75,376.35,372.85,365.75
188,96.45,377.55,374.45,367.75
192,96.13,378.55,375.75,369.45
196,95.75,379.15,376.85,370.95
200,95.39,379.75,377.95,372.35
204,95.11,380.35,378.85,373.65
208,94.80,380.75,379.65,374.65
212,94.44,381.15,380.35,375.65
216,94.18,381.75,381.05,376.65
220,93.91,382.15,381.55,377.35
224,93.45,382.75,382.25,377.95
228,93.08,383.55,382.95,378.55
232,92.68,384.15,383.35,378.85
236,92.29,384.65,383.85,379.25
240,92.03,385.05,384.15,379.45
244,91.83,385.35,384.45,379.65
248,91.53,385.75,384.75,379.95
252,91.08,386.05,385.05,380.15
256,90.81,386.35,385.35,380.35
260,90.56,386.75,385.65,380.45
264,90.12,387.05,385.95,380.65
268,89.88,387.35,386.15,380.85
272,89.62,387.65,386.55,381.05
276,89.25,387.95,386.75,381.25
280,88.91,388.25,387.05,381.35
284,88.71,388.55,387.35,381.55
288,88.31,388.95,387.65,381.75
292,88.19,389.25,387.85,381.85
296,87.70,389.55,388.25,382.15
300,87.36,389.85,388.55,382.25
304,87.12,390.15,388.75,382.45
308,86.90,390.45,389.05,382.55
312,86.57,390.85,389.35,382.75
316,86.20,391.15,389.65,382.95
320,85.85,391.45,389.95,383.15
324,85.60,391.85,390.25,383.35
328,85.40,392.15,390.55,383.45
332,85.00,392.55,390.85,383.65
336,84.73,392.85,391.15,383.75
340,84.49,393.15,391.45,383.95
344,84.19,393.45,391.75,384.15
348,84.02,393.85,392.05,384.35
352,83.73,394.15,392.35,384.45
356,83.29,394.55,392.65,384.65
360,83.08,394.95,392.95,384.75
364,82.94,395.25,393.25,384.95
368,82.66,395.55,393.55,385.15
372,82.24,395.95,393.95,385.35
376,81.89,396.35,394.25,385.55
380,81.73,396.75,394.55,385.75
384,81.39,397.05,394.85,385.85
388,80.97,397.35,395.25,386.05
392,80.82,397.85,395.55,386.25
396,80.59,398.15,395.85,386.35
400,80.31,398.55,396.25,386.55
404,79.93,398.95,396.55,386.75
408,79.78,399.35,396.95,386.95
412,79.44,399.75,397.25,387.15
416,79.14,400.15,397.65,387.35
420,78.91,400.55,398.05,387.65
424,78.87,400.95,398.35,387.75
428,78.30,401.35,398.75,387.95
432,78.11,401.75,399.15,388.15
436,77.72,402.15,399.55,388.35
440,77.48,402.65,399.95,388.65
444,77.22,403.15,400.35,388.85
448,77.06,403.55,400.65,389.05
452,76.70,404.05,401.15,389.35
456,76.39,404.55,401.65,389.55
460,76.26,405.05,402.05,389.85
464,76.11,405.65,402.45,390.05
468,75.72,406.25,402.95,390.35
472,75.34,406.75,403.45,390.65
476,75.18,407.35,404.05,390.85
480,74.90,407.95,404.55,391.25
484,74.58,408.55,405.05,391.45
488,74.43,409.25,405.75,391.85
492,74.05,410.05,406.35,392.15
496,73.88,410.65,406.95,392.45
500,73.55,411.55,407.65,392.85
504,73.25,412.45,408.45,393.25
508,73.01,413.15,409.05,393.75
512,72.77,413.95,409.95,394.15
516,72.49,414.85,410.75,394.55
520,72.22,415.65,411.45,395.05
524,71.82,416.75,412.35,395.55
528,71.66,417.85,413.35,396.05
532,71.36,418.75,414.15,396.55
536,71.16,419.95,415.25,397.15
540,70.92,421.35,416.35,397.75
544,70.63,422.45,417.35,398.35
548,70.41,423.95,418.55,398.95
552,70.10,425.35,419.75,399.75
556,69.75,426.65,420.85,400.45
560,69.44,428.15,422.25,401.25
564,69.15,429.75,423.65,402.05
568,68.97,431.15,424.95,402.85
572,68.68,432.75,426.45,403.75
576,68.45,434.45,427.95,404.65
580,68.18,436.05,429.35,405.35
584,67.89,437.85,430.95,406.35
588,67.60,439.65,432.65,407.35
592,67.39,441.25,434.15,408.15
596,67.07,443.25,435.95,409.15
600,66.69,445.25,437.75,410.25
604,66.46,446.95,439.25,411.25
608,66.24,448.95,441.15,412.45
612,65.86,451.05,442.95,413.65
616,65.68,452.85,444.55,414.65
620,65.43,454.85,446.55,415.95
624,65.13,456.95,448.45,417.25
628,64.75,458.75,450.05,418.35
632,64.63,460.85,452.05,419.75
636,64.27,462.95,454.05,421.25
640,64.02,464.85,455.75,422.55
644,63.70,467.05,457.75,424.15
648,63.38,469.35,459.75,425.85
652,63.12,471.25,461.45,427.25
656,62.81,473.45,463.45,428.95
660,62.52,475.65,465.45,430.65
664,62.26,477.55,467.05,432.25
668,61.97,479.75,468.95,434.15
672,61.63,481.95,470.85,436.05
676,61.44,483.85,472.65,437.65
680,61.10,486.15,474.55,439.55
684,60.77,488.35,476.55,441.65
688,60.49,490.15,478.35,443.35
692,60.15,492.35,480.35,445.45
696,59.91,494.55,482.25,447.55
700,59.57,496.45,483.95,449.45
704,59.29,498.65,485.95,451.55
708,58.93,500.75,487.95,453.75
712,58.64,502.65,489.65,455.65
716,58.40,504.85,491.55,457.95
720,58.12,506.85,493.45,460.15
724,57.75,508.65,495.15,462.15
728,57.37,510.65,497.05,464.55
732,57.14,512.55,498.95,466.85
736,56.76,514.25,500.65,468.95
740,56.41,516.05,502.55,471.25
744,56.09,517.95,504.35,473.65
748,55.79,519.45,505.95,475.75
752,55.50,521.25,507.85,478.05
756,55.11,523.05,509.65,480.45
760,54.82,524.55,511.25,482.45
764,54.47,526.35,513.05,484.75
768,54.18,528.05,514.85,487.05
772,53.82,529.55,516.45,488.95
776,53.48,531.35,518.15,491.15
780,53.18,533.05,519.95,493.45
784,52.84,534.55,521.45,495.35
788,52.48,536.35,523.25,497.45
792,52.11,538.15,525.05,499.65
796,51.76,539.65,526.55,501.45
800,51.42,541.45,528.35,503.65
804,51.07,543.15,530.15,505.75
808,50.80,544.75,531.65,507.55
812,50.41,546.55,533.45,509.65
816,49.99,548.35,535.25,511.75
820,49.66,549.95,536.85,513.45
824,49.28,551.85,538.65,515.55
828,48.93,553.75,540.35,517.45
832,48.58,555.35,541.95,519.15
836,48.21,557.25,543.85,521.15
840,47.83,559.15,545.65,523.05
844,47.49,560.65,547.25,524.75
848,47.12,562.45,549.15,526.75
852,46.75,564.25,550.95,528.65
856,46.36,565.85,552.65,530.25
860,46.02,567.75,554.65,532.15
864,45.60,569.65,556.55,533.95
868,45.24,571.25,558.25,535.45
872,44.83,573.15,560.35,537.35
876,44.49,575.05,562.45,539.25
880,44.06,576.75,564.15,540.85
884,43.72,578.75,566.25,542.75
888,43.26,580.95,568.35,544.65
892,42.89,582.75,570.05,546.25
896,42.50,584.95,572.05,548.15
900,42.13,587.15,574.15,550.05
904,41.76,588.95,575.75,551.75
908,41.36,591.15,577.75,553.75
912,40.97,593.35,579.75,555.85
916,40.64,595.25,581.45,557.55
920,40.20,597.35,583.45,559.65
924,39.81,599.45,585.35,561.65
928,39.45,601.15,587.05,563.45
932,39.05,603.05,588.95,565.65
936,38.69,605.05,590.85,567.75
940,38.30,606.75,592.55,569.65
944,37.91,608.75,594.55,571.85
948,37.45,610.65,596.55,573.95
952,37.13,612.25,598.15,575.85
956,36.77,614.25,600.15,577.95
960,36.41,616.15,602.05,580.25
964,36.00,617.85,603.75,582.25
968,35.65,619.85,605.85,584.65
972,35.31,621.85,608.15,587.05
976,34.93,623.75,610.15,589.25
980,34.57,625.95,612.35,591.65
984,34.20,628.15,614.35,594.15
988,33.83,630.15,616.15,596.45
992,33.46,632.45,618.45,599.05
996,33.14,634.75,620.75,601.85
1000,32.79,636.75,622.75,604.25
1004,32.43,639.15,624.85,607.15
1008,32.10,641.85,627.55,610.15
1012,31.75,644.25,629.75,612.65
1016,31.42,647.25,632.85,615.75
1020,31.07,651.45,635.95,619.05
1024,30.76,655.95,638.55,621.75
1028,30.44,661.95,641.15,625.05
1032,30.07,661.95,642.65,628.35
1036,29.78,666.55,645.75,631.35
1040,29.49,673.75,650.35,634.95
1044,29.19,681.55,654.35,638.65
1048,28.87,685.35,658.15,641.95
1052,28.59,691.15,663.15,645.85
1056,28.26,704.75,668.95,649.95
1060,27.99,712.05,673.75,653.55
1064,27.75,719.75,679.45,657.85
1068,27.46,726.55,685.65,662.15
1072,27.23,731.65,691.25,665.65
1076,27.00,737.05,698.45,670.05
1080,26.76,741.55,706.95,675.15
1084,26.55,745.95,715.55,680.55
1088,26.33,751.05,726.05,687.45
1092,26.16,756.65,736.45,695.05
1096,25.99,761.25,743.95,701.85
1100,25.76,765.75,751.35,710.75
1104,25.60,770.05,758.35,721.55
1108,25.43,773.95,763.75,732.05
1112,25.30,777.75,768.85,745.55
1116,25.18,782.05,773.65,762.05
1120,25.09,785.15,777.65,782.85
1124,24.97,788.65,782.55,801.35
1128,24.89,792.25,785.85,805.95
1132,24.81,794.55,786.95,806.65
1136,24.83,796.65,788.25,807.55
1140,24.70,798.45,788.95,808.55
1144,24.67,799.85,789.55,809.25
1148,24.63,801.65,791.25,810.95
1152,24.59,803.15,792.65,812.45
1156,24.55,804.55,793.95,813.35
1160,24.54,805.95,794.95,814.65
1164,24.46,807.15,794.85,815.05
1168,24.43,808.25,796.05,816.05
1172,24.39,809.45,796.25,816.75
1174,24.40,809.95,796.95,817.35