Folder: matl-db/Wood/Calibration_Data/TIFP+UCT (part 3)

File: TIFP+UCT_Gasification_hor_perpendicular_30kW_R3.csv
Time (s),Mass (g),TC back 1 (K),TC back 2 (K),TC back 3 (K)
0,110.47,298.85,298.55,300.65
9,110.14,299.65,299.15,301.95
18,109.89,300.35,299.65,303.05
27,109.74,301.05,300.05,303.95
36,109.66,301.75,300.55,304.85
45,109.38,302.45,300.95,305.65
54,109.22,303.35,301.45,306.65
63,108.88,304.25,302.05,307.75
72,108.63,305.45,302.85,309.05
81,108.34,306.85,303.95,310.75
90,108.10,308.45,305.25,312.85
99,107.68,310.55,306.95,315.35
108,107.26,312.95,308.95,318.35
117,106.82,315.75,311.45,321.75
126,106.53,318.85,314.35,325.55
135,105.91,322.35,317.55,329.65
144,105.66,326.05,321.05,333.95
153,105.30,329.85,324.85,338.25
162,104.96,333.75,328.65,342.95
171,104.43,337.85,332.65,347.35
180,104.17,341.85,336.45,351.45
189,103.52,345.85,340.35,355.55
198,103.14,349.95,344.05,359.25
207,102.80,353.75,347.75,362.65
216,102.37,357.35,351.25,365.75
225,102.00,360.75,354.85,368.55
234,101.66,363.85,357.95,371.05
243,101.30,366.85,360.85,373.35
252,100.93,369.55,363.35,375.45
261,100.54,372.05,365.85,377.15
270,100.16,374.45,368.05,378.45
279,99.86,376.45,370.05,379.55
288,99.41,377.95,371.85,380.35
297,98.96,378.95,373.55,381.05
306,98.56,379.55,375.05,381.65
315,98.13,379.95,376.35,382.15
324,97.59,380.35,377.15,382.65
333,97.03,381.45,377.75,383.15
342,96.61,381.95,378.05,383.45
351,96.27,382.35,378.25,383.85
360,95.87,382.65,378.45,384.25
369,95.55,382.95,378.75,384.65
378,95.24,383.25,378.85,385.05
387,94.72,383.55,379.15,385.45
396,94.44,383.85,379.25,385.85
405,93.94,384.25,379.45,386.25
414,93.84,384.45,379.65,386.65
423,93.46,384.75,379.85,387.05
432,93.07,385.05,379.95,387.45
441,92.69,385.35,380.15,387.85
450,92.31,385.65,380.35,388.25
459,91.93,385.95,380.55,388.65
468,91.67,386.25,380.75,389.15
477,91.37,386.55,380.85,389.55
486,90.98,386.85,381.15,390.05
495,90.71,387.25,381.35,390.65
504,90.26,387.65,381.55,391.15
513,90.01,387.95,381.75,391.75
522,89.65,388.35,381.85,392.35
531,89.31,388.75,382.15,393.05
540,89.05,389.05,382.35,393.75
549,88.64,389.55,382.65,394.55
558,88.50,389.95,382.85,395.35
567,88.15,390.55,383.25,396.25
576,87.83,391.05,383.45,397.15
585,87.59,391.65,383.75,398.15
594,87.29,392.25,384.15,399.35
603,86.91,392.95,384.55,400.65
612,86.71,393.75,384.95,401.95
621,86.56,394.55,385.35,403.35
630,86.10,395.45,385.85,404.85
639,85.93,396.35,386.35,406.45
648,85.62,397.45,386.85,408.45
657,85.37,398.65,387.45,410.35
666,85.15,399.85,388.15,412.35
675,84.85,401.15,388.85,414.35
684,84.60,402.55,389.65,416.55
693,84.27,404.15,390.55,418.85
702,83.99,405.75,391.45,421.25
711,83.68,407.45,392.45,423.75
720,83.36,409.25,393.55,426.25
729,83.09,411.15,394.75,428.95
738,82.80,413.05,396.05,431.55
747,82.49,415.05,397.45,434.15
756,82.28,417.05,398.85,436.75
765,81.97,419.15,400.45,439.45
774,81.78,421.35,402.15,442.05
783,81.53,423.55,403.95,444.65
792,81.16,425.85,406.05,447.25
801,80.99,428.15,407.95,449.85
810,80.63,430.55,410.05,452.45
819,80.45,432.85,412.25,455.05
828,80.17,435.25,414.45,457.55
837,79.87,437.55,416.65,460.15
846,79.59,439.95,419.15,462.65
855,79.37,442.35,421.45,465.05
864,79.04,444.65,423.85,467.45
873,78.82,447.05,426.15,469.85
882,78.53,449.35,427.85,472.15
891,78.25,451.65,430.35,474.55
900,77.96,453.95,432.85,476.85
909,77.77,456.25,435.15,479.15
918,77.57,458.45,437.75,481.35
927,77.23,460.75,440.25,483.45
936,76.98,462.95,442.95,485.65
945,76.66,465.15,445.45,487.75
954,76.40,467.25,447.95,489.85
963,76.17,469.35,450.55,491.95
972,75.86,471.45,453.15,493.95
981,75.50,473.55,455.65,495.95
990,75.27,475.55,458.25,497.95
999,74.87,477.55,460.75,499.75
1008,74.60,479.55,463.35,501.65
1017,74.25,481.55,465.85,503.45
1026,73.87,483.45,468.35,505.35
1035,73.69,485.45,470.95,507.05
1044,73.28,487.35,473.45,508.85
1053,72.93,489.15,475.65,510.55
1062,72.72,491.05,477.95,512.15
1071,72.41,492.75,480.15,513.75
1080,71.91,494.55,482.35,515.45
1089,71.70,496.35,484.45,517.05
1098,71.35,497.95,486.55,518.65
1107,70.91,499.85,488.55,520.25
1116,70.54,501.45,490.65,521.65
1125,70.30,503.25,492.65,523.25
1134,69.85,504.95,494.65,524.75
1143,69.51,506.55,496.55,526.15
1152,69.09,508.25,498.55,527.75
1161,68.84,509.95,500.55,529.25
1170,68.35,511.55,502.35,530.65
1179,68.05,513.15,504.35,532.15
1188,67.63,514.75,506.15,533.65
1197,67.28,516.45,508.15,535.15
1206,66.81,518.05,509.95,536.75
1215,66.41,519.55,511.75,538.15
1224,66.01,521.15,513.65,539.65
1233,65.63,522.75,515.35,541.15
1242,65.22,524.25,517.25,542.65
1251,64.82,525.75,519.05,544.15
1260,64.38,527.35,520.85,545.55
1269,63.95,528.85,522.65,547.05
1278,63.58,530.35,524.55,548.55
1287,63.07,531.85,526.35,549.95
1296,62.69,533.35,528.15,551.45
1305,62.24,534.85,529.95,552.85
1314,61.82,536.35,531.75,554.35
1323,61.35,537.75,533.55,555.75
1332,60.86,539.25,535.35,557.15
1341,60.48,540.75,537.25,558.55
1350,60.00,542.15,539.05,559.85
1359,59.56,543.55,540.85,561.25
1368,59.10,545.05,542.75,562.65
1377,58.67,546.55,544.55,564.05
1386,58.15,547.95,546.45,565.35
1395,57.68,549.45,548.35,566.75
1404,57.24,550.95,550.25,568.15
1413,56.75,552.35,552.15,569.35
1422,56.22,553.85,554.05,570.75
1431,55.75,555.25,555.95,571.95
1440,55.19,556.75,557.75,573.25
1449,54.72,558.25,559.75,574.55
1458,54.26,559.65,561.55,575.75
1467,53.70,561.15,563.55,577.05
1476,53.18,562.65,565.35,578.25
1485,52.65,563.75,567.25,579.55
1494,52.16,565.25,569.05,580.75
1503,51.63,566.55,570.85,581.95
1512,51.16,567.95,572.55,583.15
1521,50.62,569.25,574.25,584.45
1530,50.15,570.55,575.95,585.65
1539,49.62,571.75,577.55,586.75
1548,49.10,572.95,579.15,587.95
1557,48.67,574.15,580.75,589.05
1566,48.12,575.45,582.35,590.15
1575,47.58,576.55,583.85,591.35
1584,47.09,577.75,585.35,592.45
1593,46.60,578.95,586.85,593.55
1602,46.10,580.05,588.25,594.65
1611,45.62,581.05,589.75,595.75
1620,45.09,582.05,591.05,596.75
1629,44.66,583.15,592.35,597.65
1638,44.12,584.05,593.65,598.45
1647,43.64,585.05,594.85,599.25
1656,43.16,586.05,596.15,600.05
1665,42.65,586.95,597.35,600.85
1674,42.17,587.75,598.55,601.45
1683,41.67,588.65,599.55,601.95
1692,41.23,589.35,600.65,602.35
1701,40.78,590.15,601.55,602.65
1710,40.33,590.95,602.15,602.85
1719,39.89,591.65,602.65,603.05
1728,39.48,592.25,603.05,603.25
1737,39.06,593.05,603.45,603.45
1746,38.67,593.75,603.85,603.65
1755,38.25,594.45,604.25,603.95
1764,37.85,595.15,604.65,604.25
1773,37.42,595.95,604.95,604.65
1782,37.09,596.65,605.55,605.15
1791,36.69,597.65,606.15,605.65
1800,36.35,598.45,606.75,606.25
1809,36.02,599.25,607.55,606.85
1818,35.66,599.95,608.35,607.55
1827,35.36,600.85,609.45,608.45
1836,35.02,601.55,610.45,609.25
1845,34.74,602.35,611.65,610.35
1854,34.48,603.25,613.05,611.35
1863,34.17,604.15,614.65,612.65
1872,33.92,605.15,616.25,613.95
1881,33.60,606.05,628.15,615.25
1890,33.36,607.15,630.75,616.85
1899,33.13,608.35,632.35,618.45
1908,32.90,609.55,633.85,620.15
1917,32.66,610.85,635.25,621.95
1926,32.48,612.25,636.45,623.85
1935,32.30,613.65,637.85,625.75
1944,32.09,615.25,638.75,627.95
1953,31.93,616.75,639.75,629.85
1962,31.77,618.35,640.55,631.55
1971,31.59,620.05,641.25,633.05
1980,31.48,621.95,641.75,634.35
1989,31.36,623.65,641.95,635.35
1998,31.23,625.45,642.05,636.25
2007,31.11,627.35,642.25,636.95
2016,31.01,629.15,642.15,637.55
2025,30.89,631.05,642.05,638.05
2034,30.78,632.95,642.35,638.45
2043,30.69,634.85,642.95,638.85
2052,30.57,636.85,643.65,639.05
2061,30.48,638.65,644.25,639.45
2070,30.37,640.45,644.95,639.75
2079,30.32,641.95,645.45,639.85
2088,30.24,643.45,645.95,639.95
2097,30.19,644.55,646.25,640.15
2106,30.11,645.65,646.45,640.15
2115,30.04,646.45,646.75,640.15
2124,30.00,647.05,646.85,640.15
2133,29.96,647.55,647.05,640.15
2142,29.89,647.85,647.15,640.05
2151,29.85,647.95,647.15,639.95
2160,29.82,647.95,647.05,639.95
2169,29.77,647.95,646.95,639.85
2178,29.72,647.85,647.05,639.85
2187,29.68,647.75,647.05,639.75
2196,29.66,647.55,646.85,639.55
2205,29.61,647.35,646.75,639.55
2214,29.56,647.15,646.65,639.55
2223,29.56,646.95,646.55,639.45
2232,29.53,646.65,646.45,639.35
2241,29.47,646.25,646.25,639.25
2250,29.48,645.85,646.05,639.15
2259,29.43,645.65,645.95,639.15
2268,29.41,645.45,645.75,638.95
2277,29.39,645.15,645.65,638.85
2286,29.33,644.85,645.45,638.75
2295,29.33,644.65,645.25,638.65
2304,29.32,644.35,645.05,638.55
2313,29.27,644.15,645.05,638.55
2322,29.28,643.95,644.85,638.55
2331,29.24,643.75,644.75,638.45
2340,29.23,643.55,644.55,638.35
2349,29.24,643.35,644.45,638.35
2358,29.19,643.25,644.35,638.25
2367,29.16,643.05,644.35,638.35
2376,29.15,642.85,644.05,638.25
2385,29.12,642.75,643.95,638.25
2394,29.10,642.65,643.95,638.15
2403,29.06,642.45,643.85,638.05
2412,29.07,642.35,643.85,638.05
2421,29.06,642.25,643.65,637.95
2430,29.05,642.15,643.45,637.95
2439,29.01,642.05,643.45,637.95
2448,29.00,641.95,643.35,637.95
2457,29.00,641.85,643.25,637.95
2466,28.98,641.85,643.15,638.05
2475,28.94,641.65,643.15,637.95
2484,28.95,641.65,643.15,637.85
2493,28.91,641.65,643.15,637.95
2494,28.94,641.55,643.05,637.95

File: TIFP+UCT_Gasification_hor_perpendicular_60kW_R1.csv
Time (s),Mass (g),TC back 1 (K),TC back 2 (K),TC back 3 (K)
0,107.54,291.95,293.05,292.15
5,107.37,292.15,294.25,292.45
10,107.16,292.65,295.75,292.95
15,106.78,293.05,297.05,293.45
20,106.68,293.45,298.15,293.95
25,105.68,293.95,299.45,294.55
30,104.87,294.45,300.45,295.05
35,104.34,294.95,301.55,295.45
40,103.78,295.65,302.75,296.05
45,103.11,296.25,303.85,296.55
50,102.44,296.85,304.95,297.05
55,101.77,297.75,306.25,297.75
60,101.47,298.65,307.45,298.55
65,100.84,299.75,308.65,299.45
70,100.34,301.25,310.25,300.55
75,99.84,302.85,311.85,301.75
80,99.58,304.65,313.65,303.15
85,99.10,307.05,315.75,304.95
90,98.56,309.35,317.85,306.85
95,98.09,311.85,320.25,308.85
100,97.71,314.85,323.05,311.45
105,97.35,317.75,325.95,313.85
110,96.90,320.65,328.75,316.35
115,96.43,324.15,331.95,319.35
120,96.13,327.35,334.95,322.15
125,95.77,330.65,337.95,324.85
130,95.42,334.25,341.35,328.05
135,94.63,337.55,344.35,331.15
140,94.28,340.85,347.35,334.05
145,93.89,344.75,350.75,337.35
150,93.63,348.35,353.85,340.35
155,93.00,351.75,356.85,343.15
160,92.71,355.15,360.05,346.35
165,92.51,357.95,362.75,349.15
170,92.01,360.75,365.35,351.75
175,91.48,363.75,368.15,354.65
180,91.17,366.15,370.55,357.05
185,90.69,368.25,372.75,359.35
190,90.34,370.45,374.95,361.75
195,89.87,372.45,376.85,363.75
200,89.50,374.05,378.45,365.75
205,89.10,375.35,380.05,367.65
210,88.60,376.15,381.15,369.25
215,88.32,376.75,382.15,370.75
220,87.81,377.45,382.95,372.05
225,87.34,378.25,383.85,373.15
230,87.11,379.75,384.65,374.05
235,86.49,380.55,385.55,374.65
240,86.24,381.15,386.15,374.95
245,85.75,381.75,386.85,375.35
250,85.39,382.35,387.85,375.45
255,84.98,382.95,388.75,375.65
260,84.51,383.45,389.55,375.85
265,84.06,384.05,390.55,376.15
270,83.80,384.45,391.55,376.25
275,83.39,385.05,392.15,376.55
280,82.96,385.55,392.85,376.65
285,82.49,386.05,393.45,376.85
290,82.12,386.65,393.95,377.15
295,81.80,387.15,394.65,377.35
300,81.30,387.65,395.15,377.55
305,80.95,388.15,395.65,377.75
310,80.48,388.75,396.25,378.05
315,80.23,389.25,396.75,378.25
320,79.86,389.75,397.35,378.45
325,79.44,390.35,397.95,378.65
330,79.21,390.85,398.45,378.85
335,78.64,391.35,398.95,379.05
340,78.36,391.95,399.55,379.25
345,78.00,392.45,400.15,379.55
350,77.65,392.95,400.75,379.75
355,77.28,393.65,401.45,379.95
360,76.91,394.15,402.05,380.15
365,76.45,394.75,402.65,380.25
370,76.12,395.35,403.45,380.55
375,75.80,395.95,404.05,380.75
380,75.34,396.55,404.75,380.95
385,75.05,397.25,405.55,381.15
390,74.76,397.95,406.25,381.35
395,74.35,398.65,406.95,381.55
400,74.02,399.45,407.65,381.75
405,73.70,400.15,408.45,382.05
410,73.24,400.85,409.15,382.25
415,72.98,401.75,410.05,382.45
420,72.59,402.45,410.85,382.75
425,72.25,403.35,411.65,382.95
430,71.90,404.35,412.55,383.25
435,71.61,405.25,413.45,383.55
440,71.28,406.15,414.45,383.85
445,70.87,407.25,415.65,384.25
450,70.54,408.35,416.75,384.65
455,70.14,409.45,417.95,384.95
460,69.83,410.65,419.35,385.35
465,69.41,411.85,420.65,385.95
470,69.09,413.05,422.05,386.55
475,68.76,414.55,423.75,387.15
480,68.42,415.85,425.35,387.95
485,68.07,417.25,427.05,388.75
490,67.71,418.95,429.05,389.85
495,67.32,420.45,430.95,390.95
500,66.92,422.05,432.85,391.95
505,66.56,423.95,434.95,393.45
510,66.26,425.75,436.85,394.85
515,65.85,427.45,438.85,396.35
520,65.53,429.55,441.15,397.95
525,65.13,431.45,443.25,399.65
530,64.84,433.45,445.25,401.35
535,64.50,435.65,447.65,403.05
540,64.07,437.75,449.85,404.75
545,63.73,439.75,452.05,406.55
550,63.36,442.15,454.75,408.55
555,63.08,444.35,456.95,410.25
560,62.66,446.45,459.55,412.05
565,62.28,448.85,462.75,413.95
570,61.94,451.05,465.85,415.75
575,61.57,453.25,469.05,417.45
580,61.27,455.75,472.25,419.55
585,60.82,458.05,474.95,421.45
590,60.50,460.25,477.55,423.35
595,60.07,462.95,480.55,425.55
600,59.71,465.15,483.15,427.55
605,59.34,467.45,485.65,429.65
610,59.02,470.15,488.55,431.95
615,58.63,472.45,491.15,434.05
620,58.21,474.75,493.65,436.25
625,57.88,477.35,496.35,438.75
630,57.55,479.75,498.85,441.05
635,57.14,482.05,501.35,443.25
640,56.71,484.55,504.15,445.85
645,56.33,486.95,506.55,448.15
650,56.01,489.25,508.95,450.45
655,55.57,491.85,511.65,453.15
660,55.19,494.15,513.95,455.45
665,54.70,496.45,516.35,457.95
670,54.40,499.15,518.95,460.55
675,54.04,501.55,521.25,462.95
680,53.64,503.85,523.55,465.35
685,53.24,506.55,526.05,468.05
690,52.88,508.75,528.35,470.45
695,52.46,510.95,530.65,472.85
700,52.07,513.45,533.15,475.55
705,51.67,515.65,535.35,477.85
710,51.26,517.85,537.55,480.25
715,50.87,520.35,540.05,482.95
720,50.46,522.55,542.25,485.25
725,50.04,524.75,544.45,487.65
730,49.62,527.15,546.85,490.25
735,49.22,529.25,549.05,492.55
740,48.82,531.35,551.15,494.85
745,48.42,533.75,553.55,497.45
750,48.00,535.85,555.75,499.75
755,47.56,537.85,557.85,501.95
760,47.14,540.15,560.35,504.65
765,46.70,542.15,562.45,506.85
770,46.32,544.15,564.65,509.15
775,45.91,546.35,566.95,511.55
780,45.48,548.35,569.05,513.75
785,45.05,550.35,571.15,515.95
790,44.63,552.55,573.45,518.35
795,44.19,554.65,575.55,520.85
800,43.74,556.55,577.55,523.35
805,43.35,558.85,579.95,525.85
810,42.93,560.75,581.95,527.95
815,42.51,562.75,583.95,530.15
820,42.06,564.95,586.25,532.55
825,41.64,566.95,588.35,534.65
830,41.19,568.95,590.45,536.75
835,40.77,571.05,592.75,539.05
840,40.31,572.95,594.75,541.15
845,39.91,574.85,596.85,543.25
850,39.48,576.95,599.35,545.55
855,39.10,578.85,601.45,547.55
860,38.65,580.65,603.55,549.55
865,38.22,582.75,605.95,551.95
870,37.80,584.55,608.05,554.05
875,37.38,586.45,610.15,556.15
880,36.96,588.55,612.65,558.65
885,36.56,590.45,614.85,560.85
890,36.12,592.25,616.95,563.15
895,35.68,594.35,619.45,565.75
900,35.27,596.25,621.55,568.05
905,34.88,598.25,623.75,570.35
910,34.43,600.45,626.25,572.95
915,34.04,602.45,628.45,575.25
920,33.66,604.45,630.65,577.45
925,33.23,606.65,633.05,580.05
930,32.84,608.55,635.35,582.35
935,32.47,610.45,637.65,584.55
940,32.05,612.55,640.25,587.15
945,31.67,614.35,642.65,589.45
950,31.31,616.15,645.15,591.75
955,30.94,618.25,648.05,594.35
960,30.52,620.05,650.65,596.65
965,30.16,621.85,653.35,598.85
970,29.77,623.95,656.35,601.35
975,29.43,625.85,658.85,603.65
980,29.07,627.75,661.45,605.75
985,28.70,629.95,664.15,608.25
990,28.39,631.95,666.55,610.35
995,28.05,633.95,669.15,612.55
1000,27.70,636.25,672.15,615.05
1005,27.40,638.35,674.75,617.25
1010,27.08,640.65,677.45,619.55
1015,26.75,643.25,680.65,622.15
1020,26.45,645.85,683.65,624.55
1025,26.16,648.65,686.75,626.95
1030,25.85,652.25,690.25,629.85
1035,25.55,655.55,693.75,632.55
1040,25.28,659.45,697.15,635.35
1045,24.97,664.25,700.95,638.65
1050,24.69,669.05,704.75,641.75
1055,24.44,674.35,708.55,644.95
1060,24.15,681.15,712.65,648.65
1065,23.95,687.45,716.65,652.25
1070,23.70,693.75,720.05,655.85
1075,23.49,700.45,723.75,659.95
1080,23.25,705.95,727.05,663.85
1085,23.10,711.05,730.25,667.85
1090,22.88,716.35,733.75,672.95
1095,22.75,720.95,737.05,677.55
1100,22.59,725.15,740.15,682.85
1105,22.44,729.55,743.65,689.65
1110,22.32,733.45,746.75,696.55
1115,22.21,737.65,749.95,704.55
1120,22.14,742.75,753.25,715.15
1125,22.01,747.45,756.25,726.05
1130,21.96,751.95,759.15,737.95
1135,21.84,757.05,762.25,750.65
1140,21.80,761.55,764.85,756.55
1145,21.74,764.45,766.85,758.15
1150,21.72,768.15,768.55,759.95
1155,21.70,770.75,770.15,761.55
1160,21.62,772.95,771.65,763.35
1165,21.60,775.45,773.15,765.45
1170,21.59,777.75,774.45,767.25
1175,21.56,779.55,775.75,769.25
1180,21.52,781.85,777.15,771.15
1185,21.49,783.95,778.25,772.85
1190,21.48,785.85,779.15,774.55
1195,21.46,787.85,780.65,776.45
1200,21.43,789.45,781.75,778.15

File: TIFP+UCT_Gasification_hor_perpendicular_60kW_R3.csv
Time (s),Mass (g),TC back 1 (K),TC back 2 (K),TC back 3 (K)
0,105.16,294.75,296.15,293.45
5,104.33,295.05,298.35,293.75
10,104.39,295.55,300.45,294.15
15,103.81,296.05,302.25,294.55
20,103.26,296.55,303.75,294.95
25,102.76,297.05,304.75,295.35
30,102.14,297.65,305.75,295.75
35,101.38,298.15,306.85,296.15
40,100.64,298.65,308.15,296.65
45,99.98,299.45,308.95,297.15
50,99.44,300.05,310.35,297.65
55,98.85,300.85,311.45,298.25
60,98.20,301.85,313.05,299.15
65,97.55,302.95,314.65,300.05
70,97.19,304.15,316.05,301.15
75,96.79,305.85,318.25,302.65
80,96.27,307.45,320.65,304.25
85,95.86,309.45,323.15,306.05
90,95.34,311.95,326.35,308.35
95,94.89,314.45,329.35,310.65
100,94.46,317.25,332.45,313.25
105,94.09,320.45,336.05,316.25
110,93.57,323.55,339.45,319.15
115,93.15,326.65,342.75,322.15
120,92.66,330.15,346.65,325.65
125,92.30,333.25,350.15,328.65
130,91.79,336.25,353.65,331.65
135,91.62,339.65,357.75,335.05
140,91.12,342.75,361.05,338.05
145,90.75,345.75,364.55,340.95
150,90.29,349.05,368.15,344.25
155,89.95,351.95,371.55,347.05
160,89.61,354.65,374.25,349.85
165,89.05,357.65,377.45,352.95
170,88.74,360.15,380.15,355.55
175,88.46,362.55,382.45,358.05
180,87.81,365.05,384.85,360.65
185,87.50,367.15,386.45,362.95
190,87.13,369.15,387.75,367.45
195,86.77,371.25,388.75,371.35
200,86.25,373.05,389.55,372.25
205,85.98,374.75,390.25,372.65
210,85.60,376.25,391.05,372.95
215,85.35,377.35,391.45,373.15
220,84.88,378.05,392.05,373.35
225,84.53,378.65,392.65,373.85
230,84.07,379.15,393.35,375.85
235,83.82,379.45,393.75,376.65
240,83.37,379.85,394.35,377.15
245,82.97,380.15,395.15,377.45
250,82.59,380.45,395.65,377.55
255,82.14,380.85,396.65,377.85
260,81.95,381.05,397.45,378.05
265,81.56,381.35,398.25,378.15
270,81.12,381.75,399.25,378.35
275,80.76,382.05,399.75,378.55
280,80.38,382.35,400.45,378.75
285,79.93,382.65,400.95,378.95
290,79.63,382.95,401.45,379.15
295,79.37,383.25,402.25,379.25
300,78.99,383.55,403.25,379.55
305,78.72,383.95,403.55,379.75
310,78.35,384.25,404.35,379.95
315,77.97,384.55,405.25,380.05
320,77.58,384.85,405.95,380.25
325,77.41,385.15,406.65,380.45
330,77.11,385.55,407.45,380.65
335,76.76,385.85,407.85,380.85
340,76.33,386.25,407.45,380.95
345,75.98,386.65,407.65,381.25
350,75.70,386.95,408.15,381.45
355,75.31,387.35,408.35,381.65
360,74.97,387.75,408.85,381.85
365,74.56,388.15,409.95,382.05
370,74.36,388.55,410.45,382.25
375,74.14,389.05,411.35,382.55
380,73.39,389.45,411.55,382.75
385,73.37,389.85,412.65,383.05
390,73.01,390.35,413.55,383.35
395,72.80,390.75,414.45,383.55
400,72.36,391.15,415.35,383.75
405,72.11,391.65,416.85,384.15
410,71.80,392.15,417.95,384.35
415,71.41,392.65,419.05,384.65
420,70.98,393.25,420.05,385.05
425,70.87,393.85,421.75,385.35
430,70.41,394.35,423.05,385.75
435,70.22,395.05,424.65,386.15
440,69.85,395.65,426.35,386.55
445,69.57,396.35,427.85,386.95
450,69.19,397.25,430.05,387.45
455,68.90,397.95,431.45,387.85
460,68.57,398.85,433.25,388.35
465,68.25,399.75,435.55,388.95
470,68.00,400.65,437.35,389.45
475,67.75,401.65,439.25,389.95
480,67.03,402.65,441.85,390.65
485,66.91,403.75,443.95,391.25
490,66.67,404.95,445.95,391.95
495,66.35,406.35,448.75,392.75
500,66.26,407.65,450.85,393.45
505,65.73,409.05,453.55,394.15
510,65.48,410.65,456.15,395.05
515,65.10,412.25,458.25,395.95
520,64.76,413.85,460.75,396.85
525,64.54,415.75,463.35,397.95
530,64.13,417.55,466.05,398.95
535,63.78,419.55,468.45,399.95
540,63.64,421.75,471.25,401.25
545,63.23,423.75,474.15,402.35
550,62.90,425.85,476.45,403.45
555,62.61,427.65,479.55,404.95
560,62.25,429.85,482.05,406.25
565,61.92,432.05,484.55,407.55
570,61.69,434.45,487.45,409.15
575,61.23,436.65,490.05,410.65
580,61.00,438.85,492.55,412.15
585,60.69,441.35,495.55,413.85
590,60.38,443.55,497.85,415.55
595,60.00,445.75,500.45,417.25
600,59.74,448.35,503.35,419.25
605,59.36,450.65,505.85,421.15
610,59.01,452.85,508.15,423.25
615,58.64,455.35,510.75,425.45
620,58.37,457.65,513.15,427.55
625,57.96,459.95,515.55,429.75
630,57.91,462.45,518.05,432.25
635,57.31,464.75,520.95,434.55
640,57.03,466.95,522.95,436.95
645,56.62,469.55,525.25,439.75
650,56.32,471.85,527.85,442.25
655,55.91,474.05,530.55,447.25
660,55.59,476.45,533.25,450.15
665,55.26,478.65,535.65,452.55
670,54.93,480.85,537.95,454.95
675,54.47,483.35,540.65,457.65
680,54.26,485.45,543.15,460.15
685,53.81,487.65,545.05,462.55
690,53.48,490.05,547.85,465.35
695,53.14,492.15,549.95,467.85
700,52.73,494.25,552.25,470.45
705,52.42,496.65,555.05,473.25
710,52.07,498.75,556.85,475.65
715,51.70,500.85,558.45,478.25
720,51.30,503.15,561.05,481.05
725,50.96,505.25,563.65,483.45
730,50.52,507.25,566.05,485.95
735,50.22,509.55,568.25,488.75
740,49.83,511.55,570.25,491.15
745,49.43,513.55,572.25,493.65
750,49.05,515.75,574.85,496.45
755,48.66,517.65,577.35,498.95
760,48.26,519.65,579.15,501.35
765,47.90,521.85,581.75,504.05
770,47.40,523.75,583.75,506.45
775,47.06,525.85,585.95,508.85
780,46.68,528.05,588.05,511.45
785,46.25,529.95,589.95,513.75
790,45.87,531.95,591.95,516.15
795,45.47,534.25,594.65,518.75
800,45.05,536.25,596.55,521.05
805,44.68,538.25,598.65,523.35
810,44.26,540.65,601.05,526.05
815,43.82,542.65,602.85,528.35
820,43.41,544.65,604.85,530.55
825,43.08,547.05,606.95,533.15
830,42.58,549.15,608.95,535.45
835,42.15,551.15,611.05,537.65
840,41.79,553.55,613.25,540.15
845,41.35,555.65,615.25,542.35
850,40.97,557.75,617.35,544.55
855,40.59,560.25,619.45,547.05
860,40.07,562.35,621.55,549.35
865,39.64,564.55,623.65,551.65
870,39.23,567.05,625.65,554.25
875,38.79,569.25,627.95,556.75
880,38.37,571.35,629.85,559.15
885,37.94,573.85,631.95,561.85
890,37.50,576.05,634.15,564.35
895,37.07,578.25,636.15,566.85
900,36.67,580.75,638.45,569.55
905,36.20,582.95,640.45,571.95
910,35.82,585.25,642.25,574.35
915,35.53,587.75,644.85,577.15
920,34.93,590.05,646.85,579.65
925,34.53,592.25,648.45,582.05
930,34.08,594.55,650.95,584.75
935,33.70,596.65,652.95,587.15
940,33.26,598.65,655.15,589.45
945,32.85,600.95,657.75,592.05
950,32.46,602.95,660.25,594.35
955,32.06,604.95,662.15,596.65
960,31.62,607.45,665.15,599.35
965,31.19,609.65,667.65,601.65
970,30.82,611.85,670.05,603.85
975,30.42,614.35,673.85,606.25
980,30.00,616.45,677.75,608.35
985,29.62,618.55,681.45,610.45
990,29.20,620.75,685.75,612.85
995,28.88,622.75,689.35,614.85
1000,28.49,624.75,692.35,616.95
1005,28.15,627.05,695.15,619.15
1010,27.82,629.05,697.95,621.15
1015,27.45,631.15,700.05,623.15
1020,27.11,633.55,702.45,625.45
1025,26.82,635.85,704.55,627.65
1030,26.50,638.25,706.25,629.85
1035,26.16,641.45,708.75,632.45
1040,25.88,644.65,710.55,634.85
1045,25.53,648.55,712.95,637.35
1050,25.28,655.45,715.65,640.35
1055,25.03,661.65,717.95,643.15
1060,24.74,668.35,720.35,646.25
1065,24.53,676.95,723.25,650.05
1070,24.23,685.45,725.65,653.55
1075,23.99,694.35,728.05,657.65
1080,23.81,703.75,730.75,662.85
1085,23.59,712.05,733.15,668.25
1090,23.40,719.75,735.65,674.15
1095,23.21,727.85,738.55,681.85
1100,23.06,734.75,741.15,689.85
1105,22.85,741.35,743.85,699.05
1110,22.69,748.85,746.95,711.85
1115,22.57,755.35,749.55,725.85
1120,22.45,761.85,752.55,743.55
1125,22.38,769.15,755.95,763.65
1130,22.26,773.15,758.25,772.15
1135,22.18,776.05,760.05,774.35
1140,22.12,778.75,761.95,775.75
1145,22.08,781.15,763.45,777.25
1150,22.05,783.15,765.15,779.05
1155,21.97,785.35,766.75,781.15
1160,21.94,787.35,768.05,783.45
1165,21.88,789.15,769.45,785.75
1170,21.84,791.25,770.95,788.05
1175,21.78,792.95,772.25,790.05
1180,21.71,794.75,773.45,791.85
1185,21.73,796.45,774.85,793.85
1190,21.66,797.95,776.05,795.65
1195,21.61,799.35,777.15,797.25
1200,21.58,800.75,778.35,799.15