Folder: matl-db/Wood/Calibration_Data/TIFP+UCT

Note: Wood/Calibration_Data/TIFP+UCT/README.md
# README File for TIFP+UCT
Technical Institute of Fire Protection, Prague (TIFP) and University of Chemistry and Technology, Prague (UCT).
Please contact Lucie.Hasalova@hzscr.cz or salekv@vscht.cz in case of any concerns.

### Experimental Conditions: TGA/DSC
A NETZSCH STA 449 F3 Jupiter was used to simultaneously conduct Thermogravimetric Analysis (TGA) and Differential Scanning Calorimetry (DSC) experiments. DSC data serve as suplementary only and are not suitable for calibration.

* Heating Rate: 5, 10, and 20 K/min
* Temperature program
  - Initial Temperature: 303 K
  - Initial Isotherm: 300 s (hold at 303 K for 300 s)  
  - Maximum Temperature: 973 K
  - Final Isotherm: 300 s (hold at 973 K for 300 s)
* Sample mass: 5 mg +/- 0.20 mg
* Sample geometry: Powdered
* Calibration type: For each heating rate, a single baseline test was performed using an empty crucible. Temperature/Heat flow calibration for each heating rate were performed prior to MaCFP measurements using a set of 5 reference materials (In, Bi, Zn, Al, Ag) with melting temperatures between 429-1225 K. For more accurate DSC measurements, baseline (blank) measurements would have to be performed before each individual run and the heat flow rate (W/g) would need to be recalculated for the actual, not the initial sample mass.
* Crucible
  - Type: Al2O3
  - Volume: 85 uL
  - Diameter: 9 mm
  - Mass: 132-139 mg
  - Lid: False
  - Note: NETZSCH Al2O3 crucibles were used (part ID NGB800453). For more accurate DSC measurements, Concavus crucibles would be required. 
* Carrier Gas
  - Type: Nitrogen
  - Flow rate: 50 ml/min (50 mL/min purge, 20 mL/min protective - no contact with the sample)
  - Note: Ultra High Purity (UHP) Nitrogen
* Instrument
  - Type: NETZSCH STA 449 F3 Jupiter
  - Furnace Type: Steel
  - Notes: None

| Test Name | O2 volume % | Initial Sample Mass (mg) |
| --------- | :---------: | :----------------------: |
|TIFP+UCT\_STA\_N2\_5K\_R1 | 0 | 4.930|  
|TIFP+UCT\_STA\_N2\_5K\_R2 | 0 | 5.077|  
|TIFP+UCT\_STA\_N2\_5K\_R3 | 0 | 5.107|  
|TIFP+UCT\_STA\_N2\_5K\_R4 | 0 | 5.088| 
|TIFP+UCT\_STA\_N2\_10K\_R1 | 0 | 5.196|  
|TIFP+UCT\_STA\_N2\_10K\_R2 | 0 | 4.952| 
|TIFP+UCT\_STA\_N2\_10K\_R3 | 0 | 5.139| 
|TIFP+UCT\_STA\_N2\_20K\_R1 | 0 | 5.023| 
|TIFP+UCT\_STA\_N2\_20K\_R2 | 0 | 5.112| 
|TIFP+UCT\_STA\_N2\_20K\_R3 | 0 | 4.917| 

* Note
  - The first and second two measurements at heating rate of 5 K/min were taken on a different day. The difference in TGA data may be caused by different humidity levels. MLR data in the main part of thermal decomposition which are used for calibration are not affected.

### Experimental Conditions: Cone calorimeter with controlled atmosphere

* Test Standard: ISO/TS 5660-5:2020
* Extraction flow rate: 24L/s
* Sample Surface Area: 0.01 m2 (nominal)
* Sample holder dimensions:
    - Square pan: 106mm x 106mm x 25mm
    - Retainer frame: None
    - Retaining grid: None
* Backing Insulation: 2.3 cm thick layer of Dalfratherm 1260 Hybrid Blanket. D

File: TIFP+UCT_Gasification_hor_parallel_30kW_R1.csv
Time (s),Mass (g),TC back 1 (K),TC back 2 (K),TC back 3 (K)
0,92.16,298.65,297.65,298.35
12,91.24,299.75,297.85,299.15
24,90.89,300.75,298.15,300.15
36,90.51,301.95,298.55,301.25
48,90.05,303.15,298.95,302.35
60,89.62,304.35,299.45,303.45
72,89.19,305.55,300.05,304.65
84,88.72,306.85,300.65,305.85
96,88.27,308.15,301.25,307.15
108,87.88,309.65,302.05,308.35
120,87.53,311.15,302.85,309.65
132,87.21,312.65,303.65,311.05
144,86.86,314.35,304.65,312.55
156,86.54,316.05,305.65,314.05
168,86.23,317.95,306.75,315.55
180,85.91,319.85,307.95,317.25
192,85.62,321.75,309.25,318.95
204,85.35,323.85,310.65,320.75
216,85.06,325.95,312.15,322.65
228,84.80,328.15,313.75,324.55
240,84.52,330.45,315.35,326.55
252,84.25,332.65,317.05,328.65
264,83.99,334.95,318.95,330.85
276,83.74,337.35,320.75,332.95
288,83.48,339.75,322.75,335.15
300,83.22,342.05,324.75,337.35
312,82.95,344.45,326.75,339.55
324,82.68,346.85,328.85,341.85
336,82.42,349.15,330.95,344.05
348,82.17,351.45,333.15,346.25
360,81.90,353.75,335.25,348.45
372,81.64,355.95,337.45,350.65
384,81.39,358.15,339.65,352.75
396,81.13,360.25,341.95,354.85
408,80.87,362.35,344.15,356.95
420,80.61,364.25,346.45,358.95
432,80.35,366.15,348.65,360.95
444,80.09,367.85,350.95,362.85
456,79.82,369.65,353.25,364.75
468,79.58,371.25,355.45,366.45
480,79.33,372.85,357.75,368.15
492,79.07,374.35,359.95,369.85
504,78.81,375.75,362.15,371.45
516,78.56,377.25,364.35,372.95
528,78.31,378.65,366.45,374.35
540,78.05,379.85,368.55,375.75
552,77.81,381.15,370.55,377.15
564,77.57,382.35,372.45,378.45
576,77.31,383.55,374.15,379.65
588,77.03,384.65,375.35,380.85
600,76.78,385.55,376.55,381.85
612,76.53,386.35,377.65,382.85
624,76.27,387.25,378.65,383.85
636,76.01,388.05,379.55,384.75
648,75.75,388.75,380.35,385.65
660,75.52,389.55,381.15,386.55
672,75.28,390.35,381.85,387.35
684,75.01,391.05,382.55,388.05
696,74.77,391.75,383.15,388.85
708,74.51,392.45,383.75,389.55
720,74.27,393.15,384.35,390.25
732,74.04,393.85,384.95,390.95
744,73.81,394.65,385.45,391.65
756,73.56,395.35,386.05,392.35
768,73.32,396.15,386.65,393.05
780,73.09,396.85,387.15,393.75
792,72.84,397.55,387.75,394.45
804,72.60,398.35,388.25,395.15
816,72.38,399.05,388.85,395.85
828,72.15,399.75,389.35,396.55
840,71.93,400.55,389.95,397.25
852,71.69,401.35,390.45,397.95
864,71.46,402.15,391.05,398.65
876,71.24,402.95,391.65,399.45
888,71.02,403.85,392.25,400.15
900,70.79,404.65,392.85,400.95
912,70.57,405.55,393.45,401.75
924,70.36,406.45,394.05,402.55
936,70.13,407.45,394.65,403.35
948,69.93,408.35,395.35,404.25
960,69.71,409.35,395.95,405.15
972,69.48,410.35,396.55,406.05
984,69.28,411.25,397.25,407.05
996,69.06,412.25,397.95,407.95
1008,68.85,413.35,398.65,408.95
1020,68.65,414.45,399.35,409.95
1032,68.44,415.55,400.05,411.05
1044,68.23,416.65,400.85,412.15
1056,68.01,417.85,401.65,413.25
1068,67.81,418.95,402.45,414.35
1080,67.59,420.25,403.35,415.55
1092,67.39,421.45,404.25,416.75
1104,67.19,422.85,405.15,418.05
1116,66.97,424.15,406.15,419.35
1128,66.78,425.55,407.15,420.65
1140,66.57,426.95,408.25,422.05
1152,66.37,428.35,409.25,423.45
1164,66.16,429.85,410.45,424.95
1176,65.95,431.35,411.65,426.45
1188,65.75,432.95,412.85,428.05
1200,65.53,434.45,414.05,429.65
1212,65.34,436.05,415.35,431.25
1224,65.13,437.65,416.85,432.85
1236,64.93,439.35,418.25,434.55
1248,64.72,440.95,419.75,436.25
1260,64.53,442.65,421.25,437.85
1272,64.32,444.35,422.95,439.65
1284,64.11,446.05,424.65,441.45
1296,63.91,447.85,426.45,443.15
1308,63.71,449.55,428.15,444.85
1320,63.52,451.25,430.05,446.65
1332,63.31,453.05,431.95,448.45
1344,63.10,454.75,433.85,450.25
1356,62.90,456.55,435.85,452.05
1368,62.68,458.25,437.85,453.85
1380,62.47,459.95,439.85,455.65
1392,62.27,461.65,441.85,457.35
1404,62.06,463.35,443.95,459.15
1416,61.86,465.05,446.05,460.85
1428,61.65,466.75,448.05,462.65
1440,61.44,468.45,450.15,464.35
1452,61.22,470.15,452.25,466.05
1464,60.99,471.75,454.25,467.75
1476,60.78,473.45,456.35,469.35
1488,60.56,475.05,458.45,471.05
1500,60.34,476.65,460.35,472.75
1512,60.12,478.25,462.35,474.35
1524,59.89,479.85,464.35,475.95
1536,59.66,481.45,466.25,477.55
1548,59.42,483.05,468.15,479.15
1560,59.18,484.65,470.05,480.75
1572,58.94,486.15,471.95,482.35
1584,58.70,487.65,473.75,483.85
1596,58.46,489.15,475.55,485.45
1608,58.21,490.75,477.35,486.95
1620,57.96,492.25,479.15,488.45
1632,57.69,493.75,480.95,490.05
1644,57.43,495.25,482.75,491.55
1656,57.19,496.75,484.45,493.15
1668,56.93,498.25,486.25,494.55
1680,56.67,499.65,488.05,496.15
1692,56.41,501.15,489.75,497.65
1704,56.16,502.55,491.55,499.15
1716,55.89,504.05,493.25,500.65
1728,55.63,505.55,495.05,502.05
1740,55.33,506.95,496.75,503.55
1752,55.07,508.45,498.45,505.05
1764,54.79,509.85,500.25,506.55
1776,54.51,511.25,501.95,507.95
1788,54.03,512.65,503.75,509.45
1800,53.74,514.05,505.45,510.85
1812,53.46,515.45,507.15,512.35
1824,53.15,516.85,508.85,513.75
1836,52.85,518.15,510.55,515.15
1848,52.56,519.65,512.35,516.55
1860,52.26,521.05,514.05,517.95
1872,51.95,522.35,515.75,519.35
1884,51.65,523.75,517.45,520.75
1896,51.34,525.15,519.15,522.25
1908,51.02,526.55,520.75,523.55
1920,50.73,527.95,522.55,524.95
1932,50.42,529.35,524.25,526.35
1944,50.13,530.65,525.85,527.75
1956,49.83,532.05,527.65,529.15
1968,49.53,533.45,529.25,530.55
1980,49.21,534.75,530.95,531.95
1992,48.89,536.15,532.65,533.35
2004,48.57,537.45,534.35,534.65
2016,48.25,538.85,536.05,536.05
2028,47.92,540.15,537.75,537.35
2040,47.60,541.55,539.35,538.75
2052,47.28,542.85,541.05,540.05
2064,46.94,544.25,542.75,541.45
2076,46.59,545.55,544.35,542.75
2088,46.26,546.95,546.05,544.05
2100,45.93,548.25,547.65,545.35
2112,45.60,549.55,549.35,546.65
2124,45.26,550.85,550.95,547.95
2136,44.93,552.15,552.55,549.25
2148,44.59,553.45,554.15,550.45
2160,44.26,554.85,555.65,551.75
2172,43.91,556.15,557.15,552.85
2184,43.60,557.45,558.75,554.05
2196,43.26,558.75,560.25,555.25
2208,42.92,560.05,561.65,556.35
2220,42.57,561.35,563.15,557.55
2232,42.24,562.65,564.55,558.65
2244,41.93,563.85,565.95,559.65
2256,41.59,565.15,567.25,560.75
2268,41.27,566.35,568.55,561.85
2280,40.98,567.45,569.75,562.85
2292,40.69,568.55,570.95,563.85
2304,40.38,569.65,572.05,564.85
2316,40.08,570.65,573.15,565.85
2328,39.79,571.75,574.25,566.75
2340,39.50,572.65,575.35,567.75
2352,39.20,573.65,576.35,568.65
2364,38.93,574.55,577.35,569.55
2376,38.68,575.45,578.35,570.45
2388,38.40,576.35,579.35,571.35
2400,38.14,577.25,580.25,572.15
2412,37.89,578.05,581.25,573.05
2424,37.65,578.85,582.15,573.85
2436,36.92,579.55,583.05,574.65
2448,36.64,580.35,583.95,575.55
2460,36.36,581.15,584.85,576.35
2472,36.10,581.85,585.65,577.05
2484,35.84,582.65,586.55,577.85
2496,35.58,583.35,587.25,578.55
2508,35.33,584.15,588.05,579.25
2520,35.08,584.85,588.85,580.05
2532,34.83,585.55,589.55,580.65
2544,34.60,586.25,590.25,581.35
2556,34.35,587.05,590.95,581.95
2568,34.11,587.65,591.55,582.55
2580,33.89,588.35,592.15,583.15
2592,33.66,588.95,592.85,583.65
2604,33.43,589.65,593.45,584.25
2616,33.21,590.25,594.05,584.75
2628,32.99,590.85,594.55,585.35
2640,32.78,591.45,595.15,585.85
2652,32.57,592.05,595.75,586.35
2664,32.37,592.65,596.25,586.85
2676,32.17,593.25,596.85,587.35
2688,31.96,593.75,597.35,587.95
2700,31.76,594.25,597.85,588.35
2712,31.58,594.75,598.35,588.85
2724,31.39,595.25,598.85,589.35
2736,31.20,595.75,599.35,589.85
2748,31.02,596.25,599.85,590.35
2760,30.85,596.75,600.35,590.85
2772,30.68,597.15,600.85,591.35
2784,30.51,597.65,601.25,591.75
2796,30.35,598.15,601.75,592.25
2808,30.19,598.55,602.15,592.75
2820,30.04,599.05,602.55,593.25
2832,29.88,599.45,603.05,593.65
2844,29.74,599.95,603.45,594.15
2856,29.59,600.45,603.85,594.55
2868,29.46,600.85,604.15,595.05
2880,29.34,601.25,604.55,595.45
2892,29.21,601.65,604.95,595.95
2904,29.09,602.15,605.25,596.35
2916,28.96,602.55,605.65,596.75
2928,28.84,602.95,605.95,597.15
2940,28.73,603.35,606.35,597.45
2952,28.62,603.75,606.65,597.85
2964,28.52,604.15,606.85,598.15
2976,28.43,604.55,607.15,598.45
2988,28.33,604.85,607.45,598.75
3000,28.24,605.25,607.75,599.05
3012,28.18,605.65,608.05,599.25
3024,28.06,605.95,608.25,599.45
3036,27.98,606.35,608.55,599.75
3048,27.89,606.65,608.75,599.95
3060,27.83,607.05,609.05,600.15
3072,27.75,607.35,609.25,600.35
3084,27.67,607.75,609.45,600.55
3096,27.60,608.05,609.75,600.75
3108,27.53,608.25,609.95,600.95
3120,27.45,608.65,610.15,601.15
3132,27.39,608.95,610.35,601.35
3144,27.33,609.25,610.55,601.55
3156,27.25,609.55,610.75,601.75
3168,27.19,609.85,610.95,601.95
3180,27.12,610.05,611.25,602.15
3192,27.07,610.35,611.35,602.25
3204,27.02,610.55,611.55,602.45
3216,26.96,610.85,611.75,602.55
3228,26.90,610.95,611.85,602.75
3240,26.85,611.25,612.05,602.85
3252,26.79,611.45,612.25,603.05
3264,26.75,611.65,612.35,603.15
3276,26.70,611.75,612.55,603.35
3288,26.66,611.95,612.75,603.45
3300,26.60,612.15,612.85,603.65
3312,26.56,612.25,612.95,603.75
3324,26.52,612.45,613.05,603.95
3336,26.48,612.55,613.15,604.15
3348,26.44,612.65,613.25,604.35
3360,26.39,612.85,613.35,604.55
3372,26.37,612.85,613.35,604.65
3384,26.32,612.95,613.45,604.75
3396,26.28,613.05,613.55,604.85
3408,26.24,613.15,613.55,604.95
3420,26.21,613.25,613.65,605.15
3432,26.17,613.35,613.65,605.25
3444,26.14,613.45,613.75,605.35
3456,26.11,613.45,613.75,605.55
3468,26.08,613.45,613.85,605.65
3480,26.05,613.55,613.85,605.85
3492,26.02,613.55,613.95,605.95
3500,25.99,613.65,613.95,606.05

File: TIFP+UCT_Gasification_hor_parallel_60kW_R1.csv
Time (s),Mass (g),TC back 1 (K),TC back 2 (K),TC back 3 (K)
0,93.67,303.45,302.15,303.15
6,93.05,304.45,302.35,304.65
12,92.49,305.75,303.25,306.75
18,91.79,307.25,304.25,309.05
24,91.11,308.95,305.25,311.35
30,90.50,310.55,306.35,313.65
36,89.94,312.15,307.45,315.95
42,89.40,313.75,308.65,318.15
48,88.86,315.35,309.65,320.45
54,88.40,316.95,310.75,322.65
60,87.91,318.55,311.85,324.85
66,87.47,320.05,312.95,327.05
72,87.02,321.65,314.05,329.15
78,86.56,323.25,315.15,331.25
84,86.12,324.85,316.25,333.35
90,85.70,326.35,317.35,335.45
96,85.27,328.05,318.35,337.55
102,84.85,329.65,319.45,339.55
108,84.44,331.25,320.55,341.65
114,84.03,332.85,321.65,343.75
120,83.64,334.55,322.75,345.85
126,83.23,336.15,323.85,347.95
132,82.84,337.95,324.95,350.05
138,82.46,339.65,326.05,352.15
144,82.07,341.45,327.25,354.25
150,81.71,343.15,328.35,356.35
156,81.33,344.95,329.55,358.45
162,80.95,346.75,330.75,360.55
168,80.59,348.45,332.05,362.65
174,80.22,350.25,333.25,364.75
180,79.86,352.05,334.55,366.85
186,79.52,353.75,335.85,368.85
192,79.16,355.45,337.15,370.85
198,78.81,357.25,338.45,372.85
204,78.47,358.95,339.85,374.85
210,78.13,360.55,341.35,376.75
216,77.79,362.15,342.75,378.65
222,77.43,363.85,344.35,380.45
228,77.10,365.35,345.85,382.15
234,76.76,366.85,347.55,383.95
240,76.42,368.35,349.25,385.75
246,76.10,369.75,350.95,387.35
252,75.78,371.15,352.75,388.95
258,75.44,372.55,354.65,390.55
264,75.12,373.75,356.55,392.25
270,74.80,375.05,358.45,393.85
276,74.47,376.25,360.45,395.55
282,74.14,377.45,362.35,397.15
288,73.83,378.75,364.35,398.75
294,73.51,379.85,366.25,400.25
300,73.19,380.95,368.05,401.75
306,72.91,382.15,369.85,403.35
312,72.59,383.15,371.55,404.85
318,72.30,384.25,373.35,406.45
324,71.96,385.25,375.65,408.05
330,71.67,386.25,377.35,409.65
336,71.36,387.25,378.75,411.15
342,71.04,388.25,380.05,412.65
348,70.73,389.15,381.25,414.05
354,70.40,390.15,382.45,415.35
360,70.10,391.05,383.55,416.75
366,69.80,392.05,384.55,418.05
372,69.49,392.85,385.45,419.35
378,69.18,393.75,386.25,420.75
384,68.86,394.65,386.95,422.05
390,68.56,395.65,387.75,423.35
396,68.27,396.55,388.45,424.65
402,67.95,397.45,389.15,426.05
408,67.66,398.35,389.85,427.35
414,67.36,399.25,390.65,428.65
420,67.05,400.15,391.35,429.95
426,66.72,401.05,392.15,431.25
432,66.44,402.05,392.95,432.55
438,66.14,402.95,393.75,433.75
444,65.84,403.85,394.55,435.15
450,65.55,404.75,395.35,436.35
456,65.24,405.75,396.15,437.65
462,64.94,406.75,396.95,438.95
468,64.63,407.65,397.85,440.25
474,64.35,408.55,398.65,441.55
480,64.05,409.45,399.55,442.85
486,63.75,410.35,400.35,444.15
492,63.46,411.25,401.25,445.45
498,63.17,412.15,402.15,446.75
504,62.86,413.05,403.05,448.05
510,62.55,413.95,403.95,449.35
516,62.26,414.85,404.85,450.55
522,61.97,415.75,405.75,451.85
528,61.67,416.65,406.55,453.25
534,61.37,417.55,407.45,454.55
540,61.09,418.45,408.35,455.85
546,60.81,419.35,409.35,457.15
552,60.51,420.25,410.25,458.55
558,60.21,421.15,411.15,459.85
564,59.92,422.05,411.95,461.15
570,59.63,422.95,412.85,462.55
576,59.33,423.95,413.85,463.95
582,59.05,424.85,414.65,465.25
588,58.76,425.85,415.55,466.65
594,58.47,426.75,416.45,468.05
600,58.19,427.75,417.35,469.45
606,57.89,428.65,418.35,470.95
612,57.60,429.65,419.15,472.35
618,57.33,430.65,420.15,473.75
624,57.02,431.65,421.15,475.25
630,56.74,432.65,422.05,476.65
636,56.46,433.65,422.95,478.15
642,56.17,434.75,423.95,479.65
648,55.88,435.75,424.85,481.15
654,55.59,436.85,425.85,482.65
660,55.30,437.85,426.85,484.25
666,55.01,439.05,427.85,485.85
672,54.73,440.05,428.85,487.45
678,54.45,441.25,429.85,489.05
684,54.17,442.35,430.95,490.65
690,53.88,443.55,431.95,492.25
696,53.60,444.65,432.95,493.95
702,53.31,445.95,433.95,495.65
708,53.02,447.05,434.95,497.35
714,52.75,448.35,436.05,499.15
720,52.45,449.65,437.15,500.85
726,52.16,450.95,438.25,502.65
732,51.87,452.25,439.35,504.45
738,51.60,453.65,440.55,506.25
744,51.31,454.95,441.65,508.15
750,51.01,456.35,442.85,509.95
756,50.73,457.75,444.05,511.85
762,50.44,459.15,445.25,513.65
768,50.15,460.65,446.45,515.55
774,49.86,462.15,447.75,517.45
780,49.58,463.65,448.95,519.35
786,49.28,465.25,450.25,521.25
792,49.00,466.75,451.55,523.25
798,48.71,468.45,452.95,525.15
804,48.42,470.05,454.25,527.15
810,48.11,471.65,455.65,529.15
816,47.82,473.35,457.15,531.15
822,47.53,475.05,458.55,533.15
828,47.24,476.85,460.05,535.25
834,46.94,478.55,461.55,537.25
840,46.65,480.35,463.05,539.25
846,46.35,482.15,464.65,541.35
852,46.06,483.95,466.25,543.35
858,45.76,485.75,467.95,545.55
864,45.44,487.55,469.65,547.55
870,45.16,489.35,471.35,549.65
876,44.86,491.25,473.15,551.75
882,44.55,493.05,474.95,553.95
888,44.26,494.95,476.65,555.95
894,43.95,496.75,478.55,558.05
900,43.64,498.65,480.45,560.25
906,43.33,500.45,482.45,562.35
912,43.02,502.35,484.45,564.55
918,42.71,504.25,486.55,566.65
924,42.39,506.15,488.55,568.75
930,42.08,508.15,490.65,570.85
936,41.78,509.95,492.85,572.95
942,41.46,511.85,494.95,575.05
948,41.14,513.65,497.15,577.05
954,40.81,515.55,499.35,579.05
960,40.49,517.45,501.55,581.15
966,40.18,519.45,503.85,583.25
972,39.85,521.25,506.05,585.35
978,39.54,523.25,508.35,587.35
984,39.21,525.15,510.45,589.45
990,38.87,527.05,512.75,591.55
996,38.55,529.05,514.95,593.65
1002,38.22,530.95,517.15,595.65
1008,37.89,532.95,519.35,597.65
1014,37.56,534.85,521.55,599.65
1020,37.23,536.85,523.85,601.75
1026,36.89,538.85,526.05,603.75
1032,36.54,540.85,528.35,605.75
1038,36.20,542.85,530.55,607.85
1044,35.88,544.85,532.85,609.85
1050,35.53,546.85,535.15,611.85
1056,35.19,548.85,537.45,613.95
1062,34.85,550.85,539.75,616.05
1068,34.49,552.95,542.05,618.05
1074,34.15,554.95,544.35,620.05
1080,33.80,557.05,546.65,622.05
1086,33.46,559.05,549.05,624.05
1092,33.11,561.05,551.45,626.15
1098,32.75,563.15,553.85,628.15
1104,32.40,565.15,556.25,630.25
1110,32.05,567.25,558.65,632.25
1116,31.69,569.25,561.15,634.45
1122,31.34,571.35,563.55,636.55
1128,30.99,573.35,565.95,638.65
1134,30.63,575.35,568.45,640.85
1140,30.27,577.35,570.95,643.25
1146,29.93,579.35,573.35,645.85
1152,29.55,581.35,575.85,648.85
1158,29.20,583.45,578.25,651.95
1164,28.85,585.45,580.85,655.15
1170,28.49,587.45,583.35,658.45
1176,28.14,589.45,585.75,661.95
1182,27.79,591.45,588.25,665.85
1188,27.44,593.45,590.85,670.05
1194,27.08,595.45,593.35,674.65
1200,26.73,597.45,595.85,679.45
1206,26.38,599.35,598.35,684.35
1212,26.04,601.35,600.95,689.95
1218,25.69,603.35,603.35,696.25
1224,25.36,605.35,605.85,703.45
1230,25.02,607.35,608.45,710.65
1236,24.69,609.35,610.85,718.05
1242,24.35,611.25,613.35,724.75
1248,24.03,613.25,615.75,730.15
1254,23.72,615.15,618.15,734.15
1260,23.39,616.95,620.45,737.35
1266,23.07,618.75,622.75,739.25
1272,22.78,620.65,625.05,740.35
1278,22.47,622.55,627.35,740.95
1284,22.16,624.35,629.55,741.15
1290,21.88,626.05,631.75,741.45
1296,21.59,627.65,633.95,741.75
1302,21.31,629.65,636.15,742.15
1308,21.05,631.85,638.35,743.65
1314,20.80,633.45,640.65,743.85
1320,20.56,635.05,642.95,743.45
1326,20.34,636.55,644.95,744.15
1332,20.10,638.55,646.95,745.05
1338,19.86,640.55,648.85,745.35
1344,19.65,642.85,650.75,745.65
1350,19.42,645.35,652.75,745.65
1356,19.27,648.15,655.15,745.45
1362,19.09,651.35,658.05,745.55
1368,18.92,655.35,661.45,746.35
1374,18.80,659.85,666.25,747.45
1380,18.66,665.45,672.05,748.95
1386,18.56,672.25,679.05,750.65
1392,18.44,680.55,688.25,752.25
1398,18.33,690.55,698.95,754.15
1404,18.24,701.75,710.25,756.15
1410,18.15,713.25,721.25,758.25
1416,18.07,724.25,732.15,760.55
1422,18.01,733.45,742.25,763.05
1428,17.95,740.35,750.95,765.45
1434,17.90,745.15,756.35,768.15
1440,17.84,748.05,758.75,770.35
1446,17.79,749.95,760.15,772.45
1452,17.76,751.45,761.35,774.25
1458,17.71,752.75,762.55,775.85
1464,17.67,753.95,763.75,777.35
1470,17.65,755.25,764.85,778.65
1476,17.60,756.45,765.95,779.85
1482,17.58,757.55,766.95,781.15
1488,17.55,758.75,768.05,782.25
1494,17.50,759.95,769.15,783.25
1500,17.48,761.05,770.15,784.05
1506,17.46,762.15,771.15,784.95
1512,17.42,763.35,772.15,785.75
1518,17.39,764.45,773.25,786.65
1524,17.36,765.55,774.25,787.35
1530,17.35,766.55,775.15,788.15
1536,17.33,767.55,776.05,788.85
1542,17.28,768.55,776.95,789.45
1548,17.27,769.55,777.85,790.15
1554,17.25,770.45,778.65,790.65
1560,17.23,771.25,779.45,791.15
1566,17.21,772.15,780.15,791.75
1572,17.19,772.95,780.95,792.25
1578,17.17,773.75,781.65,792.85
1584,17.14,774.45,782.35,793.35
1590,17.13,775.25,783.05,793.95
1596,17.12,775.95,783.65,794.35
1600,17.11,776.45,784.15,794.55