Folder: matl-db/Wood/Calibration_Data/TUBS (part 5)

File: TUBS_TGA_N2_50K_R1.csv
Time (s),Temperature (K),Mass (mg)
0.0,305.0,0.989
48.0,304.803,0.983
130.0,304.669,0.977
247.0,304.543,0.973
414.0,304.476,0.971
546.0,304.452,0.971
782.0,304.456,0.969
1171.0,304.454,0.969
1206.01,306.0,0.966
1211.009,309.0,0.966
1215.086,312.0,0.969
1218.839,315.0,0.971
1222.466,318.0,0.971
1226.083,321.0,0.971
1229.672,324.0,0.97
1233.265,327.0,0.969
1236.838,330.0,0.968
1240.434,333.0,0.967
1244.049,336.0,0.967
1247.642,339.0,0.966
1251.252,342.0,0.965
1254.857,345.0,0.965
1258.475,348.0,0.964
1262.08,351.0,0.963
1265.692,354.0,0.962
1269.307,357.0,0.961
1272.919,360.0,0.961
1276.531,363.0,0.96
1280.136,366.0,0.96
1283.76,369.0,0.96
1287.372,372.0,0.959
1290.989,375.0,0.959
1294.601,378.0,0.958
1298.199,381.0,0.958
1301.803,384.0,0.958
1305.412,387.0,0.958
1309.025,390.0,0.958
1312.617,393.0,0.957
1316.21,396.0,0.957
1319.811,399.0,0.957
1323.405,402.0,0.957
1326.989,405.0,0.957
1330.563,408.0,0.957
1334.152,411.0,0.957
1337.722,414.0,0.957
1341.3,417.0,0.957
1344.874,420.0,0.957
1348.442,423.0,0.957
1352.012,426.0,0.957
1355.565,429.0,0.956
1359.125,432.0,0.956
1362.687,435.0,0.956
1366.239,438.0,0.956
1369.791,441.0,0.956
1373.335,444.0,0.956
1376.871,447.0,0.956
1380.409,450.0,0.956
1383.95,453.0,0.955
1387.462,456.0,0.955
1390.994,459.0,0.954
1394.526,462.0,0.954
1398.031,465.0,0.953
1401.546,468.0,0.953
1405.091,471.0,0.952
1408.597,474.0,0.952
1412.101,477.0,0.951
1415.626,480.0,0.95
1419.112,483.0,0.949
1422.633,486.0,0.947
1426.143,489.0,0.946
1429.648,492.0,0.945
1433.142,495.0,0.945
1436.653,498.0,0.943
1440.161,501.0,0.943
1443.662,504.0,0.942
1447.145,507.0,0.941
1450.658,510.0,0.94
1454.158,513.0,0.939
1457.672,516.0,0.937
1461.153,519.0,0.936
1464.657,522.0,0.934
1468.159,525.0,0.933
1471.667,528.0,0.931
1475.166,531.0,0.929
1478.677,534.0,0.927
1482.174,537.0,0.925
1485.68,540.0,0.923
1489.19,543.0,0.92
1492.697,546.0,0.917
1496.213,549.0,0.914
1499.716,552.0,0.911
1503.221,555.0,0.908
1506.736,558.0,0.904
1510.261,561.0,0.9
1513.77,564.0,0.895
1517.284,567.0,0.891
1520.815,570.0,0.886
1524.332,573.0,0.881
1527.847,576.0,0.876
1531.377,579.0,0.87
1534.91,582.0,0.865
1538.437,585.0,0.859
1541.974,588.0,0.852
1545.505,591.0,0.845
1549.038,594.0,0.838
1552.589,597.0,0.83
1556.125,600.0,0.822
1559.669,603.0,0.813
1563.221,606.0,0.803
1566.763,609.0,0.793
1570.316,612.0,0.782
1573.875,615.0,0.771
1577.436,618.0,0.759
1581.006,621.0,0.746
1584.573,624.0,0.732
1588.138,627.0,0.717
1591.708,630.0,0.703
1595.284,633.0,0.688
1598.868,636.0,0.672
1602.455,639.0,0.655
1606.032,642.0,0.639
1609.628,645.0,0.621
1613.222,648.0,0.603
1616.811,651.0,0.585
1620.42,654.0,0.566
1624.029,657.0,0.547
1627.642,660.0,0.526
1631.257,663.0,0.504
1634.883,666.0,0.483
1638.5,669.0,0.46
1642.126,672.0,0.435
1645.753,675.0,0.41
1649.398,678.0,0.384
1653.012,681.0,0.359
1656.639,684.0,0.334
1660.27,687.0,0.311
1663.884,690.0,0.291
1667.507,693.0,0.274
1671.133,696.0,0.262
1674.762,699.0,0.252
1678.384,702.0,0.246
1682.013,705.0,0.242
1685.636,708.0,0.239
1689.272,711.0,0.237
1692.911,714.0,0.234
1696.547,717.0,0.232
1700.179,720.0,0.231
1703.82,723.0,0.229
1707.44,726.0,0.227
1711.079,729.0,0.226
1714.72,732.0,0.224
1718.362,735.0,0.223
1721.995,738.0,0.221
1725.626,741.0,0.22
1729.269,744.0,0.218
1732.901,747.0,0.217
1736.553,750.0,0.215
1740.189,753.0,0.214
1743.821,756.0,0.213
1747.462,759.0,0.212
1751.104,762.0,0.211
1754.744,765.0,0.209
1758.386,768.0,0.208
1762.034,771.0,0.207
1765.67,774.0,0.206
1769.303,777.0,0.205
1772.954,780.0,0.205
1776.586,783.0,0.204
1780.225,786.0,0.203
1783.865,789.0,0.202
1787.51,792.0,0.201
1791.137,795.0,0.201
1794.798,798.0,0.2
1798.441,801.0,0.2
1802.079,804.0,0.199
1805.718,807.0,0.198
1809.363,810.0,0.197
1813.007,813.0,0.197
1816.647,816.0,0.196
1820.284,819.0,0.196
1823.934,822.0,0.195
1827.573,825.0,0.194
1831.21,828.0,0.194
1834.86,831.0,0.193
1838.487,834.0,0.193
1842.131,837.0,0.192
1845.772,840.0,0.192
1849.413,843.0,0.192
1853.052,846.0,0.191
1856.734,849.0,0.19
1860.379,852.0,0.19
1864.017,855.0,0.189
1867.649,858.0,0.189
1871.293,861.0,0.188
1874.922,864.0,0.188
1878.559,867.0,0.188
1882.192,870.0,0.187
1885.824,873.0,0.187
1889.467,876.0,0.186
1893.092,879.0,0.186
1896.721,882.0,0.185
1900.355,885.0,0.185
1903.978,888.0,0.184
1907.617,891.0,0.184
1911.247,894.0,0.183
1914.87,897.0,0.183
1918.495,900.0,0.183
1922.115,903.0,0.182
1925.742,906.0,0.182
1929.355,909.0,0.182
1932.977,912.0,0.181
1936.591,915.0,0.181
1940.212,918.0,0.18
1943.821,921.0,0.18
1947.433,924.0,0.18
1951.048,927.0,0.179
1954.651,930.0,0.179
1958.264,933.0,0.179
1961.874,936.0,0.178
1965.485,939.0,0.178
1969.095,942.0,0.178
1972.7,945.0,0.177
1976.301,948.0,0.177
1979.889,951.0,0.177
1983.503,954.0,0.176
1987.103,957.0,0.176
1990.714,960.0,0.176
1994.302,963.0,0.176
1997.904,966.0,0.175
2001.499,969.0,0.175
2005.088,972.0,0.175
2008.677,975.0,0.174
2012.275,978.0,0.174
2015.868,981.0,0.174
2019.451,984.0,0.173
2023.044,987.0,0.173
2026.618,990.0,0.173
2030.206,993.0,0.173
2033.798,996.0,0.172
2037.369,999.0,0.172
2040.949,1002.0,0.172
2044.533,1005.0,0.171
2048.112,1008.0,0.171
2051.687,1011.0,0.171
2055.272,1014.0,0.17
2058.848,1017.0,0.17
2062.421,1020.0,0.17
2065.999,1023.0,0.169
2069.578,1026.0,0.169
2073.145,1029.0,0.169
2076.714,1032.0,0.168
2080.296,1035.0,0.168
2083.855,1038.0,0.168
2087.435,1041.0,0.168
2091.023,1044.0,0.167
2094.602,1047.0,0.167
2098.181,1050.0,0.167
2101.77,1053.0,0.167
2106.718,1056.0,0.166
2112.403,1059.0,0.166
2119.685,1062.0,0.165
2154.0,1068.863,0.164
2214.0,1071.608,0.163
2274.0,1072.283,0.162
2334.0,1072.56,0.161
2394.0,1072.696,0.16
2424.0,1072.744,0.16

File: TUBS_TGA_N2_50K_R2.csv
Time (s),Temperature (K),Mass (mg)
0.0,305.014,1.019
43.0,304.837,1.013
108.0,304.726,1.007
212.0,304.571,1.003
363.0,304.497,0.999
666.0,304.459,0.997
979.0,304.439,0.997
1116.0,304.459,0.997
1207.712,307.0,0.993
1212.579,310.0,0.995
1216.507,313.0,0.998
1220.235,316.0,0.999
1223.861,319.0,0.999
1227.489,322.0,0.999
1231.093,325.0,0.998
1234.702,328.0,0.997
1238.294,331.0,0.996
1241.9,334.0,0.995
1245.525,337.0,0.995
1249.145,340.0,0.994
1252.755,343.0,0.993
1256.352,346.0,0.993
1259.981,349.0,0.992
1263.61,352.0,0.991
1267.211,355.0,0.99
1270.823,358.0,0.989
1274.447,361.0,0.989
1278.072,364.0,0.989
1281.681,367.0,0.988
1285.3,370.0,0.988
1288.904,373.0,0.987
1292.515,376.0,0.987
1296.125,379.0,0.987
1299.743,382.0,0.986
1303.349,385.0,0.986
1306.942,388.0,0.986
1310.549,391.0,0.985
1314.153,394.0,0.985
1317.744,397.0,0.985
1321.339,400.0,0.985
1324.928,403.0,0.985
1328.521,406.0,0.985
1332.095,409.0,0.985
1335.672,412.0,0.985
1339.256,415.0,0.985
1342.829,418.0,0.985
1346.389,421.0,0.985
1349.968,424.0,0.985
1353.531,427.0,0.985
1357.076,430.0,0.985
1360.631,433.0,0.985
1364.186,436.0,0.985
1367.736,439.0,0.985
1371.278,442.0,0.984
1374.823,445.0,0.984
1378.351,448.0,0.984
1381.894,451.0,0.984
1385.426,454.0,0.984
1388.958,457.0,0.983
1392.476,460.0,0.983
1396.007,463.0,0.982
1399.514,466.0,0.982
1403.039,469.0,0.981
1406.547,472.0,0.981
1410.06,475.0,0.98
1413.566,478.0,0.979
1417.073,481.0,0.978
1420.583,484.0,0.977
1424.101,487.0,0.976
1427.584,490.0,0.975
1431.106,493.0,0.974
1434.587,496.0,0.973
1438.101,499.0,0.972
1441.594,502.0,0.971
1445.086,505.0,0.97
1448.586,508.0,0.969
1452.079,511.0,0.968
1455.589,514.0,0.966
1459.09,517.0,0.965
1462.587,520.0,0.963
1466.08,523.0,0.962
1469.58,526.0,0.96
1473.075,529.0,0.959
1476.583,532.0,0.957
1480.097,535.0,0.955
1483.606,538.0,0.952
1487.111,541.0,0.95
1490.615,544.0,0.946
1494.104,547.0,0.944
1497.629,550.0,0.94
1501.13,553.0,0.937
1504.641,556.0,0.933
1508.154,559.0,0.929
1511.674,562.0,0.925
1515.181,565.0,0.921
1518.687,568.0,0.916
1522.209,571.0,0.911
1525.732,574.0,0.906
1529.261,577.0,0.9
1532.8,580.0,0.895
1536.316,583.0,0.889
1539.847,586.0,0.882
1543.39,589.0,0.876
1546.914,592.0,0.868
1550.45,595.0,0.861
1553.992,598.0,0.853
1557.538,601.0,0.844
1561.077,604.0,0.835
1564.616,607.0,0.825
1568.175,610.0,0.814
1571.723,613.0,0.803
1575.284,616.0,0.791
1578.84,619.0,0.778
1582.393,622.0,0.764
1585.974,625.0,0.75
1589.531,628.0,0.736
1593.122,631.0,0.72
1596.682,634.0,0.704
1600.258,637.0,0.688
1603.834,640.0,0.671
1607.427,643.0,0.653
1611.024,646.0,0.635
1614.611,649.0,0.617
1618.194,652.0,0.598
1621.809,655.0,0.578
1625.409,658.0,0.558
1629.01,661.0,0.537
1632.63,664.0,0.514
1636.242,667.0,0.491
1639.865,670.0,0.467
1643.493,673.0,0.442
1647.122,676.0,0.415
1650.741,679.0,0.388
1654.357,682.0,0.361
1657.988,685.0,0.336
1661.606,688.0,0.312
1665.226,691.0,0.293
1668.839,694.0,0.277
1672.459,697.0,0.264
1676.081,700.0,0.256
1679.708,703.0,0.249
1683.33,706.0,0.246
1686.964,709.0,0.243
1690.592,712.0,0.241
1694.234,715.0,0.239
1697.851,718.0,0.237
1701.493,721.0,0.235
1705.123,724.0,0.233
1708.768,727.0,0.231
1712.412,730.0,0.23
1716.047,733.0,0.228
1719.682,736.0,0.227
1723.321,739.0,0.225
1726.946,742.0,0.224
1730.598,745.0,0.222
1734.238,748.0,0.221
1737.885,751.0,0.219
1741.522,754.0,0.218
1745.164,757.0,0.217
1748.804,760.0,0.216
1752.443,763.0,0.215
1756.083,766.0,0.214
1759.726,769.0,0.212
1763.368,772.0,0.212
1767.013,775.0,0.211
1770.652,778.0,0.21
1774.294,781.0,0.209
1777.929,784.0,0.208
1781.576,787.0,0.207
1785.22,790.0,0.206
1788.842,793.0,0.205
1792.497,796.0,0.205
1796.139,799.0,0.204
1799.785,802.0,0.204
1803.421,805.0,0.203
1807.058,808.0,0.202
1810.709,811.0,0.202
1814.345,814.0,0.201
1817.982,817.0,0.2
1821.627,820.0,0.2
1825.277,823.0,0.199
1828.916,826.0,0.198
1832.557,829.0,0.198
1836.203,832.0,0.197
1839.838,835.0,0.197
1843.484,838.0,0.196
1847.135,841.0,0.196
1850.778,844.0,0.195
1854.408,847.0,0.195
1858.046,850.0,0.194
1861.676,853.0,0.194
1865.315,856.0,0.193
1868.956,859.0,0.193
1872.596,862.0,0.192
1876.22,865.0,0.192
1879.853,868.0,0.192
1883.492,871.0,0.191
1887.128,874.0,0.191
1890.766,877.0,0.19
1894.399,880.0,0.19
1898.034,883.0,0.189
1901.664,886.0,0.189
1905.292,889.0,0.189
1908.921,892.0,0.188
1912.548,895.0,0.188
1916.171,898.0,0.187
1919.794,901.0,0.187
1923.42,904.0,0.186
1927.027,907.0,0.186
1930.657,910.0,0.186
1934.272,913.0,0.185
1937.9,916.0,0.185
1941.516,919.0,0.185
1945.13,922.0,0.184
1948.741,925.0,0.184
1952.348,928.0,0.184
1955.961,931.0,0.183
1959.576,934.0,0.183
1963.186,937.0,0.183
1966.796,940.0,0.182
1970.406,943.0,0.182
1974.012,946.0,0.182
1977.622,949.0,0.182
1981.23,952.0,0.182
1984.831,955.0,0.181
1988.429,958.0,0.181
1992.029,961.0,0.181
1995.64,964.0,0.181
1999.233,967.0,0.18
2002.828,970.0,0.18
2006.427,973.0,0.18
2010.02,976.0,0.179
2013.603,979.0,0.179
2017.207,982.0,0.179
2020.789,985.0,0.179
2024.379,988.0,0.179
2027.968,991.0,0.179
2031.555,994.0,0.179
2035.141,997.0,0.178
2038.73,1000.0,0.178
2042.313,1003.0,0.178
2045.898,1006.0,0.177
2049.472,1009.0,0.177
2053.049,1012.0,0.177
2056.644,1015.0,0.177
2060.227,1018.0,0.177
2063.803,1021.0,0.176
2067.385,1024.0,0.176
2070.958,1027.0,0.176
2074.543,1030.0,0.176
2078.121,1033.0,0.176
2081.709,1036.0,0.176
2085.277,1039.0,0.175
2088.859,1042.0,0.175
2092.435,1045.0,0.175
2096.021,1048.0,0.175
2099.605,1051.0,0.175
2103.169,1054.0,0.175
2108.624,1057.0,0.174
2114.66,1060.0,0.174
2122.663,1063.0,0.174
2174.0,1070.326,0.173
2234.0,1071.894,0.172
2294.0,1072.393,0.171
2354.0,1072.619,0.17
2414.0,1072.723,0.169
2424.0,1072.725,0.169

File: TUBS_TGA_N2_50K_R3.csv
Time (s),Temperature (K),Mass (mg)
0.0,305.033,1.03
9.0,304.985,1.029
18.0,304.943,1.028
27.0,304.91,1.027
36.0,304.853,1.026
45.0,304.841,1.026
54.0,304.818,1.025
63.0,304.798,1.024
72.0,304.769,1.024
81.0,304.748,1.023
90.0,304.747,1.023
99.0,304.712,1.022
108.0,304.704,1.022
117.0,304.693,1.021
126.0,304.666,1.021
135.0,304.653,1.021
144.0,304.644,1.02
153.0,304.63,1.02
162.0,304.623,1.02
171.0,304.603,1.02
180.0,304.6,1.019
189.0,304.583,1.019
198.0,304.571,1.019
207.0,304.556,1.019
216.0,304.551,1.018
225.0,304.549,1.018
234.0,304.548,1.018
243.0,304.532,1.018
252.0,304.522,1.018
261.0,304.524,1.018
270.0,304.51,1.017
279.0,304.503,1.017
288.0,304.497,1.017
297.0,304.496,1.017
306.0,304.509,1.017
315.0,304.497,1.016
324.0,304.492,1.016
333.0,304.505,1.016
342.0,304.477,1.016
351.0,304.486,1.016
360.0,304.49,1.016
369.0,304.478,1.016
378.0,304.48,1.016
387.0,304.466,1.016
396.0,304.477,1.016
405.0,304.456,1.016
414.0,304.455,1.016
423.0,304.465,1.015
432.0,304.461,1.015
441.0,304.457,1.015
450.0,304.477,1.015
459.0,304.442,1.015
468.0,304.447,1.015
477.0,304.45,1.015
486.0,304.441,1.015
495.0,304.455,1.015
504.0,304.444,1.015
513.0,304.444,1.015
522.0,304.452,1.015
531.0,304.441,1.015
540.0,304.447,1.015
549.0,304.451,1.015
558.0,304.438,1.014
567.0,304.453,1.014
576.0,304.436,1.014
585.0,304.425,1.014
594.0,304.45,1.014
603.0,304.446,1.014
612.0,304.437,1.014
621.0,304.438,1.014
630.0,304.426,1.014
639.0,304.434,1.014
648.0,304.442,1.014
657.0,304.443,1.014
666.0,304.429,1.014
675.0,304.444,1.014
684.0,304.417,1.014
693.0,304.42,1.014
702.0,304.42,1.014
711.0,304.429,1.014
720.0,304.439,1.014
729.0,304.431,1.014
738.0,304.43,1.014
747.0,304.447,1.014
756.0,304.433,1.014
765.0,304.423,1.014
774.0,304.444,1.014
783.0,304.443,1.014
792.0,304.465,1.014
801.0,304.438,1.014
810.0,304.438,1.014
819.0,304.444,1.014
828.0,304.447,1.014
837.0,304.446,1.014
846.0,304.447,1.014
855.0,304.418,1.014
864.0,304.424,1.014
873.0,304.433,1.014
882.0,304.41,1.013
891.0,304.447,1.013
900.0,304.443,1.013
909.0,304.442,1.013
918.0,304.423,1.013
927.0,304.446,1.013
936.0,304.425,1.013
945.0,304.432,1.013
954.0,304.437,1.013
963.0,304.439,1.013
972.0,304.436,1.013
981.0,304.444,1.013
990.0,304.432,1.013
999.0,304.404,1.013
1008.0,304.432,1.013
1017.0,304.43,1.013
1026.0,304.436,1.013
1035.0,304.437,1.013
1044.0,304.434,1.013
1053.0,304.43,1.013
1062.0,304.439,1.013
1071.0,304.453,1.013
1080.0,304.443,1.013
1089.0,304.44,1.013
1098.0,304.428,1.013
1107.0,304.452,1.013
1116.0,304.441,1.013
1125.0,304.44,1.013
1134.0,304.448,1.013
1143.0,304.469,1.013
1152.0,304.451,1.013
1161.0,304.418,1.013
1170.0,304.44,1.013
1179.0,304.432,1.013
1188.0,304.426,1.013
1197.0,304.452,1.013
1206.0,305.895,1.011
1215.0,311.831,1.014
1224.0,319.203,1.015
1233.0,326.739,1.012
1242.0,334.257,1.011
1251.0,341.75,1.009
1260.0,349.216,1.008
1269.0,356.726,1.006
1278.0,364.175,1.005
1287.0,371.641,1.004
1296.0,379.142,1.003
1305.0,386.633,1.003
1314.0,394.145,1.002
1323.0,401.651,1.002
1332.0,409.19,1.002
1341.0,416.756,1.002
1350.0,424.333,1.002
1359.0,431.914,1.002
1368.0,439.513,1.001
1377.0,447.139,1.001
1386.0,454.779,1.0
1395.0,462.451,0.999
1404.0,470.125,0.997
1413.0,477.826,0.995
1422.0,485.53,0.992
1431.0,493.255,0.989
1440.0,500.958,0.986
1449.0,508.681,0.982
1458.0,516.392,0.977
1467.0,524.118,0.972
1476.0,531.828,0.965
1485.0,539.548,0.957
1494.0,547.253,0.948
1503.0,554.94,0.936
1512.0,562.634,0.924
1521.0,570.311,0.91
1530.0,577.969,0.895
1539.0,585.628,0.879
1548.0,593.277,0.861
1557.0,600.896,0.84
1566.0,608.513,0.815
1575.0,616.105,0.787
1584.0,623.691,0.755
1593.0,631.249,0.72
1602.0,638.805,0.68
1611.0,646.325,0.638
1620.0,653.835,0.593
1629.0,661.327,0.543
1638.0,668.787,0.489
1647.0,676.243,0.428
1656.0,683.703,0.365
1665.0,691.17,0.311
1674.0,698.633,0.278
1683.0,706.075,0.263
1692.0,713.521,0.257
1701.0,720.951,0.253
1710.0,728.379,0.248
1719.0,735.799,0.244
1728.0,743.215,0.24
1737.0,750.64,0.237
1746.0,758.043,0.233
1755.0,765.457,0.231
1764.0,772.87,0.228
1773.0,780.282,0.226
1782.0,787.688,0.223
1791.0,795.098,0.222
1800.0,802.51,0.22
1809.0,809.916,0.218
1818.0,817.332,0.217
1827.0,824.746,0.215
1836.0,832.161,0.214
1845.0,839.569,0.213
1854.0,846.986,0.211
1863.0,854.408,0.21
1872.0,861.811,0.209
1881.0,869.235,0.208
1890.0,876.662,0.207
1899.0,884.093,0.206
1908.0,891.534,0.204
1917.0,898.981,0.203
1926.0,906.433,0.202
1935.0,913.885,0.202
1944.0,921.336,0.201
1953.0,928.793,0.2
1962.0,936.257,0.199
1971.0,943.716,0.198
1980.0,951.184,0.198
1989.0,958.66,0.197
1998.0,966.126,0.196
2007.0,973.603,0.196
2016.0,981.093,0.195
2025.0,988.578,0.195
2034.0,996.075,0.194
2043.0,1003.569,0.194
2052.0,1011.074,0.193
2061.0,1018.587,0.193
2070.0,1026.093,0.192
2079.0,1033.614,0.192
2088.0,1041.139,0.192
2097.0,1048.659,0.191
2106.0,1055.5,0.191
2115.0,1060.066,0.191
2124.0,1063.252,0.19
2133.0,1065.476,0.19
2142.0,1067.036,0.19
2151.0,1068.148,0.189
2160.0,1068.967,0.189
2169.0,1069.561,0.189
2178.0,1070.013,0.189
2187.0,1070.346,0.189
2196.0,1070.624,0.189
2205.0,1070.84,0.189
2214.0,1071.017,0.188
2223.0,1071.167,0.188
2232.0,1071.287,0.188
2241.0,1071.391,0.188
2250.0,1071.477,0.188
2259.0,1071.566,0.187
2268.0,1071.634,0.187
2277.0,1071.694,0.187
2286.0,1071.753,0.187
2295.0,1071.808,0.187
2304.0,1071.846,0.187
2313.0,1071.88,0.187
2322.0,1071.916,0.187
2331.0,1071.941,0.187
2340.0,1071.971,0.187
2349.0,1071.995,0.186
2358.0,1072.004,0.186
2367.0,1072.026,0.186
2376.0,1072.053,0.186
2385.0,1072.067,0.186
2394.0,1072.073,0.186
2403.0,1072.091,0.186
2412.0,1072.109,0.186
2421.0,1072.107,0.186
2424.0,1072.112,0.186

File: TUBS_TGA_N2_ISO320_R2.csv
Time (s),Temperature (K),Mass (mg)
0.0,305.0,0.99
63.0,304.7,0.981
259.0,304.5,0.972
939.0,304.4,0.967
1041.0,304.4,0.968
1219.0,322.3,0.969
1246.0,390.7,0.964
1292.0,479.4,0.955
1319.0,512.9,0.946
1337.0,529.7,0.937
1352.0,541.2,0.928
1364.0,548.9,0.919
1374.0,554.5,0.91
1383.0,559.0,0.901
1393.0,563.4,0.892
1403.0,567.3,0.883
1412.0,570.4,0.874
1421.0,573.1,0.865
1431.0,575.8,0.856
1440.0,577.9,0.847
1450.0,580.0,0.838
1459.0,581.6,0.829
1468.0,583.0,0.82
1478.0,584.4,0.811
1488.0,585.6,0.802
1498.0,586.7,0.793
1508.0,587.6,0.784
1519.0,588.5,0.775
1530.0,589.2,0.766
1541.0,589.9,0.757
1553.0,590.5,0.748
1565.0,591.0,0.739
1579.0,591.4,0.73
1592.0,591.8,0.721
1644.0,592.8,0.692
1725.0,593.5,0.655
1806.0,593.7,0.626
1887.0,593.8,0.602
1968.0,593.8,0.582
2049.0,593.8,0.564
2130.0,593.8,0.548
2211.0,593.8,0.533
2292.0,593.8,0.52
2373.0,593.8,0.507
2454.0,593.8,0.495
2535.0,593.8,0.484
2616.0,593.8,0.474
2697.0,593.8,0.464
2778.0,593.8,0.454
2859.0,593.8,0.445
2940.0,593.8,0.436
3021.0,593.8,0.427
3102.0,593.8,0.419
3183.0,593.8,0.411
3264.0,593.8,0.403
3345.0,593.8,0.396
3426.0,593.8,0.388
3507.0,593.8,0.382
3588.0,593.8,0.375
3669.0,593.8,0.369
3750.0,593.8,0.363
3831.0,593.8,0.357
3912.0,593.8,0.352
3993.0,593.8,0.347
4074.0,593.8,0.341
4155.0,593.8,0.337
4236.0,593.8,0.332
4317.0,593.8,0.328
4398.0,593.8,0.324
4479.0,593.8,0.32
4560.0,593.8,0.316
4641.0,593.8,0.312
4722.0,593.8,0.309
4803.0,593.8,0.306
4884.0,593.8,0.303
4965.0,593.8,0.3
5046.0,593.8,0.297
5127.0,593.8,0.295
5208.0,593.8,0.293
5289.0,593.9,0.29
5370.0,593.8,0.288
5451.0,593.8,0.286
5532.0,593.8,0.285
5613.0,593.9,0.283
5694.0,593.8,0.281
5775.0,593.8,0.28
5856.0,593.8,0.279
5937.0,593.8,0.278
6018.0,593.8,0.277
6099.0,593.9,0.276
6180.0,593.9,0.275
6261.0,593.9,0.274
6342.0,593.9,0.273
6423.0,593.9,0.273
6504.0,593.9,0.272
6585.0,593.8,0.271
6666.0,593.8,0.27
6747.0,593.8,0.27
6828.0,593.9,0.27
6909.0,593.9,0.269
6990.0,593.9,0.269
7071.0,593.9,0.268
7152.0,593.9,0.268
7233.0,593.8,0.268
7314.0,593.9,0.268
7395.0,593.9,0.267
7476.0,593.9,0.267
7557.0,593.8,0.267
7638.0,593.8,0.267
7719.0,593.9,0.266
7800.0,593.9,0.266
7881.0,593.9,0.266
7962.0,593.9,0.266
8043.0,593.9,0.266
8124.0,593.9,0.266
8205.0,593.9,0.265
8286.0,593.9,0.265
8367.0,593.9,0.265
8448.0,593.9,0.265
8529.0,593.9,0.265
8610.0,593.9,0.265
8691.0,593.9,0.265
8772.0,593.9,0.264
8853.0,593.9,0.264
8934.0,593.9,0.264
9015.0,593.9,0.264
9096.0,593.9,0.264
9177.0,593.9,0.264
9258.0,593.9,0.263
9339.0,593.9,0.263
9420.0,593.9,0.263
9501.0,593.9,0.263
9582.0,593.9,0.263
9663.0,593.9,0.263
9744.0,593.9,0.263
9825.0,593.9,0.263
9906.0,593.9,0.263
9987.0,593.9,0.262
10068.0,593.9,0.262
10149.0,593.9,0.262
10230.0,593.9,0.262
10311.0,593.9,0.262
10392.0,593.9,0.262
10473.0,593.9,0.262
10554.0,593.9,0.262
10635.0,593.9,0.262
10716.0,593.9,0.262
10797.0,593.9,0.262
10878.0,593.9,0.262
10959.0,593.9,0.261
11040.0,593.9,0.261
11121.0,593.9,0.261
11202.0,593.9,0.261
11283.0,593.9,0.261
11364.0,593.9,0.261
11445.0,593.9,0.261
11526.0,593.9,0.261
11607.0,593.9,0.261
11688.0,593.9,0.261
11769.0,593.9,0.261
11850.0,593.9,0.261
11931.0,593.9,0.26
12012.0,593.9,0.26
12093.0,593.9,0.26
12174.0,593.9,0.26
12255.0,593.9,0.26
12336.0,593.9,0.26
12417.0,593.9,0.26
12498.0,593.9,0.26
12579.0,593.9,0.26
12660.0,593.9,0.26
12741.0,593.9,0.26
12822.0,593.9,0.26
12903.0,593.9,0.26
12984.0,593.9,0.26
13065.0,593.9,0.26
13146.0,593.9,0.26
13227.0,593.9,0.259
13308.0,593.9,0.259
13389.0,593.9,0.259
13470.0,593.9,0.259
13551.0,593.9,0.259
13632.0,593.9,0.259
13713.0,593.9,0.259
13794.0,593.9,0.259
13875.0,593.9,0.259
13956.0,593.9,0.259
14037.0,593.9,0.259
14118.0,593.9,0.259
14199.0,593.9,0.258
14280.0,593.9,0.258
14361.0,593.9,0.259
14442.0,593.9,0.259
14523.0,593.9,0.259
14604.0,593.9,0.259
14685.0,593.9,0.258
14766.0,593.9,0.258
14847.0,593.9,0.258
14928.0,593.9,0.258
15009.0,593.9,0.258
15090.0,593.9,0.258
15171.0,593.9,0.258
15252.0,593.9,0.258
15333.0,593.9,0.258
15414.0,593.9,0.258
15495.0,593.9,0.258
15576.0,593.9,0.258
15657.0,593.9,0.258
15738.0,593.9,0.257
15819.0,593.9,0.258
15900.0,593.9,0.257
15981.0,593.9,0.258
16062.0,593.9,0.257
16143.0,593.9,0.257
16224.0,593.9,0.257
16305.0,593.9,0.257
16386.0,593.9,0.257
16467.0,593.9,0.257
16548.0,593.9,0.257
16629.0,593.9,0.257
16710.0,593.9,0.257
16791.0,593.9,0.257
16872.0,593.9,0.257
16953.0,593.9,0.257
17034.0,593.9,0.257
17115.0,593.9,0.257
17196.0,593.9,0.256
17277.0,593.9,0.256
17358.0,593.9,0.256
17439.0,593.9,0.256
17520.0,593.9,0.256
17601.0,593.9,0.256
17682.0,593.9,0.256
17763.0,593.9,0.256
17844.0,593.9,0.256
17925.0,593.9,0.256
18006.0,593.9,0.256
18087.0,593.9,0.256
18168.0,593.9,0.256
18249.0,593.9,0.256
18330.0,593.9,0.256
18411.0,593.9,0.256
18492.0,593.9,0.256
18573.0,593.9,0.256
18654.0,593.9,0.256
18735.0,593.9,0.256
18816.0,593.9,0.256
18897.0,593.9,0.256
18978.0,593.9,0.256
19059.0,593.9,0.256
19140.0,593.9,0.256
19221.0,593.9,0.256
19302.0,593.9,0.256
19383.0,593.9,0.256
19464.0,593.9,0.256
19545.0,593.9,0.256
19626.0,593.9,0.256
19707.0,593.9,0.256
19788.0,593.9,0.256
19869.0,593.9,0.256
19950.0,593.9,0.256
20031.0,593.9,0.255
20112.0,593.9,0.255
20193.0,593.9,0.255
20274.0,593.9,0.255
20355.0,593.9,0.255
20436.0,593.9,0.255
20517.0,593.9,0.255
20598.0,593.9,0.255
20679.0,593.9,0.255
20760.0,593.9,0.255
20841.0,593.9,0.255
20922.0,593.9,0.255
21003.0,593.9,0.255
21084.0,593.9,0.255
21165.0,593.9,0.255
21246.0,593.9,0.255
21327.0,593.9,0.255
21408.0,593.9,0.255
21489.0,593.9,0.255
21570.0,593.9,0.255
21651.0,593.9,0.254
21732.0,593.9,0.254
21813.0,593.9,0.254
21894.0,593.9,0.254
21975.0,593.9,0.254
22056.0,593.9,0.254
22137.0,593.9,0.254
22218.0,593.9,0.254
22299.0,593.9,0.254
22380.0,593.9,0.254
22461.0,593.9,0.254
22542.0,593.9,0.254
22623.0,593.9,0.254
22704.0,593.9,0.254
22785.0,593.9,0.254
22812.0,593.9,0.254