Folder: matl-db/Wood/Calibration_Data/TUBS (part 4)

File: TUBS_TGA_N2_30K_R3.csv
Time (s),Temperature (K),Mass (mg)
0.0,305.074,1.02
9.0,305.038,1.018
18.0,304.999,1.018
27.0,304.928,1.017
36.0,304.925,1.016
45.0,304.878,1.015
54.0,304.861,1.014
63.0,304.822,1.014
72.0,304.804,1.013
81.0,304.78,1.012
90.0,304.753,1.012
99.0,304.753,1.011
108.0,304.737,1.011
117.0,304.743,1.011
126.0,304.698,1.01
135.0,304.68,1.01
144.0,304.678,1.01
153.0,304.674,1.009
162.0,304.659,1.009
171.0,304.651,1.009
180.0,304.627,1.008
189.0,304.603,1.008
198.0,304.605,1.008
207.0,304.601,1.008
216.0,304.595,1.008
225.0,304.594,1.007
234.0,304.578,1.007
243.0,304.562,1.007
252.0,304.562,1.007
261.0,304.566,1.007
270.0,304.546,1.007
279.0,304.532,1.006
288.0,304.536,1.006
297.0,304.547,1.006
306.0,304.555,1.006
315.0,304.54,1.006
324.0,304.518,1.006
333.0,304.516,1.006
342.0,304.51,1.005
351.0,304.491,1.005
360.0,304.5,1.005
369.0,304.504,1.005
378.0,304.499,1.005
387.0,304.499,1.005
396.0,304.485,1.005
405.0,304.482,1.005
414.0,304.484,1.005
423.0,304.491,1.004
432.0,304.488,1.005
441.0,304.483,1.005
450.0,304.482,1.005
459.0,304.478,1.004
468.0,304.48,1.004
477.0,304.492,1.004
486.0,304.48,1.004
495.0,304.483,1.004
504.0,304.493,1.004
513.0,304.478,1.004
522.0,304.482,1.004
531.0,304.495,1.004
540.0,304.482,1.004
549.0,304.479,1.004
558.0,304.484,1.004
567.0,304.464,1.004
576.0,304.465,1.004
585.0,304.496,1.004
594.0,304.485,1.004
603.0,304.498,1.004
612.0,304.479,1.003
621.0,304.487,1.004
630.0,304.466,1.004
639.0,304.468,1.004
648.0,304.475,1.003
657.0,304.46,1.003
666.0,304.473,1.003
675.0,304.455,1.003
684.0,304.457,1.003
693.0,304.47,1.003
702.0,304.468,1.003
711.0,304.478,1.003
720.0,304.455,1.003
729.0,304.472,1.003
738.0,304.479,1.003
747.0,304.463,1.003
756.0,304.456,1.003
765.0,304.468,1.003
774.0,304.452,1.003
783.0,304.481,1.003
792.0,304.459,1.003
801.0,304.466,1.003
810.0,304.461,1.003
819.0,304.466,1.003
828.0,304.446,1.003
837.0,304.458,1.003
846.0,304.452,1.003
855.0,304.473,1.003
864.0,304.471,1.003
873.0,304.473,1.003
882.0,304.462,1.003
891.0,304.479,1.003
900.0,304.464,1.003
909.0,304.481,1.003
918.0,304.456,1.003
927.0,304.491,1.003
936.0,304.482,1.003
945.0,304.469,1.003
954.0,304.465,1.003
963.0,304.469,1.003
972.0,304.496,1.003
981.0,304.472,1.003
990.0,304.466,1.003
999.0,304.47,1.003
1008.0,304.473,1.003
1017.0,304.463,1.003
1026.0,304.461,1.003
1035.0,304.462,1.002
1044.0,304.474,1.002
1053.0,304.466,1.002
1062.0,304.46,1.002
1071.0,304.47,1.002
1080.0,304.484,1.002
1089.0,304.46,1.002
1098.0,304.474,1.003
1107.0,304.479,1.003
1116.0,304.476,1.003
1125.0,304.47,1.003
1134.0,304.457,1.003
1143.0,304.453,1.002
1152.0,304.476,1.003
1161.0,304.458,1.003
1170.0,304.456,1.003
1179.0,304.476,1.003
1188.0,304.46,1.003
1197.0,304.458,1.003
1206.0,305.883,1.0
1215.0,310.452,1.004
1224.0,316.175,1.005
1233.0,322.054,1.003
1242.0,328.0,1.002
1251.0,333.899,1.001
1260.0,339.833,1.0
1269.0,345.736,0.999
1278.0,351.674,0.997
1287.0,357.623,0.996
1296.0,363.549,0.995
1305.0,369.53,0.994
1314.0,375.488,0.993
1323.0,381.472,0.993
1332.0,387.456,0.992
1341.0,393.472,0.992
1350.0,399.495,0.992
1359.0,405.517,0.992
1368.0,411.573,0.992
1377.0,417.628,0.992
1386.0,423.709,0.992
1395.0,429.793,0.992
1404.0,435.878,0.991
1413.0,441.995,0.991
1422.0,448.112,0.99
1431.0,454.248,0.99
1440.0,460.397,0.988
1449.0,466.539,0.987
1458.0,472.708,0.985
1467.0,478.858,0.983
1476.0,485.037,0.981
1485.0,491.214,0.978
1494.0,497.376,0.975
1503.0,503.55,0.972
1512.0,509.718,0.968
1521.0,515.884,0.964
1530.0,522.05,0.96
1539.0,528.21,0.954
1548.0,534.361,0.948
1557.0,540.511,0.94
1566.0,546.648,0.932
1575.0,552.789,0.922
1584.0,558.929,0.911
1593.0,565.041,0.9
1602.0,571.165,0.888
1611.0,577.276,0.876
1620.0,583.373,0.861
1629.0,589.462,0.846
1638.0,595.536,0.829
1647.0,601.608,0.81
1656.0,607.676,0.788
1665.0,613.736,0.764
1674.0,619.785,0.737
1683.0,625.812,0.707
1692.0,631.839,0.675
1701.0,637.851,0.641
1710.0,643.854,0.605
1719.0,649.85,0.566
1728.0,655.821,0.525
1737.0,661.782,0.48
1746.0,667.735,0.431
1755.0,673.701,0.378
1764.0,679.651,0.326
1773.0,685.618,0.28
1782.0,691.586,0.248
1791.0,697.533,0.232
1800.0,703.491,0.225
1809.0,709.428,0.22
1818.0,715.374,0.217
1827.0,721.307,0.213
1836.0,727.248,0.21
1845.0,733.17,0.206
1854.0,739.109,0.203
1863.0,745.024,0.2
1872.0,750.96,0.198
1881.0,756.883,0.195
1890.0,762.805,0.192
1899.0,768.732,0.19
1908.0,774.655,0.188
1917.0,780.587,0.187
1926.0,786.514,0.185
1935.0,792.446,0.183
1944.0,798.37,0.182
1953.0,804.298,0.181
1962.0,810.22,0.179
1971.0,816.165,0.178
1980.0,822.101,0.177
1989.0,828.019,0.176
1998.0,833.953,0.175
2007.0,839.9,0.174
2016.0,845.84,0.173
2025.0,851.769,0.172
2034.0,857.707,0.171
2043.0,863.646,0.17
2052.0,869.589,0.169
2061.0,875.538,0.168
2070.0,881.486,0.167
2079.0,887.434,0.166
2088.0,893.383,0.165
2097.0,899.351,0.165
2106.0,905.303,0.164
2115.0,911.254,0.163
2124.0,917.215,0.163
2133.0,923.174,0.162
2142.0,929.154,0.161
2151.0,935.112,0.16
2160.0,941.069,0.16
2169.0,947.043,0.159
2178.0,953.008,0.159
2187.0,958.977,0.158
2196.0,964.952,0.158
2205.0,970.925,0.158
2214.0,976.901,0.157
2223.0,982.88,0.157
2232.0,988.853,0.156
2241.0,994.84,0.156
2250.0,1000.826,0.155
2259.0,1006.808,0.155
2268.0,1012.796,0.155
2277.0,1018.795,0.154
2286.0,1024.781,0.154
2295.0,1030.788,0.154
2304.0,1036.786,0.153
2313.0,1042.795,0.153
2322.0,1048.789,0.153
2331.0,1054.795,0.152
2340.0,1059.641,0.152
2349.0,1063.049,0.151
2358.0,1065.423,0.151
2367.0,1067.09,0.151
2376.0,1068.27,0.151
2385.0,1069.124,0.15
2394.0,1069.743,0.15
2403.0,1070.198,0.15
2412.0,1070.553,0.15
2421.0,1070.809,0.15
2430.0,1071.011,0.15
2439.0,1071.183,0.15
2448.0,1071.327,0.149
2457.0,1071.431,0.149
2466.0,1071.526,0.149
2475.0,1071.599,0.149
2484.0,1071.676,0.149
2493.0,1071.736,0.149
2502.0,1071.78,0.149
2511.0,1071.836,0.149
2520.0,1071.876,0.148
2529.0,1071.911,0.148
2538.0,1071.947,0.148
2547.0,1071.971,0.148
2556.0,1072.007,0.148
2565.0,1072.023,0.148
2574.0,1072.04,0.148
2583.0,1072.065,0.148
2592.0,1072.094,0.148
2601.0,1072.104,0.148
2610.0,1072.113,0.148
2619.0,1072.129,0.147
2628.0,1072.146,0.147
2637.0,1072.145,0.147
2646.0,1072.159,0.147
2655.0,1072.163,0.147

File: TUBS_TGA_N2_40K_R1.csv
Time (s),Temperature (K),Mass (mg)
0.0,305.095,0.92
9.0,305.059,0.919
18.0,305.001,0.918
27.0,304.96,0.917
36.0,304.934,0.916
45.0,304.912,0.916
54.0,304.865,0.915
63.0,304.835,0.914
72.0,304.827,0.914
81.0,304.787,0.913
90.0,304.779,0.913
99.0,304.749,0.913
108.0,304.737,0.912
117.0,304.715,0.912
126.0,304.691,0.912
135.0,304.679,0.911
144.0,304.675,0.911
153.0,304.654,0.911
162.0,304.645,0.911
171.0,304.634,0.91
180.0,304.616,0.91
189.0,304.604,0.91
198.0,304.595,0.91
207.0,304.586,0.91
216.0,304.571,0.909
225.0,304.571,0.909
234.0,304.553,0.909
243.0,304.538,0.909
252.0,304.53,0.909
261.0,304.525,0.909
270.0,304.535,0.909
279.0,304.538,0.908
288.0,304.527,0.908
297.0,304.516,0.908
306.0,304.521,0.908
315.0,304.493,0.908
324.0,304.499,0.908
333.0,304.49,0.908
342.0,304.489,0.908
351.0,304.491,0.908
360.0,304.48,0.907
369.0,304.492,0.907
378.0,304.49,0.907
387.0,304.475,0.907
396.0,304.474,0.907
405.0,304.468,0.907
414.0,304.465,0.907
423.0,304.483,0.907
432.0,304.472,0.907
441.0,304.475,0.907
450.0,304.464,0.907
459.0,304.47,0.907
468.0,304.467,0.907
477.0,304.455,0.907
486.0,304.46,0.907
495.0,304.469,0.907
504.0,304.468,0.907
513.0,304.451,0.907
522.0,304.462,0.907
531.0,304.446,0.907
540.0,304.458,0.906
549.0,304.436,0.906
558.0,304.447,0.906
567.0,304.459,0.906
576.0,304.441,0.906
585.0,304.439,0.906
594.0,304.452,0.906
603.0,304.442,0.906
612.0,304.455,0.906
621.0,304.445,0.906
630.0,304.421,0.906
639.0,304.443,0.906
648.0,304.433,0.906
657.0,304.447,0.906
666.0,304.453,0.906
675.0,304.451,0.906
684.0,304.428,0.906
693.0,304.444,0.906
702.0,304.432,0.906
711.0,304.452,0.906
720.0,304.431,0.906
729.0,304.436,0.906
738.0,304.434,0.906
747.0,304.442,0.906
756.0,304.445,0.906
765.0,304.444,0.906
774.0,304.443,0.906
783.0,304.436,0.906
792.0,304.441,0.906
801.0,304.458,0.906
810.0,304.443,0.906
819.0,304.448,0.906
828.0,304.43,0.906
837.0,304.446,0.906
846.0,304.434,0.906
855.0,304.459,0.906
864.0,304.457,0.906
873.0,304.444,0.906
882.0,304.437,0.906
891.0,304.461,0.906
900.0,304.431,0.906
909.0,304.448,0.906
918.0,304.454,0.905
927.0,304.464,0.905
936.0,304.451,0.905
945.0,304.457,0.905
954.0,304.436,0.905
963.0,304.444,0.905
972.0,304.458,0.905
981.0,304.45,0.905
990.0,304.456,0.905
999.0,304.447,0.905
1008.0,304.46,0.905
1017.0,304.467,0.905
1026.0,304.44,0.905
1035.0,304.45,0.905
1044.0,304.446,0.905
1053.0,304.449,0.905
1062.0,304.467,0.905
1071.0,304.458,0.905
1080.0,304.446,0.905
1089.0,304.455,0.905
1098.0,304.462,0.905
1107.0,304.447,0.905
1116.0,304.45,0.905
1125.0,304.463,0.905
1134.0,304.449,0.905
1143.0,304.445,0.905
1152.0,304.459,0.905
1161.0,304.454,0.906
1170.0,304.436,0.906
1179.0,304.45,0.906
1188.0,304.456,0.906
1197.0,304.461,0.905
1206.0,305.872,0.903
1215.0,310.39,0.907
1224.0,316.126,0.908
1233.0,322.046,0.906
1242.0,327.948,0.905
1251.0,333.888,0.903
1260.0,339.826,0.902
1269.0,345.747,0.901
1278.0,351.678,0.899
1287.0,357.623,0.898
1296.0,363.557,0.897
1305.0,369.5,0.896
1314.0,375.478,0.896
1323.0,381.47,0.895
1332.0,387.431,0.895
1341.0,393.437,0.895
1350.0,399.456,0.895
1359.0,405.493,0.895
1368.0,411.542,0.895
1377.0,417.601,0.895
1386.0,423.662,0.894
1395.0,429.74,0.894
1404.0,435.843,0.894
1413.0,441.949,0.893
1422.0,448.061,0.893
1431.0,454.186,0.892
1440.0,460.326,0.891
1449.0,466.479,0.89
1458.0,472.638,0.888
1467.0,478.796,0.886
1476.0,484.948,0.884
1485.0,491.129,0.882
1494.0,497.3,0.879
1503.0,503.455,0.876
1512.0,509.63,0.873
1521.0,515.8,0.869
1530.0,521.954,0.865
1539.0,528.124,0.859
1548.0,534.257,0.853
1557.0,540.415,0.846
1566.0,546.558,0.838
1575.0,552.692,0.829
1584.0,558.834,0.819
1593.0,564.941,0.809
1602.0,571.044,0.798
1611.0,577.164,0.786
1620.0,583.261,0.774
1629.0,589.36,0.759
1638.0,595.427,0.743
1647.0,601.488,0.726
1656.0,607.565,0.706
1665.0,613.615,0.683
1674.0,619.665,0.658
1683.0,625.691,0.631
1692.0,631.727,0.601
1701.0,637.736,0.57
1710.0,643.727,0.536
1719.0,649.726,0.501
1728.0,655.719,0.463
1737.0,661.679,0.422
1746.0,667.638,0.376
1755.0,673.586,0.328
1764.0,679.529,0.278
1773.0,685.498,0.235
1782.0,691.437,0.204
1791.0,697.405,0.189
1800.0,703.353,0.182
1809.0,709.298,0.178
1818.0,715.23,0.174
1827.0,721.175,0.171
1836.0,727.091,0.167
1845.0,733.013,0.164
1854.0,738.941,0.161
1863.0,744.88,0.159
1872.0,750.8,0.156
1881.0,756.722,0.153
1890.0,762.654,0.151
1899.0,768.571,0.149
1908.0,774.501,0.147
1917.0,780.419,0.146
1926.0,786.354,0.144
1935.0,792.279,0.143
1944.0,798.212,0.141
1953.0,804.139,0.14
1962.0,810.067,0.139
1971.0,816.007,0.137
1980.0,821.93,0.136
1989.0,827.887,0.135
1998.0,833.801,0.134
2007.0,839.746,0.133
2016.0,845.687,0.132
2025.0,851.603,0.131
2034.0,857.547,0.13
2043.0,863.492,0.129
2052.0,869.434,0.128
2061.0,875.388,0.127
2070.0,881.337,0.127
2079.0,887.293,0.126
2088.0,893.254,0.125
2097.0,899.215,0.124
2106.0,905.173,0.123
2115.0,911.145,0.123
2124.0,917.112,0.122
2133.0,923.073,0.121
2142.0,929.056,0.121
2151.0,935.03,0.12
2160.0,941.006,0.12
2169.0,946.994,0.119
2178.0,952.984,0.118
2187.0,958.951,0.118
2196.0,964.936,0.117
2205.0,970.921,0.117
2214.0,976.91,0.117
2223.0,982.908,0.116
2232.0,988.891,0.115
2241.0,994.889,0.115
2250.0,1000.889,0.114
2259.0,1006.887,0.114
2268.0,1012.876,0.113
2277.0,1018.897,0.113
2286.0,1024.898,0.112
2295.0,1030.898,0.112
2304.0,1036.897,0.111
2313.0,1042.91,0.111
2322.0,1048.914,0.11
2331.0,1054.918,0.11
2340.0,1059.643,0.109
2349.0,1063.02,0.109
2358.0,1065.366,0.108
2367.0,1067.038,0.108
2376.0,1068.227,0.107
2385.0,1069.077,0.107
2394.0,1069.707,0.107
2403.0,1070.164,0.107
2412.0,1070.519,0.106
2421.0,1070.788,0.106
2430.0,1071.003,0.106
2439.0,1071.166,0.106
2448.0,1071.314,0.105
2457.0,1071.424,0.105
2466.0,1071.519,0.105
2475.0,1071.605,0.105
2484.0,1071.676,0.105
2493.0,1071.744,0.105
2502.0,1071.798,0.104
2511.0,1071.851,0.104
2520.0,1071.907,0.104
2529.0,1071.935,0.104
2538.0,1071.976,0.104
2547.0,1072.004,0.104
2556.0,1072.038,0.104
2565.0,1072.062,0.103
2574.0,1072.087,0.103
2583.0,1072.114,0.103
2592.0,1072.125,0.103
2601.0,1072.157,0.103
2610.0,1072.176,0.103
2619.0,1072.186,0.103
2628.0,1072.193,0.103
2637.0,1072.21,0.103
2646.0,1072.224,0.103
2655.0,1072.233,0.103

File: TUBS_TGA_N2_40K_R2.csv
Time (s),Temperature (K),Mass (mg)
0.0,305.094,0.94
9.0,305.054,0.939
18.0,305.014,0.938
27.0,304.953,0.937
36.0,304.928,0.936
45.0,304.89,0.936
54.0,304.866,0.935
63.0,304.826,0.935
72.0,304.811,0.934
81.0,304.802,0.933
90.0,304.775,0.933
99.0,304.755,0.933
108.0,304.751,0.932
117.0,304.736,0.932
126.0,304.688,0.931
135.0,304.668,0.931
144.0,304.663,0.931
153.0,304.66,0.93
162.0,304.648,0.93
171.0,304.631,0.93
180.0,304.628,0.93
189.0,304.625,0.929
198.0,304.61,0.929
207.0,304.595,0.929
216.0,304.578,0.929
225.0,304.57,0.929
234.0,304.57,0.928
243.0,304.56,0.928
252.0,304.544,0.928
261.0,304.54,0.928
270.0,304.528,0.928
279.0,304.525,0.928
288.0,304.523,0.928
297.0,304.51,0.928
306.0,304.506,0.928
315.0,304.522,0.927
324.0,304.499,0.927
333.0,304.517,0.927
342.0,304.495,0.927
351.0,304.498,0.927
360.0,304.487,0.927
369.0,304.462,0.927
378.0,304.484,0.927
387.0,304.469,0.927
396.0,304.462,0.926
405.0,304.459,0.926
414.0,304.487,0.926
423.0,304.463,0.926
432.0,304.468,0.926
441.0,304.465,0.926
450.0,304.464,0.926
459.0,304.472,0.926
468.0,304.464,0.926
477.0,304.463,0.926
486.0,304.457,0.926
495.0,304.458,0.926
504.0,304.446,0.926
513.0,304.462,0.926
522.0,304.463,0.926
531.0,304.463,0.926
540.0,304.449,0.926
549.0,304.45,0.926
558.0,304.465,0.925
567.0,304.466,0.925
576.0,304.462,0.925
585.0,304.451,0.925
594.0,304.442,0.925
603.0,304.439,0.925
612.0,304.432,0.925
621.0,304.444,0.925
630.0,304.458,0.925
639.0,304.455,0.925
648.0,304.439,0.925
657.0,304.448,0.925
666.0,304.444,0.925
675.0,304.446,0.925
684.0,304.462,0.925
693.0,304.452,0.925
702.0,304.425,0.925
711.0,304.448,0.925
720.0,304.431,0.925
729.0,304.45,0.925
738.0,304.433,0.925
747.0,304.462,0.925
756.0,304.436,0.925
765.0,304.452,0.925
774.0,304.443,0.925
783.0,304.447,0.925
792.0,304.431,0.925
801.0,304.458,0.925
810.0,304.44,0.925
819.0,304.439,0.925
828.0,304.441,0.925
837.0,304.443,0.925
846.0,304.444,0.925
855.0,304.453,0.925
864.0,304.455,0.925
873.0,304.445,0.925
882.0,304.437,0.925
891.0,304.439,0.925
900.0,304.452,0.925
909.0,304.438,0.925
918.0,304.455,0.925
927.0,304.449,0.925
936.0,304.446,0.925
945.0,304.467,0.925
954.0,304.456,0.925
963.0,304.452,0.925
972.0,304.448,0.925
981.0,304.443,0.925
990.0,304.438,0.925
999.0,304.441,0.925
1008.0,304.45,0.925
1017.0,304.442,0.924
1026.0,304.444,0.924
1035.0,304.458,0.924
1044.0,304.45,0.924
1053.0,304.44,0.924
1062.0,304.448,0.924
1071.0,304.445,0.924
1080.0,304.452,0.924
1089.0,304.462,0.924
1098.0,304.463,0.924
1107.0,304.455,0.925
1116.0,304.452,0.924
1125.0,304.438,0.924
1134.0,304.444,0.924
1143.0,304.461,0.924
1152.0,304.456,0.924
1161.0,304.474,0.925
1170.0,304.444,0.925
1179.0,304.443,0.925
1188.0,304.45,0.924
1197.0,304.446,0.924
1206.0,305.894,0.922
1215.0,310.446,0.925
1224.0,316.17,0.926
1233.0,322.042,0.925
1242.0,327.966,0.923
1251.0,333.889,0.922
1260.0,339.794,0.921
1269.0,345.716,0.92
1278.0,351.656,0.919
1287.0,357.608,0.917
1296.0,363.55,0.916
1305.0,369.501,0.915
1314.0,375.476,0.915
1323.0,381.445,0.915
1332.0,387.447,0.914
1341.0,393.444,0.914
1350.0,399.459,0.914
1359.0,405.502,0.914
1368.0,411.549,0.914
1377.0,417.617,0.914
1386.0,423.694,0.914
1395.0,429.774,0.914
1404.0,435.869,0.913
1413.0,441.969,0.913
1422.0,448.108,0.912
1431.0,454.234,0.911
1440.0,460.373,0.91
1449.0,466.52,0.909
1458.0,472.691,0.907
1467.0,478.868,0.905
1476.0,485.042,0.903
1485.0,491.208,0.901
1494.0,497.375,0.899
1503.0,503.558,0.896
1512.0,509.722,0.892
1521.0,515.888,0.889
1530.0,522.058,0.885
1539.0,528.215,0.879
1548.0,534.369,0.874
1557.0,540.521,0.867
1566.0,546.66,0.859
1575.0,552.808,0.85
1584.0,558.936,0.841
1593.0,565.06,0.83
1602.0,571.182,0.82
1611.0,577.292,0.808
1620.0,583.391,0.795
1629.0,589.478,0.781
1638.0,595.559,0.765
1647.0,601.634,0.748
1656.0,607.69,0.728
1665.0,613.747,0.705
1674.0,619.785,0.681
1683.0,625.824,0.653
1692.0,631.857,0.624
1701.0,637.859,0.593
1710.0,643.868,0.56
1719.0,649.862,0.525
1728.0,655.837,0.488
1737.0,661.801,0.447
1746.0,667.771,0.402
1755.0,673.719,0.354
1764.0,679.663,0.306
1773.0,685.636,0.263
1782.0,691.587,0.232
1791.0,697.552,0.216
1800.0,703.491,0.209
1809.0,709.443,0.205
1818.0,715.384,0.202
1827.0,721.303,0.199
1836.0,727.241,0.195
1845.0,733.173,0.192
1854.0,739.092,0.189
1863.0,745.012,0.187
1872.0,750.937,0.184
1881.0,756.87,0.181
1890.0,762.793,0.179
1899.0,768.711,0.177
1908.0,774.645,0.175
1917.0,780.565,0.174
1926.0,786.488,0.173
1935.0,792.42,0.171
1944.0,798.347,0.17
1953.0,804.284,0.168
1962.0,810.215,0.167
1971.0,816.147,0.166
1980.0,822.07,0.165
1989.0,828.014,0.164
1998.0,833.954,0.163
2007.0,839.885,0.162
2016.0,845.819,0.161
2025.0,851.761,0.16
2034.0,857.704,0.159
2043.0,863.647,0.158
2052.0,869.605,0.157
2061.0,875.546,0.156
2070.0,881.497,0.156
2079.0,887.449,0.155
2088.0,893.411,0.154
2097.0,899.368,0.154
2106.0,905.327,0.153
2115.0,911.29,0.152
2124.0,917.268,0.151
2133.0,923.236,0.151
2142.0,929.202,0.15
2151.0,935.179,0.15
2160.0,941.147,0.149
2169.0,947.118,0.149
2178.0,953.095,0.148
2187.0,959.064,0.147
2196.0,965.034,0.147
2205.0,971.022,0.147
2214.0,976.999,0.146
2223.0,982.973,0.146
2232.0,988.949,0.146
2241.0,994.93,0.145
2250.0,1000.911,0.145
2259.0,1006.903,0.144
2268.0,1012.901,0.144
2277.0,1018.897,0.144
2286.0,1024.887,0.143
2295.0,1030.894,0.143
2304.0,1036.895,0.142
2313.0,1042.899,0.142
2322.0,1048.898,0.142
2331.0,1054.886,0.141
2340.0,1059.697,0.141
2349.0,1063.097,0.14
2358.0,1065.461,0.14
2367.0,1067.146,0.14
2376.0,1068.333,0.14
2385.0,1069.197,0.14
2394.0,1069.821,0.14
2403.0,1070.296,0.139
2412.0,1070.643,0.139
2421.0,1070.908,0.139
2430.0,1071.121,0.139
2439.0,1071.292,0.139
2448.0,1071.431,0.139
2457.0,1071.544,0.139
2466.0,1071.645,0.139
2475.0,1071.733,0.138
2484.0,1071.798,0.138
2493.0,1071.861,0.138
2502.0,1071.913,0.138
2511.0,1071.969,0.138
2520.0,1072.002,0.138
2529.0,1072.047,0.138
2538.0,1072.084,0.138
2547.0,1072.119,0.138
2556.0,1072.139,0.137
2565.0,1072.168,0.137
2574.0,1072.188,0.137
2583.0,1072.21,0.137
2592.0,1072.233,0.137
2601.0,1072.258,0.137
2610.0,1072.259,0.137
2619.0,1072.275,0.137
2628.0,1072.28,0.137
2637.0,1072.289,0.137
2646.0,1072.312,0.137
2655.0,1072.312,0.137

File: TUBS_TGA_N2_40K_R3.csv
Time (s),Temperature (K),Mass (mg)
0.0,305.071,0.95
9.0,305.043,0.949
18.0,304.995,0.948
27.0,304.959,0.947
36.0,304.899,0.946
45.0,304.888,0.946
54.0,304.858,0.945
63.0,304.845,0.944
72.0,304.817,0.944
81.0,304.783,0.943
90.0,304.751,0.943
99.0,304.744,0.943
108.0,304.734,0.942
117.0,304.704,0.942
126.0,304.696,0.942
135.0,304.683,0.941
144.0,304.663,0.941
153.0,304.65,0.941
162.0,304.631,0.94
171.0,304.629,0.94
180.0,304.62,0.94
189.0,304.626,0.94
198.0,304.6,0.939
207.0,304.609,0.939
216.0,304.572,0.939
225.0,304.576,0.939
234.0,304.579,0.939
243.0,304.552,0.939
252.0,304.537,0.939
261.0,304.529,0.939
270.0,304.541,0.938
279.0,304.543,0.938
288.0,304.512,0.938
297.0,304.512,0.938
306.0,304.514,0.938
315.0,304.517,0.938
324.0,304.497,0.938
333.0,304.494,0.938
342.0,304.507,0.937
351.0,304.498,0.937
360.0,304.483,0.937
369.0,304.494,0.937
378.0,304.487,0.937
387.0,304.466,0.937
396.0,304.496,0.937
405.0,304.495,0.937
414.0,304.493,0.937
423.0,304.478,0.937
432.0,304.473,0.937
441.0,304.486,0.936
450.0,304.485,0.936
459.0,304.457,0.936
468.0,304.458,0.936
477.0,304.472,0.936
486.0,304.459,0.936
495.0,304.447,0.936
504.0,304.453,0.936
513.0,304.462,0.936
522.0,304.438,0.936
531.0,304.457,0.936
540.0,304.46,0.936
549.0,304.456,0.936
558.0,304.461,0.936
567.0,304.446,0.936
576.0,304.452,0.936
585.0,304.46,0.936
594.0,304.459,0.936
603.0,304.448,0.936
612.0,304.463,0.936
621.0,304.455,0.936
630.0,304.472,0.936
639.0,304.448,0.936
648.0,304.456,0.936
657.0,304.469,0.936
666.0,304.466,0.935
675.0,304.468,0.936
684.0,304.462,0.935
693.0,304.459,0.935
702.0,304.464,0.935
711.0,304.462,0.935
720.0,304.45,0.935
729.0,304.471,0.935
738.0,304.452,0.936
747.0,304.458,0.935
756.0,304.466,0.935
765.0,304.454,0.935
774.0,304.451,0.935
783.0,304.466,0.935
792.0,304.439,0.935
801.0,304.451,0.935
810.0,304.453,0.935
819.0,304.459,0.935
828.0,304.457,0.935
837.0,304.47,0.935
846.0,304.456,0.935
855.0,304.457,0.935
864.0,304.454,0.935
873.0,304.454,0.935
882.0,304.438,0.935
891.0,304.451,0.935
900.0,304.445,0.935
909.0,304.456,0.935
918.0,304.453,0.935
927.0,304.465,0.935
936.0,304.462,0.935
945.0,304.461,0.935
954.0,304.455,0.935
963.0,304.453,0.935
972.0,304.449,0.935
981.0,304.452,0.935
990.0,304.46,0.935
999.0,304.458,0.935
1008.0,304.458,0.935
1017.0,304.466,0.935
1026.0,304.477,0.935
1035.0,304.477,0.935
1044.0,304.468,0.935
1053.0,304.479,0.935
1062.0,304.472,0.935
1071.0,304.482,0.935
1080.0,304.462,0.935
1089.0,304.468,0.935
1098.0,304.472,0.935
1107.0,304.485,0.935
1116.0,304.471,0.935
1125.0,304.463,0.935
1134.0,304.454,0.935
1143.0,304.462,0.935
1152.0,304.487,0.935
1161.0,304.478,0.935
1170.0,304.469,0.935
1179.0,304.472,0.935
1188.0,304.49,0.935
1197.0,304.479,0.935
1206.0,305.92,0.933
1215.0,310.555,0.936
1224.0,316.343,0.937
1233.0,322.25,0.935
1242.0,328.178,0.934
1251.0,334.105,0.932
1260.0,340.044,0.931
1269.0,345.978,0.93
1278.0,351.918,0.929
1287.0,357.859,0.927
1296.0,363.818,0.926
1305.0,369.781,0.926
1314.0,375.743,0.925
1323.0,381.749,0.925
1332.0,387.745,0.925
1341.0,393.755,0.924
1350.0,399.784,0.924
1359.0,405.817,0.924
1368.0,411.881,0.924
1377.0,417.93,0.924
1386.0,424.028,0.924
1395.0,430.106,0.924
1404.0,436.206,0.923
1413.0,442.318,0.923
1422.0,448.439,0.922
1431.0,454.574,0.921
1440.0,460.725,0.92
1449.0,466.877,0.919
1458.0,473.041,0.917
1467.0,479.215,0.915
1476.0,485.387,0.913
1485.0,491.552,0.911
1494.0,497.738,0.908
1503.0,503.91,0.905
1512.0,510.074,0.902
1521.0,516.237,0.898
1530.0,522.415,0.894
1539.0,528.579,0.889
1548.0,534.731,0.882
1557.0,540.889,0.876
1566.0,547.02,0.868
1575.0,553.163,0.859
1584.0,559.297,0.849
1593.0,565.418,0.839
1602.0,571.533,0.828
1611.0,577.654,0.817
1620.0,583.756,0.804
1629.0,589.84,0.79
1638.0,595.927,0.775
1647.0,602.006,0.757
1656.0,608.066,0.737
1665.0,614.125,0.715
1674.0,620.162,0.69
1683.0,626.188,0.663
1692.0,632.222,0.634
1701.0,638.238,0.603
1710.0,644.234,0.57
1719.0,650.226,0.536
1728.0,656.218,0.498
1737.0,662.184,0.457
1746.0,668.131,0.413
1755.0,674.089,0.365
1764.0,680.045,0.317
1773.0,685.993,0.275
1782.0,691.959,0.245
1791.0,697.919,0.23
1800.0,703.871,0.224
1809.0,709.805,0.22
1818.0,715.747,0.216
1827.0,721.685,0.213
1836.0,727.618,0.21
1845.0,733.553,0.207
1854.0,739.472,0.204
1863.0,745.402,0.201
1872.0,751.327,0.199
1881.0,757.255,0.196
1890.0,763.175,0.194
1899.0,769.109,0.192
1908.0,775.032,0.191
1917.0,780.959,0.189
1926.0,786.894,0.188
1935.0,792.828,0.186
1944.0,798.757,0.185
1953.0,804.691,0.184
1962.0,810.624,0.182
1971.0,816.554,0.181
1980.0,822.49,0.18
1989.0,828.428,0.179
1998.0,834.344,0.178
2007.0,840.288,0.177
2016.0,846.226,0.176
2025.0,852.156,0.175
2034.0,858.101,0.175
2043.0,864.055,0.174
2052.0,870.001,0.173
2061.0,875.946,0.172
2070.0,881.901,0.171
2079.0,887.856,0.171
2088.0,893.812,0.17
2097.0,899.771,0.169
2106.0,905.724,0.168
2115.0,911.685,0.168
2124.0,917.652,0.167
2133.0,923.607,0.167
2142.0,929.575,0.166
2151.0,935.543,0.165
2160.0,941.51,0.165
2169.0,947.476,0.164
2178.0,953.438,0.164
2187.0,959.41,0.163
2196.0,965.368,0.163
2205.0,971.342,0.163
2214.0,977.306,0.162
2223.0,983.285,0.162
2232.0,989.261,0.161
2241.0,995.238,0.161
2250.0,1001.225,0.161
2259.0,1007.198,0.16
2268.0,1013.185,0.16
2277.0,1019.178,0.159
2286.0,1025.168,0.159
2295.0,1031.166,0.159
2304.0,1037.155,0.159
2313.0,1043.144,0.158
2322.0,1049.141,0.158
2331.0,1055.142,0.157
2340.0,1059.943,0.157
2349.0,1063.307,0.157
2358.0,1065.633,0.157
2367.0,1067.27,0.157
2376.0,1068.427,0.156
2385.0,1069.256,0.156
2394.0,1069.861,0.156
2403.0,1070.309,0.156
2412.0,1070.645,0.156
2421.0,1070.895,0.156
2430.0,1071.098,0.156
2439.0,1071.268,0.155
2448.0,1071.399,0.155
2457.0,1071.508,0.155
2466.0,1071.613,0.155
2475.0,1071.688,0.155
2484.0,1071.762,0.155
2493.0,1071.816,0.155
2502.0,1071.869,0.155
2511.0,1071.92,0.154
2520.0,1071.961,0.154
2529.0,1072.0,0.154
2538.0,1072.032,0.154
2547.0,1072.063,0.154
2556.0,1072.092,0.154
2565.0,1072.102,0.154
2574.0,1072.124,0.154
2583.0,1072.148,0.154
2592.0,1072.162,0.154
2601.0,1072.179,0.153
2610.0,1072.192,0.153
2619.0,1072.213,0.153
2628.0,1072.213,0.153
2637.0,1072.225,0.153
2646.0,1072.234,0.153
2655.0,1072.24,0.153