Folder: matl-db/Wood/Calibration_Data/TUBS (part 2)

File: TUBS_TGA_N2_10K_R1.csv
Time (s),Temperature (K),Mass (mg)
0.0,304.878,1.04
40.0,304.716,1.034
84.0,304.619,1.03
200.0,304.47,1.024
403.0,304.361,1.02
845.0,304.336,1.018
1011.0,304.329,1.016
1211.52,305.0,1.016
1234.898,308.0,1.017
1255.476,311.0,1.017
1275.113,314.0,1.016
1294.14,317.0,1.016
1312.673,320.0,1.015
1330.813,323.0,1.014
1349.063,326.0,1.014
1367.031,329.0,1.013
1384.951,332.0,1.012
1402.935,335.0,1.011
1420.682,338.0,1.01
1438.629,341.0,1.008
1456.488,344.0,1.008
1474.386,347.0,1.008
1492.257,350.0,1.007
1510.057,353.0,1.006
1527.924,356.0,1.006
1545.727,359.0,1.006
1563.577,362.0,1.005
1581.421,365.0,1.005
1599.214,368.0,1.005
1616.983,371.0,1.005
1634.923,374.0,1.005
1652.721,377.0,1.005
1670.395,380.0,1.005
1688.247,383.0,1.005
1706.011,386.0,1.005
1723.738,389.0,1.005
1741.598,392.0,1.005
1759.269,395.0,1.005
1776.968,398.0,1.005
1794.784,401.0,1.005
1812.529,404.0,1.005
1830.323,407.0,1.004
1847.976,410.0,1.004
1865.767,413.0,1.004
1883.541,416.0,1.004
1901.212,419.0,1.004
1918.982,422.0,1.004
1936.723,425.0,1.003
1954.406,428.0,1.003
1972.237,431.0,1.003
1989.923,434.0,1.002
2007.645,437.0,1.002
2025.353,440.0,1.001
2043.076,443.0,1.0
2060.833,446.0,0.999
2078.535,449.0,0.999
2096.252,452.0,0.998
2113.927,455.0,0.997
2131.742,458.0,0.996
2149.376,461.0,0.996
2167.083,464.0,0.995
2184.804,467.0,0.994
2202.551,470.0,0.993
2220.222,473.0,0.993
2238.022,476.0,0.992
2255.69,479.0,0.991
2273.424,482.0,0.99
2291.193,485.0,0.989
2308.908,488.0,0.988
2326.675,491.0,0.987
2344.395,494.0,0.986
2362.157,497.0,0.984
2379.891,500.0,0.983
2397.712,503.0,0.981
2415.414,506.0,0.98
2433.194,509.0,0.978
2451.018,512.0,0.976
2468.823,515.0,0.973
2486.606,518.0,0.97
2504.458,521.0,0.968
2522.232,524.0,0.964
2539.994,527.0,0.961
2557.833,530.0,0.957
2575.669,533.0,0.953
2593.448,536.0,0.948
2611.311,539.0,0.944
2629.205,542.0,0.939
2647.064,545.0,0.933
2664.912,548.0,0.928
2682.718,551.0,0.922
2700.6,554.0,0.916
2718.43,557.0,0.909
2736.302,560.0,0.902
2754.17,563.0,0.894
2772.108,566.0,0.886
2790.03,569.0,0.877
2807.867,572.0,0.867
2825.717,575.0,0.857
2843.695,578.0,0.846
2861.564,581.0,0.835
2879.512,584.0,0.822
2897.401,587.0,0.81
2915.343,590.0,0.796
2933.237,593.0,0.781
2951.195,596.0,0.766
2969.14,599.0,0.749
2987.11,602.0,0.732
3004.961,605.0,0.715
3022.947,608.0,0.696
3040.939,611.0,0.678
3058.876,614.0,0.658
3076.819,617.0,0.638
3094.796,620.0,0.618
3112.81,623.0,0.596
3130.825,626.0,0.574
3148.764,629.0,0.551
3166.706,632.0,0.527
3184.724,635.0,0.502
3202.756,638.0,0.475
3220.803,641.0,0.447
3238.814,644.0,0.418
3256.853,647.0,0.389
3274.836,650.0,0.361
3292.856,653.0,0.334
3310.859,656.0,0.311
3328.861,659.0,0.293
3346.834,662.0,0.28
3364.893,665.0,0.272
3382.914,668.0,0.267
3400.948,671.0,0.264
3418.944,674.0,0.262
3436.976,677.0,0.26
3455.048,680.0,0.257
3473.105,683.0,0.255
3491.158,686.0,0.254
3509.214,689.0,0.251
3527.313,692.0,0.249
3545.437,695.0,0.248
3563.481,698.0,0.246
3581.652,701.0,0.244
3599.731,704.0,0.242
3617.749,707.0,0.24
3635.885,710.0,0.239
3653.981,713.0,0.237
3672.103,716.0,0.235
3690.253,719.0,0.234
3708.369,722.0,0.232
3726.476,725.0,0.231
3744.599,728.0,0.23
3762.7,731.0,0.228
3780.827,734.0,0.227
3799.0,737.0,0.226
3817.096,740.0,0.225
3835.247,743.0,0.223
3853.347,746.0,0.223
3871.503,749.0,0.222
3889.654,752.0,0.221
3907.783,755.0,0.22
3925.855,758.0,0.219
3944.012,761.0,0.218
3962.139,764.0,0.217
3980.223,767.0,0.217
3998.325,770.0,0.216
4016.446,773.0,0.215
4034.551,776.0,0.214
4052.625,779.0,0.214
4070.756,782.0,0.213
4088.864,785.0,0.212
4107.017,788.0,0.212
4125.064,791.0,0.211
4143.108,794.0,0.211
4161.266,797.0,0.21
4179.331,800.0,0.209
4197.42,803.0,0.209
4215.488,806.0,0.208
4233.586,809.0,0.207
4251.636,812.0,0.207
4269.799,815.0,0.206
4287.792,818.0,0.206
4305.876,821.0,0.205
4323.929,824.0,0.205
4341.988,827.0,0.204
4360.081,830.0,0.203
4378.156,833.0,0.203
4396.248,836.0,0.202
4414.254,839.0,0.202
4432.347,842.0,0.202
4450.418,845.0,0.201
4468.488,848.0,0.201
4486.572,851.0,0.2
4504.627,854.0,0.2
4522.587,857.0,0.199
4540.644,860.0,0.199
4558.732,863.0,0.198
4576.879,866.0,0.198
4594.898,869.0,0.197
4613.0,872.0,0.199
4630.97,875.0,0.197
4649.078,878.0,0.196
4667.132,881.0,0.196
4685.235,884.0,0.195
4703.307,887.0,0.195
4721.418,890.0,0.195
4739.488,893.0,0.195
4757.622,896.0,0.194
4775.706,899.0,0.194
4793.829,902.0,0.193
4811.897,905.0,0.193
4830.017,908.0,0.193
4848.108,911.0,0.193
4866.196,914.0,0.192
4884.313,917.0,0.192
4902.379,920.0,0.191
4920.467,923.0,0.191
4938.568,926.0,0.191
4956.633,929.0,0.19
4974.731,932.0,0.19
4992.823,935.0,0.19
5010.911,938.0,0.19
5028.971,941.0,0.189
5047.066,944.0,0.189
5065.094,947.0,0.189
5083.185,950.0,0.189
5101.263,953.0,0.189
5119.396,956.0,0.188
5137.544,959.0,0.188
5155.667,962.0,0.188
5173.791,965.0,0.187
5191.935,968.0,0.187
5210.023,971.0,0.187
5228.12,974.0,0.187
5246.193,977.0,0.187
5264.232,980.0,0.186
5282.393,983.0,0.186
5300.48,986.0,0.186
5318.549,989.0,0.185
5336.638,992.0,0.185
5354.765,995.0,0.185
5372.865,998.0,0.185
5390.895,1001.0,0.184
5409.088,1004.0,0.184
5427.14,1007.0,0.184
5445.21,1010.0,0.184
5463.328,1013.0,0.183
5481.407,1016.0,0.183
5499.42,1019.0,0.183
5517.466,1022.0,0.183
5535.591,1025.0,0.182
5553.61,1028.0,0.182
5571.671,1031.0,0.182
5589.79,1034.0,0.182
5607.825,1037.0,0.181
5625.84,1040.0,0.181
5643.907,1043.0,0.181
5661.927,1046.0,0.18
5679.925,1049.0,0.18
5697.905,1052.0,0.18
5715.964,1055.0,0.179
5734.012,1058.0,0.179
5752.052,1061.0,0.179
5770.112,1064.0,0.179
5788.099,1067.0,0.179
5809.837,1070.0,0.178
5870.0,1072.268,0.178
5930.0,1072.603,0.177
5990.0,1072.708,0.176
6050.0,1072.757,0.177
6110.0,1072.792,0.176
6120.0,1072.795,0.176

File: TUBS_TGA_N2_10K_R2.csv
Time (s),Temperature (K),Mass (mg)
0.0,305.085,1.02
9.0,305.029,1.019
18.0,304.987,1.018
27.0,304.961,1.017
36.0,304.925,1.016
45.0,304.887,1.015
54.0,304.848,1.015
63.0,304.84,1.014
72.0,304.804,1.013
81.0,304.799,1.013
90.0,304.774,1.012
99.0,304.736,1.012
108.0,304.748,1.011
117.0,304.729,1.011
126.0,304.684,1.011
135.0,304.68,1.01
144.0,304.669,1.01
153.0,304.656,1.01
162.0,304.643,1.009
171.0,304.635,1.009
180.0,304.631,1.009
189.0,304.607,1.008
198.0,304.598,1.008
207.0,304.592,1.008
216.0,304.587,1.008
225.0,304.586,1.008
234.0,304.57,1.008
243.0,304.565,1.007
252.0,304.57,1.007
261.0,304.551,1.007
270.0,304.549,1.007
279.0,304.536,1.007
288.0,304.538,1.006
297.0,304.523,1.006
306.0,304.523,1.006
315.0,304.51,1.006
324.0,304.49,1.006
333.0,304.511,1.006
342.0,304.501,1.006
351.0,304.487,1.005
360.0,304.497,1.005
369.0,304.484,1.005
378.0,304.487,1.005
387.0,304.495,1.005
396.0,304.482,1.005
405.0,304.478,1.005
414.0,304.479,1.005
423.0,304.473,1.005
432.0,304.485,1.005
441.0,304.469,1.005
450.0,304.477,1.005
459.0,304.485,1.005
468.0,304.484,1.005
477.0,304.459,1.005
486.0,304.463,1.005
495.0,304.472,1.005
504.0,304.471,1.004
513.0,304.459,1.004
522.0,304.468,1.004
531.0,304.464,1.004
540.0,304.458,1.004
549.0,304.46,1.004
558.0,304.456,1.004
567.0,304.448,1.004
576.0,304.467,1.004
585.0,304.451,1.004
594.0,304.462,1.004
603.0,304.457,1.004
612.0,304.461,1.004
621.0,304.457,1.004
630.0,304.464,1.004
639.0,304.463,1.004
648.0,304.473,1.004
657.0,304.452,1.004
666.0,304.457,1.004
675.0,304.443,1.004
684.0,304.473,1.004
693.0,304.463,1.003
702.0,304.456,1.003
711.0,304.481,1.004
720.0,304.452,1.004
729.0,304.442,1.003
738.0,304.463,1.003
747.0,304.47,1.003
756.0,304.453,1.003
765.0,304.45,1.003
774.0,304.452,1.003
783.0,304.456,1.003
792.0,304.463,1.003
801.0,304.456,1.003
810.0,304.446,1.003
819.0,304.437,1.003
828.0,304.453,1.003
837.0,304.438,1.003
846.0,304.452,1.003
855.0,304.459,1.003
864.0,304.462,1.003
873.0,304.439,1.003
882.0,304.447,1.003
891.0,304.457,1.003
900.0,304.455,1.003
909.0,304.463,1.003
918.0,304.453,1.003
927.0,304.446,1.003
936.0,304.455,1.003
945.0,304.454,1.003
954.0,304.454,1.003
963.0,304.447,1.003
972.0,304.455,1.003
981.0,304.458,1.003
990.0,304.449,1.003
999.0,304.447,1.003
1008.0,304.443,1.003
1017.0,304.456,1.003
1026.0,304.454,1.003
1035.0,304.451,1.003
1044.0,304.44,1.003
1053.0,304.45,1.003
1062.0,304.452,1.003
1071.0,304.46,1.003
1080.0,304.467,1.003
1089.0,304.477,1.003
1098.0,304.45,1.003
1107.0,304.457,1.003
1116.0,304.454,1.003
1125.0,304.449,1.003
1134.0,304.472,1.003
1143.0,304.45,1.003
1152.0,304.448,1.003
1161.0,304.449,1.003
1170.0,304.453,1.003
1179.0,304.442,1.003
1188.0,304.457,1.003
1197.0,304.457,1.003
1206.0,305.918,1.001
1215.0,310.453,1.004
1224.0,316.198,1.006
1233.0,322.095,1.004
1242.0,328.037,1.003
1251.0,333.972,1.002
1260.0,339.904,1.0
1269.0,345.846,0.999
1278.0,351.8,0.997
1287.0,357.737,0.996
1296.0,363.702,0.995
1305.0,369.677,0.994
1314.0,375.635,0.993
1323.0,381.62,0.993
1332.0,387.62,0.993
1341.0,393.616,0.993
1350.0,399.643,0.992
1359.0,405.68,0.992
1368.0,411.726,0.993
1377.0,417.794,0.992
1386.0,423.858,0.992
1395.0,429.945,0.992
1404.0,436.056,0.991
1413.0,442.158,0.991
1422.0,448.283,0.99
1431.0,454.405,0.99
1440.0,460.555,0.989
1449.0,466.712,0.987
1458.0,472.867,0.985
1467.0,479.03,0.983
1476.0,485.189,0.981
1485.0,491.356,0.979
1494.0,497.525,0.976
1503.0,503.699,0.973
1512.0,509.869,0.969
1521.0,516.022,0.965
1530.0,522.195,0.961
1539.0,528.345,0.955
1548.0,534.501,0.949
1557.0,540.658,0.941
1566.0,546.793,0.933
1575.0,552.927,0.923
1584.0,559.062,0.913
1593.0,565.171,0.902
1602.0,571.283,0.89
1611.0,577.399,0.877
1620.0,583.502,0.863
1629.0,589.589,0.848
1638.0,595.679,0.831
1647.0,601.74,0.811
1656.0,607.803,0.79
1665.0,613.857,0.765
1674.0,619.885,0.738
1683.0,625.922,0.709
1692.0,631.939,0.677
1701.0,637.954,0.642
1710.0,643.949,0.606
1719.0,649.936,0.568
1728.0,655.912,0.527
1737.0,661.869,0.482
1746.0,667.816,0.432
1755.0,673.772,0.379
1764.0,679.706,0.326
1773.0,685.659,0.279
1782.0,691.616,0.247
1791.0,697.59,0.23
1800.0,703.531,0.223
1809.0,709.481,0.219
1818.0,715.416,0.215
1827.0,721.357,0.211
1836.0,727.286,0.208
1845.0,733.225,0.204
1854.0,739.155,0.201
1863.0,745.082,0.198
1872.0,751.006,0.195
1881.0,756.936,0.193
1890.0,762.863,0.19
1899.0,768.785,0.188
1908.0,774.712,0.186
1917.0,780.636,0.184
1926.0,786.572,0.183
1935.0,792.508,0.181
1944.0,798.427,0.18
1953.0,804.358,0.178
1962.0,810.289,0.177
1971.0,816.229,0.176
1980.0,822.165,0.175
1989.0,828.097,0.173
1998.0,834.04,0.172
2007.0,839.987,0.171
2016.0,845.92,0.17
2025.0,851.862,0.169
2034.0,857.807,0.168
2043.0,863.756,0.167
2052.0,869.702,0.166
2061.0,875.648,0.165
2070.0,881.607,0.164
2079.0,887.545,0.164
2088.0,893.514,0.163
2097.0,899.468,0.162
2106.0,905.437,0.161
2115.0,911.4,0.16
2124.0,917.372,0.16
2133.0,923.338,0.159
2142.0,929.303,0.158
2151.0,935.277,0.158
2160.0,941.246,0.157
2169.0,947.219,0.156
2178.0,953.187,0.156
2187.0,959.164,0.155
2196.0,965.135,0.155
2205.0,971.115,0.154
2214.0,977.081,0.154
2223.0,983.047,0.154
2232.0,989.022,0.153
2241.0,995.008,0.153
2250.0,1000.98,0.152
2259.0,1006.96,0.152
2268.0,1012.948,0.151
2277.0,1018.937,0.151
2286.0,1024.918,0.151
2295.0,1030.903,0.15
2304.0,1036.892,0.15
2313.0,1042.895,0.15
2322.0,1048.882,0.149
2331.0,1054.86,0.149
2340.0,1059.571,0.148
2349.0,1062.929,0.148
2358.0,1065.262,0.148
2367.0,1066.92,0.147
2376.0,1068.092,0.147
2385.0,1068.942,0.147
2394.0,1069.565,0.147
2403.0,1070.024,0.147
2412.0,1070.371,0.146
2421.0,1070.639,0.146
2430.0,1070.85,0.146
2439.0,1071.033,0.146
2448.0,1071.159,0.146
2457.0,1071.281,0.146
2466.0,1071.377,0.146
2475.0,1071.46,0.146
2484.0,1071.541,0.145
2493.0,1071.598,0.145
2502.0,1071.649,0.145
2511.0,1071.703,0.145
2520.0,1071.752,0.145
2529.0,1071.781,0.144
2538.0,1071.822,0.144
2547.0,1071.848,0.144
2556.0,1071.882,0.144
2565.0,1071.914,0.144
2574.0,1071.935,0.144
2583.0,1071.957,0.144
2592.0,1071.979,0.144
2601.0,1072.002,0.144
2610.0,1072.01,0.144
2619.0,1072.031,0.144
2628.0,1072.063,0.144
2637.0,1072.061,0.143
2646.0,1072.074,0.143
2655.0,1072.085,0.143

File: TUBS_TGA_N2_10K_R3.csv
Time (s),Temperature (K),Mass (mg)
0.0,305.044,0.98
9.0,305.006,0.979
18.0,304.976,0.978
27.0,304.942,0.977
36.0,304.881,0.976
45.0,304.86,0.975
54.0,304.823,0.974
63.0,304.813,0.974
72.0,304.789,0.973
81.0,304.765,0.973
90.0,304.759,0.973
99.0,304.744,0.972
108.0,304.713,0.971
117.0,304.696,0.97
126.0,304.681,0.97
135.0,304.683,0.97
144.0,304.654,0.969
153.0,304.661,0.969
162.0,304.648,0.969
171.0,304.625,0.969
180.0,304.617,0.968
189.0,304.614,0.968
198.0,304.59,0.968
207.0,304.594,0.967
216.0,304.574,0.967
225.0,304.57,0.967
234.0,304.565,0.967
243.0,304.557,0.967
252.0,304.552,0.966
261.0,304.55,0.966
270.0,304.539,0.966
279.0,304.532,0.966
288.0,304.518,0.966
297.0,304.52,0.966
306.0,304.499,0.965
315.0,304.498,0.965
324.0,304.485,0.965
333.0,304.519,0.965
342.0,304.515,0.965
351.0,304.496,0.965
360.0,304.489,0.964
369.0,304.498,0.964
378.0,304.479,0.964
387.0,304.497,0.964
396.0,304.492,0.964
405.0,304.481,0.964
414.0,304.483,0.964
423.0,304.494,0.964
432.0,304.471,0.964
441.0,304.476,0.964
450.0,304.473,0.964
459.0,304.476,0.964
468.0,304.484,0.964
477.0,304.474,0.964
486.0,304.47,0.964
495.0,304.474,0.964
504.0,304.47,0.963
513.0,304.475,0.963
522.0,304.449,0.963
531.0,304.461,0.963
540.0,304.468,0.963
549.0,304.464,0.963
558.0,304.472,0.963
567.0,304.47,0.963
576.0,304.461,0.963
585.0,304.475,0.963
594.0,304.468,0.963
603.0,304.48,0.963
612.0,304.466,0.963
621.0,304.459,0.963
630.0,304.463,0.963
639.0,304.466,0.963
648.0,304.463,0.963
657.0,304.464,0.963
666.0,304.463,0.962
675.0,304.467,0.962
684.0,304.452,0.962
693.0,304.459,0.962
702.0,304.473,0.962
711.0,304.475,0.962
720.0,304.463,0.962
729.0,304.447,0.962
738.0,304.461,0.962
747.0,304.463,0.962
756.0,304.47,0.962
765.0,304.462,0.962
774.0,304.465,0.962
783.0,304.455,0.962
792.0,304.461,0.962
801.0,304.456,0.962
810.0,304.464,0.962
819.0,304.46,0.962
828.0,304.456,0.962
837.0,304.457,0.962
846.0,304.454,0.962
855.0,304.447,0.962
864.0,304.471,0.962
873.0,304.461,0.962
882.0,304.461,0.962
891.0,304.46,0.962
900.0,304.451,0.962
909.0,304.468,0.962
918.0,304.456,0.962
927.0,304.452,0.961
936.0,304.457,0.962
945.0,304.45,0.962
954.0,304.457,0.962
963.0,304.448,0.962
972.0,304.445,0.962
981.0,304.451,0.962
990.0,304.464,0.962
999.0,304.462,0.962
1008.0,304.477,0.962
1017.0,304.473,0.961
1026.0,304.467,0.961
1035.0,304.443,0.961
1044.0,304.455,0.961
1053.0,304.453,0.961
1062.0,304.469,0.961
1071.0,304.439,0.961
1080.0,304.471,0.961
1089.0,304.474,0.961
1098.0,304.462,0.961
1107.0,304.47,0.962
1116.0,304.453,0.961
1125.0,304.465,0.961
1134.0,304.47,0.961
1143.0,304.449,0.962
1152.0,304.466,0.961
1161.0,304.455,0.961
1170.0,304.461,0.961
1179.0,304.438,0.961
1188.0,304.466,0.961
1197.0,304.461,0.961
1206.0,305.847,0.959
1215.0,310.375,0.963
1224.0,316.086,0.964
1233.0,321.955,0.963
1242.0,327.844,0.962
1251.0,333.751,0.961
1260.0,339.656,0.96
1269.0,345.592,0.958
1278.0,351.508,0.957
1287.0,357.46,0.955
1296.0,363.378,0.954
1305.0,369.34,0.953
1314.0,375.288,0.953
1323.0,381.273,0.952
1332.0,387.278,0.952
1341.0,393.256,0.952
1350.0,399.277,0.952
1359.0,405.316,0.952
1368.0,411.37,0.952
1377.0,417.427,0.952
1386.0,423.502,0.951
1395.0,429.584,0.951
1404.0,435.678,0.951
1413.0,441.792,0.951
1422.0,447.898,0.95
1431.0,454.036,0.949
1440.0,460.175,0.948
1449.0,466.324,0.947
1458.0,472.485,0.945
1467.0,478.657,0.943
1476.0,484.824,0.941
1485.0,490.992,0.938
1494.0,497.168,0.936
1503.0,503.328,0.932
1512.0,509.494,0.929
1521.0,515.675,0.925
1530.0,521.827,0.92
1539.0,527.99,0.914
1548.0,534.16,0.908
1557.0,540.298,0.9
1566.0,546.456,0.892
1575.0,552.582,0.882
1584.0,558.72,0.871
1593.0,564.86,0.86
1602.0,570.989,0.848
1611.0,577.111,0.834
1620.0,583.215,0.82
1629.0,589.301,0.804
1638.0,595.394,0.787
1647.0,601.473,0.768
1656.0,607.538,0.745
1665.0,613.605,0.721
1674.0,619.656,0.694
1683.0,625.688,0.664
1692.0,631.716,0.632
1701.0,637.734,0.597
1710.0,643.748,0.561
1719.0,649.743,0.522
1728.0,655.722,0.481
1737.0,661.701,0.436
1746.0,667.666,0.386
1755.0,673.613,0.333
1764.0,679.578,0.28
1773.0,685.543,0.233
1782.0,691.518,0.201
1791.0,697.475,0.185
1800.0,703.446,0.177
1809.0,709.398,0.173
1818.0,715.337,0.169
1827.0,721.264,0.165
1836.0,727.213,0.162
1845.0,733.141,0.158
1854.0,739.076,0.155
1863.0,745.01,0.152
1872.0,750.958,0.149
1881.0,756.87,0.146
1890.0,762.797,0.144
1899.0,768.735,0.142
1908.0,774.663,0.14
1917.0,780.598,0.138
1926.0,786.534,0.137
1935.0,792.466,0.135
1944.0,798.401,0.133
1953.0,804.343,0.132
1962.0,810.283,0.13
1971.0,816.22,0.129
1980.0,822.148,0.128
1989.0,828.09,0.127
1998.0,834.026,0.126
2007.0,839.971,0.125
2016.0,845.909,0.124
2025.0,851.851,0.123
2034.0,857.796,0.122
2043.0,863.747,0.121
2052.0,869.697,0.12
2061.0,875.651,0.119
2070.0,881.602,0.118
2079.0,887.568,0.117
2088.0,893.517,0.116
2097.0,899.482,0.115
2106.0,905.447,0.115
2115.0,911.409,0.114
2124.0,917.375,0.113
2133.0,923.335,0.113
2142.0,929.306,0.112
2151.0,935.278,0.112
2160.0,941.246,0.111
2169.0,947.211,0.11
2178.0,953.182,0.11
2187.0,959.171,0.109
2196.0,965.134,0.109
2205.0,971.106,0.108
2214.0,977.084,0.108
2223.0,983.05,0.108
2232.0,989.035,0.107
2241.0,995.004,0.107
2250.0,1000.99,0.106
2259.0,1006.975,0.106
2268.0,1012.949,0.105
2277.0,1018.947,0.105
2286.0,1024.922,0.105
2295.0,1030.922,0.104
2304.0,1036.916,0.104
2313.0,1042.917,0.104
2322.0,1048.903,0.103
2331.0,1054.914,0.103
2340.0,1059.719,0.102
2349.0,1063.08,0.102
2358.0,1065.434,0.102
2367.0,1067.067,0.102
2376.0,1068.239,0.101
2385.0,1069.075,0.101
2394.0,1069.682,0.101
2403.0,1070.135,0.101
2412.0,1070.485,0.101
2421.0,1070.751,0.101
2430.0,1070.95,0.101
2439.0,1071.118,0.1
2448.0,1071.268,0.1
2457.0,1071.381,0.1
2466.0,1071.474,0.1
2475.0,1071.558,0.1
2484.0,1071.637,0.1
2493.0,1071.692,0.1
2502.0,1071.748,0.099
2511.0,1071.795,0.099
2520.0,1071.838,0.099
2529.0,1071.882,0.099
2538.0,1071.914,0.099
2547.0,1071.939,0.099
2556.0,1071.973,0.099
2565.0,1072.005,0.099
2574.0,1072.025,0.099
2583.0,1072.047,0.098
2592.0,1072.06,0.098
2601.0,1072.078,0.098
2610.0,1072.095,0.098
2619.0,1072.104,0.098
2628.0,1072.111,0.098
2637.0,1072.131,0.098
2646.0,1072.144,0.098
2655.0,1072.159,0.098

File: TUBS_TGA_N2_20K_R1.csv
Time (s),Temperature (K),Mass (mg)
0.0,304.035,1.09
9.0,305.056,1.089
18.0,305.006,1.088
27.0,304.966,1.087
36.0,304.938,1.086
45.0,304.909,1.085
54.0,304.865,1.084
63.0,304.848,1.084
72.0,304.825,1.083
81.0,304.801,1.082
90.0,304.761,1.082
99.0,304.745,1.082
108.0,304.742,1.081
117.0,304.725,1.08
126.0,304.687,1.08
135.0,304.686,1.079
144.0,304.666,1.079
153.0,304.648,1.079
162.0,304.649,1.079
171.0,304.628,1.078
180.0,304.606,1.078
189.0,304.616,1.078
198.0,304.612,1.077
207.0,304.593,1.077
216.0,304.582,1.077
225.0,304.546,1.077
234.0,304.561,1.076
243.0,304.562,1.076
252.0,304.542,1.076
261.0,304.528,1.076
270.0,304.532,1.076
279.0,304.527,1.076
288.0,304.524,1.075
297.0,304.512,1.075
306.0,304.512,1.075
315.0,304.484,1.075
324.0,304.506,1.075
333.0,304.489,1.075
342.0,304.483,1.074
351.0,304.48,1.074
360.0,304.47,1.074
369.0,304.486,1.074
378.0,304.475,1.074
387.0,304.473,1.074
396.0,304.475,1.074
405.0,304.454,1.074
414.0,304.471,1.074
423.0,304.459,1.074
432.0,304.474,1.073
441.0,304.474,1.073
450.0,304.459,1.073
459.0,304.456,1.073
468.0,304.471,1.073
477.0,304.46,1.073
486.0,304.442,1.073
495.0,304.456,1.073
504.0,304.457,1.073
513.0,304.452,1.073
522.0,304.453,1.073
531.0,304.454,1.073
540.0,304.452,1.073
549.0,304.452,1.073
558.0,304.449,1.073
567.0,304.463,1.072
576.0,304.445,1.073
585.0,304.443,1.072
594.0,304.461,1.072
603.0,304.451,1.072
612.0,304.448,1.072
621.0,304.43,1.072
630.0,304.434,1.072
639.0,304.452,1.072
648.0,304.451,1.072
657.0,304.452,1.072
666.0,304.464,1.072
675.0,304.465,1.072
684.0,304.446,1.072
693.0,304.456,1.072
702.0,304.451,1.072
711.0,304.453,1.072
720.0,304.459,1.072
729.0,304.455,1.072
738.0,304.455,1.072
747.0,304.451,1.072
756.0,304.447,1.072
765.0,304.456,1.072
774.0,304.447,1.072
783.0,304.458,1.072
792.0,304.45,1.072
801.0,304.468,1.072
810.0,304.464,1.071
819.0,304.455,1.071
828.0,304.468,1.071
837.0,304.45,1.072
846.0,304.464,1.071
855.0,304.468,1.071
864.0,304.459,1.071
873.0,304.464,1.071
882.0,304.468,1.071
891.0,304.463,1.071
900.0,304.46,1.071
909.0,304.45,1.071
918.0,304.455,1.071
927.0,304.461,1.071
936.0,304.463,1.071
945.0,304.442,1.071
954.0,304.455,1.071
963.0,304.473,1.071
972.0,304.463,1.071
981.0,304.471,1.071
990.0,304.457,1.071
999.0,304.448,1.071
1008.0,304.445,1.071
1017.0,304.446,1.071
1026.0,304.459,1.071
1035.0,304.435,1.071
1044.0,304.435,1.071
1053.0,304.443,1.071
1062.0,304.458,1.071
1071.0,304.454,1.071
1080.0,304.451,1.071
1089.0,304.449,1.071
1098.0,304.444,1.071
1107.0,304.453,1.071
1116.0,304.44,1.071
1125.0,304.443,1.071
1134.0,304.464,1.071
1143.0,304.446,1.071
1152.0,304.449,1.071
1161.0,304.443,1.071
1170.0,304.457,1.071
1179.0,304.463,1.071
1188.0,304.452,1.071
1197.0,304.448,1.071
1206.0,305.862,1.069
1215.0,310.375,1.072
1224.0,316.047,1.074
1233.0,321.914,1.072
1242.0,327.776,1.071
1251.0,333.676,1.07
1260.0,339.597,1.068
1269.0,345.514,1.067
1278.0,351.424,1.065
1287.0,357.355,1.064
1296.0,363.296,1.062
1305.0,369.248,1.062
1314.0,375.2,1.061
1323.0,381.192,1.061
1332.0,387.167,1.06
1341.0,393.166,1.06
1350.0,399.189,1.06
1359.0,405.22,1.06
1368.0,411.257,1.06
1377.0,417.315,1.06
1386.0,423.383,1.06
1395.0,429.474,1.06
1404.0,435.556,1.059
1413.0,441.667,1.059
1422.0,447.785,1.058
1431.0,453.919,1.057
1440.0,460.055,1.056
1449.0,466.209,1.055
1458.0,472.377,1.053
1467.0,478.541,1.051
1476.0,484.694,1.049
1485.0,490.869,1.046
1494.0,497.049,1.043
1503.0,503.215,1.04
1512.0,509.379,1.037
1521.0,515.562,1.032
1530.0,521.73,1.028
1539.0,527.891,1.022
1548.0,534.046,1.015
1557.0,540.196,1.007
1566.0,546.342,0.998
1575.0,552.501,0.988
1584.0,558.63,0.976
1593.0,564.766,0.964
1602.0,570.901,0.951
1611.0,577.024,0.937
1620.0,583.174,0.92
1629.0,589.293,0.899
1638.0,595.406,0.878
1647.0,601.499,0.855
1656.0,607.59,0.83
1665.0,613.65,0.802
1674.0,619.686,0.772
1683.0,625.718,0.738
1692.0,631.726,0.703
1701.0,637.748,0.666
1710.0,643.762,0.627
1719.0,649.75,0.586
1728.0,655.743,0.541
1737.0,661.709,0.492
1746.0,667.67,0.439
1755.0,673.624,0.382
1764.0,679.587,0.324
1773.0,685.559,0.274
1782.0,691.526,0.24
1791.0,697.493,0.223
1800.0,703.457,0.215
1809.0,709.405,0.21
1818.0,715.34,0.206
1827.0,721.297,0.202
1836.0,727.229,0.198
1845.0,733.164,0.194
1854.0,739.092,0.19
1863.0,745.021,0.187
1872.0,750.94,0.183
1881.0,756.855,0.18
1890.0,762.779,0.177
1899.0,768.701,0.174
1908.0,774.611,0.172
1917.0,780.527,0.17
1926.0,786.428,0.168
1935.0,792.34,0.166
1944.0,798.255,0.164
1953.0,804.168,0.162
1962.0,810.091,0.161
1971.0,816.008,0.159
1980.0,821.925,0.158
1989.0,827.848,0.157
1998.0,833.77,0.156
2007.0,839.708,0.155
2016.0,845.635,0.153
2025.0,851.568,0.152
2034.0,857.5,0.151
2043.0,863.446,0.15
2052.0,869.39,0.149
2061.0,875.334,0.148
2070.0,881.279,0.147
2079.0,887.23,0.146
2088.0,893.181,0.145
2097.0,899.135,0.144
2106.0,905.092,0.144
2115.0,911.046,0.143
2124.0,917.031,0.142
2133.0,922.999,0.141
2142.0,928.98,0.141
2151.0,934.946,0.14
2160.0,940.93,0.139
2169.0,946.913,0.139
2178.0,952.885,0.138
2187.0,958.85,0.137
2196.0,964.847,0.137
2205.0,970.827,0.136
2214.0,976.799,0.136
2223.0,982.785,0.135
2232.0,988.769,0.135
2241.0,994.754,0.134
2250.0,1000.743,0.134
2259.0,1006.726,0.133
2268.0,1012.715,0.133
2277.0,1018.704,0.132
2286.0,1024.701,0.132
2295.0,1030.69,0.131
2304.0,1036.673,0.131
2313.0,1042.661,0.13
2322.0,1048.657,0.13
2331.0,1054.646,0.129
2340.0,1059.4,0.129
2349.0,1062.779,0.128
2358.0,1065.15,0.128
2367.0,1066.829,0.128
2376.0,1068.043,0.127
2385.0,1068.921,0.127
2394.0,1069.569,0.127
2403.0,1070.039,0.127
2412.0,1070.409,0.127
2421.0,1070.698,0.126
2430.0,1070.92,0.126
2439.0,1071.106,0.126
2448.0,1071.247,0.126
2457.0,1071.368,0.126
2466.0,1071.477,0.126
2475.0,1071.568,0.126
2484.0,1071.643,0.125
2493.0,1071.72,0.125
2502.0,1071.79,0.125
2511.0,1071.842,0.125
2520.0,1071.901,0.125
2529.0,1071.939,0.125
2538.0,1071.975,0.124
2547.0,1072.015,0.124
2556.0,1072.043,0.124
2565.0,1072.086,0.124
2574.0,1072.112,0.124
2583.0,1072.147,0.124
2592.0,1072.165,0.124
2601.0,1072.182,0.124
2610.0,1072.213,0.124
2619.0,1072.232,0.124
2628.0,1072.256,0.124
2637.0,1072.262,0.123
2646.0,1072.284,0.123
2655.0,1072.296,0.123