Folder: matl-db/Wood/Calibration_Data/TUBS (part 8)

File: TUBS_Wood_TGA_N2_20K_R2.csv
Time (s),Temperature (K),Mass (mg)
0.0,304.938,1.03
43.0,304.743,1.024
130.0,304.583,1.018
357.0,304.376,1.012
995.0,304.364,1.01
1072.0,304.354,1.01
1210.753,306.0,1.008
1221.755,309.0,1.011
1231.712,312.0,1.009
1241.484,315.0,1.009
1251.138,318.0,1.008
1260.642,321.0,1.008
1270.006,324.0,1.008
1279.353,327.0,1.007
1288.598,330.0,1.006
1297.764,333.0,1.005
1306.954,336.0,1.004
1316.032,339.0,1.004
1325.14,342.0,1.003
1334.188,345.0,1.002
1343.241,348.0,1.001
1352.235,351.0,1.001
1361.234,354.0,1.0
1370.206,357.0,0.999
1379.198,360.0,0.999
1388.154,363.0,0.998
1397.114,366.0,0.998
1406.036,369.0,0.998
1414.978,372.0,0.998
1423.928,375.0,0.998
1432.796,378.0,0.998
1441.691,381.0,0.997
1450.596,384.0,0.997
1459.458,387.0,0.997
1468.35,390.0,0.997
1477.214,393.0,0.997
1486.051,396.0,0.997
1494.89,399.0,0.997
1503.726,402.0,0.997
1512.553,405.0,0.997
1521.404,408.0,0.997
1530.196,411.0,0.997
1539.071,414.0,0.997
1547.85,417.0,0.997
1556.641,420.0,0.996
1565.482,423.0,0.996
1574.285,426.0,0.996
1583.064,429.0,0.996
1591.863,432.0,0.996
1600.667,435.0,0.996
1609.458,438.0,0.995
1618.228,441.0,0.995
1627.032,444.0,0.994
1635.82,447.0,0.994
1644.598,450.0,0.993
1653.385,453.0,0.993
1662.155,456.0,0.992
1670.939,459.0,0.991
1679.709,462.0,0.99
1688.487,465.0,0.99
1697.267,468.0,0.988
1706.069,471.0,0.987
1714.834,474.0,0.986
1723.618,477.0,0.986
1732.384,480.0,0.985
1741.163,483.0,0.984
1749.962,486.0,0.983
1758.773,489.0,0.982
1767.542,492.0,0.981
1776.374,495.0,0.98
1785.157,498.0,0.979
1793.953,501.0,0.977
1802.74,504.0,0.976
1811.601,507.0,0.975
1820.413,510.0,0.973
1829.234,513.0,0.972
1838.092,516.0,0.97
1846.911,519.0,0.968
1855.746,522.0,0.965
1864.553,525.0,0.963
1873.388,528.0,0.961
1882.259,531.0,0.957
1891.091,534.0,0.954
1899.935,537.0,0.951
1908.799,540.0,0.947
1917.662,543.0,0.943
1926.55,546.0,0.939
1935.42,549.0,0.934
1944.297,552.0,0.93
1953.179,555.0,0.925
1962.057,558.0,0.919
1970.908,561.0,0.914
1979.81,564.0,0.908
1988.726,567.0,0.902
1997.635,570.0,0.895
2006.567,573.0,0.888
2015.464,576.0,0.881
2024.379,579.0,0.873
2033.274,582.0,0.864
2042.209,585.0,0.855
2051.108,588.0,0.845
2060.043,591.0,0.835
2068.991,594.0,0.823
2077.934,597.0,0.811
2086.863,600.0,0.799
2095.802,603.0,0.785
2104.772,606.0,0.771
2113.731,609.0,0.757
2122.702,612.0,0.741
2131.672,615.0,0.725
2140.61,618.0,0.709
2149.603,621.0,0.691
2158.576,624.0,0.674
2167.586,627.0,0.655
2176.546,630.0,0.637
2185.541,633.0,0.617
2194.544,636.0,0.597
2203.544,639.0,0.576
2212.584,642.0,0.555
2221.628,645.0,0.533
2230.651,648.0,0.509
2239.673,651.0,0.484
2248.715,654.0,0.459
2257.738,657.0,0.432
2266.803,660.0,0.405
2275.816,663.0,0.378
2284.86,666.0,0.351
2293.893,669.0,0.328
2302.902,672.0,0.309
2311.924,675.0,0.293
2320.938,678.0,0.283
2329.991,681.0,0.276
2339.012,684.0,0.273
2348.009,687.0,0.27
2357.112,690.0,0.268
2366.104,693.0,0.266
2375.18,696.0,0.264
2384.214,699.0,0.262
2393.288,702.0,0.26
2402.312,705.0,0.258
2411.384,708.0,0.257
2420.479,711.0,0.255
2429.555,714.0,0.253
2438.627,717.0,0.251
2447.664,720.0,0.25
2456.732,723.0,0.248
2465.798,726.0,0.247
2474.887,729.0,0.245
2483.97,732.0,0.243
2493.054,735.0,0.242
2502.13,738.0,0.241
2511.199,741.0,0.24
2520.304,744.0,0.238
2529.408,747.0,0.237
2538.492,750.0,0.236
2547.587,753.0,0.235
2556.632,756.0,0.234
2565.742,759.0,0.233
2574.844,762.0,0.232
2583.918,765.0,0.231
2593.017,768.0,0.23
2602.079,771.0,0.229
2611.121,774.0,0.229
2620.171,777.0,0.228
2629.273,780.0,0.227
2638.36,783.0,0.227
2647.409,786.0,0.226
2656.477,789.0,0.225
2665.559,792.0,0.224
2674.649,795.0,0.224
2683.719,798.0,0.223
2692.769,801.0,0.222
2701.834,804.0,0.222
2710.866,807.0,0.221
2719.926,810.0,0.221
2728.994,813.0,0.22
2738.063,816.0,0.22
2747.12,819.0,0.219
2756.201,822.0,0.219
2765.24,825.0,0.218
2774.286,828.0,0.217
2783.353,831.0,0.217
2792.438,834.0,0.217
2801.471,837.0,0.216
2810.53,840.0,0.215
2819.573,843.0,0.215
2828.637,846.0,0.215
2837.695,849.0,0.214
2846.741,852.0,0.214
2855.8,855.0,0.213
2864.867,858.0,0.213
2873.903,861.0,0.212
2882.942,864.0,0.212
2891.978,867.0,0.211
2901.069,870.0,0.211
2910.111,873.0,0.211
2919.123,876.0,0.21
2928.175,879.0,0.21
2937.249,882.0,0.209
2946.299,885.0,0.209
2955.336,888.0,0.209
2964.411,891.0,0.208
2973.445,894.0,0.208
2982.497,897.0,0.207
2991.554,900.0,0.207
3000.61,903.0,0.206
3009.633,906.0,0.206
3018.671,909.0,0.206
3027.745,912.0,0.206
3036.78,915.0,0.205
3045.835,918.0,0.205
3054.855,921.0,0.205
3063.915,924.0,0.204
3072.958,927.0,0.204
3082.012,930.0,0.204
3091.037,933.0,0.203
3100.089,936.0,0.204
3109.127,939.0,0.203
3118.174,942.0,0.203
3127.225,945.0,0.203
3136.301,948.0,0.202
3145.357,951.0,0.202
3154.435,954.0,0.202
3163.455,957.0,0.202
3172.495,960.0,0.202
3181.596,963.0,0.201
3190.655,966.0,0.201
3199.694,969.0,0.201
3208.75,972.0,0.201
3217.805,975.0,0.201
3226.861,978.0,0.2
3235.89,981.0,0.2
3244.931,984.0,0.2
3253.967,987.0,0.2
3263.006,990.0,0.2
3272.056,993.0,0.199
3281.107,996.0,0.199
3290.159,999.0,0.199
3299.192,1002.0,0.199
3308.209,1005.0,0.199
3317.252,1008.0,0.198
3326.311,1011.0,0.198
3335.343,1014.0,0.198
3344.357,1017.0,0.198
3353.415,1020.0,0.198
3362.455,1023.0,0.198
3371.503,1026.0,0.197
3380.534,1029.0,0.197
3389.549,1032.0,0.197
3398.579,1035.0,0.197
3407.607,1038.0,0.197
3416.613,1041.0,0.196
3425.622,1044.0,0.196
3434.614,1047.0,0.196
3443.618,1050.0,0.196
3452.657,1053.0,0.196
3461.682,1056.0,0.196
3470.696,1059.0,0.195
3479.733,1062.0,0.195
3488.758,1065.0,0.195
3503.52,1068.0,0.195
3560.0,1071.597,0.194
3620.0,1072.181,0.193
3680.0,1072.371,0.193
3740.0,1072.468,0.192
3800.0,1072.516,0.191
3810.0,1072.531,0.191

File: TUBS_Wood_TGA_N2_20K_R3.csv
Time (s),Temperature (K),Mass (mg)
0.0,304.943,1.04
43.0,304.743,1.034
123.0,304.584,1.028
304.0,304.432,1.022
889.0,304.385,1.018
1208.58,305.5,1.016
1219.968,308.5,1.021
1230.035,311.5,1.019
1239.875,314.5,1.018
1249.506,317.5,1.017
1259.09,320.5,1.017
1268.494,323.5,1.017
1277.824,326.5,1.016
1287.024,329.5,1.015
1296.243,332.5,1.014
1305.442,335.5,1.014
1314.568,338.5,1.013
1323.67,341.5,1.012
1332.717,344.5,1.011
1341.745,347.5,1.01
1350.773,350.5,1.01
1359.821,353.5,1.009
1368.799,356.5,1.008
1377.766,359.5,1.008
1386.755,362.5,1.008
1395.686,365.5,1.007
1404.633,368.5,1.007
1413.544,371.5,1.007
1422.49,374.5,1.007
1431.404,377.5,1.007
1440.279,380.5,1.007
1449.209,383.5,1.006
1458.076,386.5,1.006
1466.952,389.5,1.006
1475.789,392.5,1.006
1484.646,395.5,1.006
1493.5,398.5,1.006
1502.329,401.5,1.006
1511.144,404.5,1.006
1519.971,407.5,1.006
1528.8,410.5,1.006
1537.658,413.5,1.006
1546.457,416.5,1.006
1555.247,419.5,1.006
1564.058,422.5,1.006
1572.868,425.5,1.005
1581.676,428.5,1.005
1590.455,431.5,1.005
1599.3,434.5,1.005
1608.069,437.5,1.005
1616.871,440.5,1.004
1625.623,443.5,1.004
1634.414,446.5,1.003
1643.202,449.5,1.003
1651.936,452.5,1.002
1660.726,455.5,1.001
1669.519,458.5,1.0
1678.286,461.5,1.0
1687.058,464.5,0.999
1695.821,467.5,0.998
1704.607,470.5,0.997
1713.42,473.5,0.996
1722.183,476.5,0.995
1730.971,479.5,0.994
1739.789,482.5,0.993
1748.585,485.5,0.992
1757.354,488.5,0.991
1766.177,491.5,0.99
1774.955,494.5,0.989
1783.795,497.5,0.988
1792.56,500.5,0.987
1801.38,503.5,0.985
1810.184,506.5,0.984
1819.003,509.5,0.982
1827.825,512.5,0.981
1836.624,515.5,0.979
1845.49,518.5,0.977
1854.309,521.5,0.974
1863.149,524.5,0.972
1871.979,527.5,0.969
1880.822,530.5,0.966
1889.668,533.5,0.962
1898.541,536.5,0.958
1907.366,539.5,0.955
1916.263,542.5,0.951
1925.122,545.5,0.946
1933.962,548.5,0.942
1942.883,551.5,0.937
1951.748,554.5,0.932
1960.64,557.5,0.926
1969.538,560.5,0.921
1978.407,563.5,0.915
1987.286,566.5,0.909
1996.203,569.5,0.902
2005.092,572.5,0.895
2013.988,575.5,0.887
2022.945,578.5,0.879
2031.849,581.5,0.871
2040.737,584.5,0.861
2049.697,587.5,0.851
2058.611,590.5,0.841
2067.538,593.5,0.83
2076.506,596.5,0.818
2085.428,599.5,0.806
2094.385,602.5,0.792
2103.344,605.5,0.778
2112.318,608.5,0.763
2121.249,611.5,0.748
2130.22,614.5,0.732
2139.202,617.5,0.715
2148.157,620.5,0.698
2157.153,623.5,0.679
2166.152,626.5,0.661
2175.135,629.5,0.642
2184.123,632.5,0.623
2193.113,635.5,0.602
2202.13,638.5,0.581
2211.095,641.5,0.559
2220.142,644.5,0.537
2229.186,647.5,0.512
2238.21,650.5,0.487
2247.248,653.5,0.461
2256.283,656.5,0.433
2265.336,659.5,0.406
2274.377,662.5,0.378
2283.418,665.5,0.351
2292.444,668.5,0.327
2301.466,671.5,0.306
2310.476,674.5,0.291
2319.534,677.5,0.279
2328.559,680.5,0.272
2337.571,683.5,0.268
2346.588,686.5,0.265
2355.642,689.5,0.263
2364.696,692.5,0.261
2373.704,695.5,0.259
2382.803,698.5,0.257
2391.84,701.5,0.255
2400.879,704.5,0.253
2409.952,707.5,0.251
2419.006,710.5,0.25
2428.089,713.5,0.248
2437.133,716.5,0.246
2446.246,719.5,0.245
2455.325,722.5,0.243
2464.382,725.5,0.241
2473.486,728.5,0.24
2482.553,731.5,0.238
2491.634,734.5,0.237
2500.738,737.5,0.235
2509.791,740.5,0.234
2518.894,743.5,0.233
2527.982,746.5,0.232
2537.075,749.5,0.231
2546.141,752.5,0.229
2555.197,755.5,0.228
2564.318,758.5,0.227
2573.409,761.5,0.226
2582.464,764.5,0.226
2591.6,767.5,0.225
2600.651,770.5,0.224
2609.74,773.5,0.223
2618.797,776.5,0.222
2627.905,779.5,0.221
2636.947,782.5,0.221
2646.033,785.5,0.22
2655.116,788.5,0.219
2664.167,791.5,0.219
2673.204,794.5,0.218
2682.317,797.5,0.217
2691.373,800.5,0.217
2700.418,803.5,0.216
2709.505,806.5,0.215
2718.594,809.5,0.215
2727.655,812.5,0.214
2736.71,815.5,0.214
2745.752,818.5,0.213
2754.813,821.5,0.213
2763.894,824.5,0.212
2772.943,827.5,0.211
2782.012,830.5,0.211
2791.051,833.5,0.21
2800.137,836.5,0.21
2809.161,839.5,0.209
2818.224,842.5,0.209
2827.277,845.5,0.209
2836.305,848.5,0.208
2845.35,851.5,0.207
2854.424,854.5,0.207
2863.481,857.5,0.207
2872.548,860.5,0.206
2881.586,863.5,0.206
2890.625,866.5,0.205
2899.686,869.5,0.205
2908.718,872.5,0.205
2917.775,875.5,0.204
2926.829,878.5,0.204
2935.904,881.5,0.203
2944.939,884.5,0.203
2954.003,887.5,0.202
2963.037,890.5,0.202
2972.096,893.5,0.202
2981.155,896.5,0.201
2990.193,899.5,0.201
2999.26,902.5,0.2
3008.313,905.5,0.2
3017.381,908.5,0.2
3026.426,911.5,0.199
3035.467,914.5,0.199
3044.497,917.5,0.199
3053.559,920.5,0.199
3062.623,923.5,0.198
3071.642,926.5,0.198
3080.684,929.5,0.197
3089.734,932.5,0.197
3098.785,935.5,0.197
3107.853,938.5,0.197
3116.881,941.5,0.197
3125.927,944.5,0.196
3134.997,947.5,0.196
3144.052,950.5,0.196
3153.128,953.5,0.196
3162.176,956.5,0.196
3171.217,959.5,0.195
3180.271,962.5,0.195
3189.35,965.5,0.195
3198.395,968.5,0.195
3207.452,971.5,0.194
3216.511,974.5,0.194
3225.533,977.5,0.194
3234.537,980.5,0.194
3243.596,983.5,0.194
3252.628,986.5,0.193
3261.658,989.5,0.193
3270.69,992.5,0.193
3279.755,995.5,0.193
3288.77,998.5,0.193
3297.854,1001.5,0.193
3306.855,1004.5,0.192
3315.866,1007.5,0.192
3324.893,1010.5,0.192
3333.943,1013.5,0.192
3342.967,1016.5,0.191
3352.006,1019.5,0.191
3361.041,1022.5,0.191
3370.081,1025.5,0.191
3379.111,1028.5,0.191
3388.097,1031.5,0.191
3397.103,1034.5,0.19
3406.104,1037.5,0.19
3415.124,1040.5,0.19
3424.131,1043.5,0.19
3433.146,1046.5,0.19
3442.157,1049.5,0.19
3451.171,1052.5,0.189
3460.187,1055.5,0.189
3469.213,1058.5,0.189
3478.217,1061.5,0.189
3487.248,1064.5,0.189
3500.11,1067.5,0.188
3550.0,1071.482,0.188
3610.0,1072.237,0.187
3670.0,1072.451,0.186
3730.0,1072.556,0.186
3790.0,1072.604,0.185
3810.0,1072.616,0.185

File: TUBS_Wood_TGA_N2_30K_R1.csv
Time (s),Temperature (K),Mass (mg)
0.0,304.961,1.05
39.0,304.803,1.044
114.0,304.625,1.038
286.0,304.471,1.032
822.0,304.391,1.028
915.0,304.411,1.028
1211.987,307.5,1.028
1218.732,310.5,1.031
1225.118,313.5,1.03
1231.408,316.5,1.028
1237.597,319.5,1.027
1243.78,322.5,1.027
1249.937,325.5,1.026
1256.078,328.5,1.026
1262.211,331.5,1.025
1268.304,334.5,1.024
1274.402,337.5,1.023
1280.467,340.5,1.023
1286.551,343.5,1.022
1292.643,346.5,1.021
1298.68,349.5,1.02
1304.734,352.5,1.019
1310.778,355.5,1.019
1316.828,358.5,1.018
1322.851,361.5,1.017
1328.875,364.5,1.017
1334.867,367.5,1.016
1340.886,370.5,1.016
1346.879,373.5,1.016
1352.855,376.5,1.016
1358.859,379.5,1.016
1364.819,382.5,1.015
1370.795,385.5,1.015
1376.737,388.5,1.015
1382.707,391.5,1.015
1388.633,394.5,1.015
1394.576,397.5,1.015
1400.504,400.5,1.015
1406.451,403.5,1.015
1412.361,406.5,1.015
1418.28,409.5,1.015
1424.199,412.5,1.015
1430.091,415.5,1.015
1435.986,418.5,1.015
1441.88,421.5,1.014
1447.769,424.5,1.014
1453.679,427.5,1.014
1459.543,430.5,1.014
1465.419,433.5,1.014
1471.288,436.5,1.014
1477.144,439.5,1.013
1483.033,442.5,1.013
1488.892,445.5,1.013
1494.748,448.5,1.012
1500.602,451.5,1.012
1506.426,454.5,1.011
1512.277,457.5,1.011
1518.143,460.5,1.01
1523.982,463.5,1.009
1529.82,466.5,1.008
1535.669,469.5,1.007
1541.492,472.5,1.007
1547.329,475.5,1.005
1553.145,478.5,1.004
1558.992,481.5,1.004
1564.822,484.5,1.003
1570.647,487.5,1.002
1576.49,490.5,1.001
1582.31,493.5,1.0
1588.178,496.5,0.999
1594.0,499.5,0.998
1599.829,502.5,0.997
1605.683,505.5,0.995
1611.53,508.5,0.994
1617.384,511.5,0.993
1623.234,514.5,0.992
1629.097,517.5,0.99
1634.939,520.5,0.988
1640.789,523.5,0.986
1646.647,526.5,0.984
1652.538,529.5,0.982
1658.39,532.5,0.98
1664.278,535.5,0.977
1670.155,538.5,0.974
1676.016,541.5,0.971
1681.901,544.5,0.967
1687.784,547.5,0.963
1693.663,550.5,0.959
1699.557,553.5,0.955
1705.456,556.5,0.951
1711.355,559.5,0.946
1717.251,562.5,0.941
1723.154,565.5,0.936
1729.065,568.5,0.93
1734.963,571.5,0.924
1740.887,574.5,0.918
1746.792,577.5,0.911
1752.709,580.5,0.904
1758.637,583.5,0.897
1764.573,586.5,0.889
1770.51,589.5,0.88
1776.435,592.5,0.871
1782.36,595.5,0.862
1788.308,598.5,0.851
1794.263,601.5,0.84
1800.214,604.5,0.829
1806.178,607.5,0.815
1812.107,610.5,0.802
1818.077,613.5,0.788
1824.038,616.5,0.773
1830.026,619.5,0.757
1836.0,622.5,0.741
1841.966,625.5,0.724
1847.948,628.5,0.707
1853.925,631.5,0.689
1859.923,634.5,0.671
1865.927,637.5,0.652
1871.928,640.5,0.632
1877.957,643.5,0.613
1883.948,646.5,0.592
1889.956,649.5,0.571
1895.961,652.5,0.548
1902.0,655.5,0.525
1908.044,658.5,0.5
1914.069,661.5,0.475
1920.123,664.5,0.447
1926.129,667.5,0.419
1932.191,670.5,0.391
1938.226,673.5,0.364
1944.243,676.5,0.34
1950.286,679.5,0.318
1956.315,682.5,0.3
1962.318,685.5,0.287
1968.352,688.5,0.279
1974.381,691.5,0.273
1980.429,694.5,0.27
1986.457,697.5,0.267
1992.509,700.5,0.264
1998.559,703.5,0.262
2004.592,706.5,0.261
2010.635,709.5,0.259
2016.698,712.5,0.257
2022.764,715.5,0.255
2028.809,718.5,0.254
2034.883,721.5,0.252
2040.949,724.5,0.25
2047.012,727.5,0.249
2053.076,730.5,0.247
2059.121,733.5,0.245
2065.189,736.5,0.244
2071.261,739.5,0.242
2077.314,742.5,0.241
2083.384,745.5,0.24
2089.455,748.5,0.238
2095.538,751.5,0.237
2101.606,754.5,0.236
2107.651,757.5,0.235
2113.705,760.5,0.234
2119.78,763.5,0.233
2125.867,766.5,0.232
2131.91,769.5,0.231
2137.98,772.5,0.23
2144.044,775.5,0.229
2150.115,778.5,0.228
2156.154,781.5,0.227
2162.218,784.5,0.227
2168.278,787.5,0.226
2174.345,790.5,0.225
2180.407,793.5,0.224
2186.448,796.5,0.224
2192.512,799.5,0.223
2198.562,802.5,0.223
2204.602,805.5,0.222
2210.661,808.5,0.221
2216.705,811.5,0.22
2222.758,814.5,0.22
2228.812,817.5,0.219
2234.866,820.5,0.219
2240.912,823.5,0.218
2246.974,826.5,0.218
2253.03,829.5,0.217
2259.067,832.5,0.216
2265.109,835.5,0.216
2271.183,838.5,0.215
2277.217,841.5,0.215
2283.261,844.5,0.214
2289.347,847.5,0.214
2295.402,850.5,0.214
2301.446,853.5,0.213
2307.517,856.5,0.212
2313.559,859.5,0.211
2319.602,862.5,0.211
2325.648,865.5,0.211
2331.694,868.5,0.21
2337.741,871.5,0.21
2343.781,874.5,0.21
2349.829,877.5,0.209
2355.872,880.5,0.209
2361.909,883.5,0.208
2367.946,886.5,0.208
2373.986,889.5,0.207
2380.006,892.5,0.207
2386.05,895.5,0.206
2392.06,898.5,0.206
2398.11,901.5,0.206
2404.122,904.5,0.205
2410.159,907.5,0.205
2416.171,910.5,0.204
2422.206,913.5,0.204
2428.231,916.5,0.204
2434.251,919.5,0.203
2440.277,922.5,0.203
2446.293,925.5,0.203
2452.337,928.5,0.202
2458.356,931.5,0.202
2464.384,934.5,0.202
2470.402,937.5,0.201
2476.442,940.5,0.201
2482.464,943.5,0.201
2488.482,946.5,0.201
2494.514,949.5,0.2
2500.543,952.5,0.2
2506.555,955.5,0.199
2512.584,958.5,0.199
2518.612,961.5,0.199
2524.611,964.5,0.199
2530.656,967.5,0.198
2536.671,970.5,0.198
2542.675,973.5,0.198
2548.714,976.5,0.198
2554.737,979.5,0.197
2560.748,982.5,0.197
2566.762,985.5,0.197
2572.763,988.5,0.197
2578.793,991.5,0.196
2584.803,994.5,0.196
2590.814,997.5,0.196
2596.831,1000.5,0.196
2602.83,1003.5,0.195
2608.847,1006.5,0.195
2614.863,1009.5,0.195
2620.89,1012.5,0.195
2626.882,1015.5,0.194
2632.889,1018.5,0.194
2638.896,1021.5,0.194
2644.911,1024.5,0.194
2650.929,1027.5,0.193
2656.936,1030.5,0.193
2662.943,1033.5,0.193
2668.946,1036.5,0.193
2674.96,1039.5,0.193
2680.978,1042.5,0.192
2686.994,1045.5,0.192
2692.972,1048.5,0.192
2698.996,1051.5,0.192
2705.02,1054.5,0.192
2711.03,1057.5,0.191
2717.035,1060.5,0.191
2725.303,1063.5,0.191
2740.0,1067.104,0.19
2800.0,1071.466,0.189
2860.0,1072.17,0.188
2920.0,1072.427,0.188
2980.0,1072.557,0.187
3040.0,1072.632,0.186

File: TUBS_Wood_TGA_N2_40K_R1.csv
Time (s),Temperature (K),Mass (mg)
0.0,304.978,0.96
45.0,304.805,0.954
132.0,304.628,0.948
362.0,304.48,0.942
703.0,304.404,0.94
1103.0,304.41,0.94
1203.788,305.0,0.938
1210.812,308.0,0.938
1215.946,311.0,0.941
1220.631,314.0,0.942
1225.232,317.0,0.941
1229.782,320.0,0.94
1234.34,323.0,0.939
1238.883,326.0,0.939
1243.422,329.0,0.938
1247.973,332.0,0.937
1252.516,335.0,0.937
1257.07,338.0,0.936
1261.603,341.0,0.935
1266.139,344.0,0.934
1270.673,347.0,0.934
1275.205,350.0,0.933
1279.748,353.0,0.932
1284.267,356.0,0.932
1288.801,359.0,0.931
1293.316,362.0,0.93
1297.848,365.0,0.93
1302.384,368.0,0.93
1306.873,371.0,0.929
1311.407,374.0,0.929
1315.925,377.0,0.929
1320.416,380.0,0.928
1324.924,383.0,0.928
1329.419,386.0,0.928
1333.926,389.0,0.928
1338.407,392.0,0.928
1342.894,395.0,0.928
1347.373,398.0,0.928
1351.85,401.0,0.928
1356.322,404.0,0.928
1360.781,407.0,0.928
1365.237,410.0,0.928
1369.688,413.0,0.928
1374.135,416.0,0.927
1378.583,419.0,0.927
1383.029,422.0,0.927
1387.466,425.0,0.927
1391.9,428.0,0.927
1396.347,431.0,0.927
1400.765,434.0,0.927
1405.194,437.0,0.927
1409.609,440.0,0.926
1414.025,443.0,0.926
1418.441,446.0,0.926
1422.831,449.0,0.926
1427.237,452.0,0.925
1431.634,455.0,0.925
1436.026,458.0,0.925
1440.409,461.0,0.924
1444.819,464.0,0.923
1449.201,467.0,0.923
1453.587,470.0,0.922
1457.977,473.0,0.921
1462.344,476.0,0.92
1466.725,479.0,0.919
1471.102,482.0,0.919
1475.479,485.0,0.918
1479.855,488.0,0.917
1484.231,491.0,0.916
1488.608,494.0,0.915
1492.979,497.0,0.914
1497.347,500.0,0.913
1501.711,503.0,0.912
1506.093,506.0,0.912
1510.46,509.0,0.911
1514.842,512.0,0.909
1519.218,515.0,0.908
1523.609,518.0,0.906
1527.972,521.0,0.905
1532.348,524.0,0.903
1536.738,527.0,0.901
1541.124,530.0,0.899
1545.507,533.0,0.897
1549.896,536.0,0.895
1554.292,539.0,0.892
1558.682,542.0,0.889
1563.067,545.0,0.886
1567.465,548.0,0.883
1571.872,551.0,0.879
1576.268,554.0,0.876
1580.666,557.0,0.871
1585.077,560.0,0.867
1589.481,563.0,0.863
1593.884,566.0,0.858
1598.3,569.0,0.854
1602.721,572.0,0.848
1607.132,575.0,0.843
1611.549,578.0,0.837
1615.984,581.0,0.831
1620.414,584.0,0.825
1624.828,587.0,0.818
1629.273,590.0,0.81
1633.709,593.0,0.803
1638.146,596.0,0.795
1642.579,599.0,0.786
1647.036,602.0,0.777
1651.478,605.0,0.767
1655.934,608.0,0.756
1660.379,611.0,0.745
1664.869,614.0,0.732
1669.308,617.0,0.72
1673.773,620.0,0.707
1678.254,623.0,0.693
1682.717,626.0,0.678
1687.192,629.0,0.663
1691.67,632.0,0.648
1696.147,635.0,0.632
1700.63,638.0,0.615
1705.122,641.0,0.599
1709.621,644.0,0.581
1714.117,647.0,0.563
1718.616,650.0,0.545
1723.131,653.0,0.525
1727.64,656.0,0.506
1732.161,659.0,0.485
1736.686,662.0,0.464
1741.211,665.0,0.441
1745.747,668.0,0.417
1750.267,671.0,0.393
1754.797,674.0,0.368
1759.34,677.0,0.343
1763.875,680.0,0.319
1768.393,683.0,0.297
1772.907,686.0,0.278
1777.427,689.0,0.263
1781.956,692.0,0.251
1786.474,695.0,0.243
1791.018,698.0,0.237
1795.537,701.0,0.234
1800.076,704.0,0.232
1804.619,707.0,0.229
1809.156,710.0,0.227
1813.699,713.0,0.226
1818.235,716.0,0.224
1822.766,719.0,0.222
1827.329,722.0,0.221
1831.87,725.0,0.219
1836.417,728.0,0.217
1840.961,731.0,0.216
1845.515,734.0,0.214
1850.059,737.0,0.213
1854.613,740.0,0.212
1859.154,743.0,0.211
1863.722,746.0,0.209
1868.267,749.0,0.208
1872.822,752.0,0.206
1877.39,755.0,0.205
1881.921,758.0,0.204
1886.473,761.0,0.203
1891.037,764.0,0.202
1895.587,767.0,0.201
1900.13,770.0,0.2
1904.692,773.0,0.199
1909.235,776.0,0.198
1913.783,779.0,0.198
1918.335,782.0,0.197
1922.888,785.0,0.196
1927.431,788.0,0.195
1931.98,791.0,0.194
1936.527,794.0,0.194
1941.084,797.0,0.193
1945.641,800.0,0.192
1950.178,803.0,0.192
1954.741,806.0,0.191
1959.286,809.0,0.191
1963.831,812.0,0.19
1968.373,815.0,0.189
1972.918,818.0,0.189
1977.48,821.0,0.188
1982.033,824.0,0.188
1986.574,827.0,0.187
1991.111,830.0,0.187
1995.658,833.0,0.186
2000.202,836.0,0.186
2004.75,839.0,0.185
2009.294,842.0,0.185
2013.83,845.0,0.184
2018.376,848.0,0.184
2022.935,851.0,0.183
2027.458,854.0,0.183
2032.033,857.0,0.182
2036.568,860.0,0.182
2041.11,863.0,0.181
2045.646,866.0,0.181
2050.195,869.0,0.18
2054.719,872.0,0.18
2059.255,875.0,0.18
2063.8,878.0,0.179
2068.336,881.0,0.179
2072.859,884.0,0.178
2077.394,887.0,0.178
2081.928,890.0,0.177
2086.447,893.0,0.177
2090.977,896.0,0.177
2095.499,899.0,0.176
2100.029,902.0,0.176
2104.542,905.0,0.176
2109.065,908.0,0.175
2113.585,911.0,0.175
2118.107,914.0,0.175
2122.626,917.0,0.174
2127.148,920.0,0.174
2131.663,923.0,0.173
2136.185,926.0,0.173
2140.694,929.0,0.173
2145.21,932.0,0.172
2149.733,935.0,0.172
2154.245,938.0,0.172
2158.757,941.0,0.172
2163.268,944.0,0.171
2167.788,947.0,0.171
2172.293,950.0,0.17
2176.799,953.0,0.17
2181.313,956.0,0.17
2185.836,959.0,0.17
2190.336,962.0,0.17
2194.842,965.0,0.169
2199.352,968.0,0.169
2203.857,971.0,0.169
2208.355,974.0,0.168
2212.863,977.0,0.168
2217.36,980.0,0.168
2221.872,983.0,0.168
2226.361,986.0,0.167
2230.871,989.0,0.167
2235.376,992.0,0.167
2239.872,995.0,0.167
2244.381,998.0,0.166
2248.886,1001.0,0.166
2253.392,1004.0,0.166
2257.89,1007.0,0.166
2262.379,1010.0,0.165
2266.871,1013.0,0.165
2271.369,1016.0,0.165
2275.857,1019.0,0.164
2280.359,1022.0,0.164
2284.845,1025.0,0.164
2289.334,1028.0,0.164
2293.819,1031.0,0.164
2298.326,1034.0,0.163
2302.83,1037.0,0.163
2307.324,1040.0,0.163
2311.812,1043.0,0.163
2316.304,1046.0,0.163
2320.805,1049.0,0.162
2325.288,1052.0,0.162
2329.796,1055.0,0.162
2334.263,1058.0,0.162
2341.559,1061.0,0.161
2350.237,1064.0,0.161
2385.0,1069.562,0.16
2445.0,1071.728,0.159
2505.0,1072.257,0.158
2565.0,1072.506,0.158
2625.0,1072.635,0.157
2655.0,1072.671,0.157