Folder: matl-db/Wood/Calibration_Data/TUBS (part 6)

File: TUBS_TGA_N2_ISO320_R3.csv
Time (s),Temperature (K),Mass (mg)
0.0,305.0,0.96
72.0,304.7,0.951
378.0,304.4,0.942
951.0,304.4,0.939
1211.0,310.3,0.938
1239.0,372.6,0.941
1271.0,444.8,0.932
1313.0,506.2,0.923
1333.0,526.2,0.914
1348.0,538.2,0.905
1361.0,547.0,0.896
1372.0,553.4,0.887
1382.0,558.5,0.878
1392.0,562.9,0.869
1402.0,566.9,0.86
1411.0,570.0,0.851
1421.0,573.1,0.842
1431.0,575.7,0.833
1441.0,578.1,0.824
1450.0,579.9,0.815
1460.0,581.7,0.806
1470.0,583.3,0.797
1480.0,584.6,0.788
1490.0,585.8,0.779
1501.0,586.9,0.77
1511.0,587.8,0.761
1523.0,588.7,0.752
1534.0,589.4,0.743
1546.0,590.1,0.734
1559.0,590.7,0.725
1572.0,591.2,0.716
1585.0,591.6,0.707
1600.0,592.0,0.698
1681.0,593.2,0.657
1762.0,593.6,0.625
1843.0,593.7,0.599
1924.0,593.7,0.578
2005.0,593.8,0.559
2086.0,593.8,0.543
2167.0,593.8,0.528
2248.0,593.8,0.515
2329.0,593.8,0.502
2410.0,593.8,0.49
2491.0,593.8,0.479
2572.0,593.8,0.468
2653.0,593.8,0.459
2734.0,593.8,0.449
2815.0,593.8,0.44
2896.0,593.8,0.431
2977.0,593.8,0.422
3058.0,593.8,0.414
3139.0,593.8,0.406
3220.0,593.8,0.398
3301.0,593.8,0.391
3382.0,593.8,0.384
3463.0,593.8,0.378
3544.0,593.8,0.371
3625.0,593.8,0.365
3706.0,593.8,0.359
3787.0,593.8,0.353
3868.0,593.8,0.348
3949.0,593.8,0.342
4030.0,593.8,0.337
4111.0,593.8,0.333
4192.0,593.8,0.328
4273.0,593.8,0.324
4354.0,593.8,0.32
4435.0,593.8,0.316
4516.0,593.8,0.312
4597.0,593.8,0.308
4678.0,593.8,0.305
4759.0,593.8,0.302
4840.0,593.8,0.299
4921.0,593.8,0.296
5002.0,593.8,0.294
5083.0,593.8,0.291
5164.0,593.8,0.289
5245.0,593.8,0.287
5326.0,593.8,0.285
5407.0,593.8,0.282
5488.0,593.8,0.281
5569.0,593.8,0.279
5650.0,593.8,0.278
5731.0,593.8,0.276
5812.0,593.8,0.275
5893.0,593.8,0.274
5974.0,593.8,0.273
6055.0,593.8,0.272
6136.0,593.8,0.271
6217.0,593.8,0.27
6298.0,593.8,0.269
6379.0,593.8,0.269
6460.0,593.8,0.268
6541.0,593.8,0.267
6622.0,593.8,0.267
6703.0,593.8,0.266
6784.0,593.8,0.266
6865.0,593.8,0.265
6946.0,593.8,0.265
7027.0,593.8,0.265
7108.0,593.8,0.264
7189.0,593.8,0.264
7270.0,593.8,0.264
7351.0,593.8,0.264
7432.0,593.8,0.263
7513.0,593.8,0.263
7594.0,593.8,0.263
7675.0,593.8,0.263
7756.0,593.8,0.262
7837.0,593.8,0.262
7918.0,593.8,0.262
7999.0,593.9,0.262
8080.0,593.8,0.262
8161.0,593.8,0.262
8242.0,593.8,0.261
8323.0,593.8,0.261
8404.0,593.8,0.261
8485.0,593.8,0.261
8566.0,593.8,0.261
8647.0,593.8,0.261
8728.0,593.8,0.26
8809.0,593.8,0.26
8890.0,593.8,0.26
8971.0,593.8,0.26
9052.0,593.8,0.26
9133.0,593.8,0.26
9214.0,593.8,0.26
9295.0,593.8,0.259
9376.0,593.8,0.259
9457.0,593.8,0.259
9538.0,593.8,0.259
9619.0,593.8,0.259
9700.0,593.8,0.259
9781.0,593.8,0.259
9862.0,593.8,0.259
9943.0,593.8,0.259
10024.0,593.8,0.259
10105.0,593.8,0.258
10186.0,593.8,0.258
10267.0,593.8,0.258
10348.0,593.8,0.258
10429.0,593.8,0.258
10510.0,593.8,0.258
10591.0,593.8,0.258
10672.0,593.9,0.258
10753.0,593.8,0.258
10834.0,593.8,0.258
10915.0,593.8,0.258
10996.0,593.8,0.258
11077.0,593.8,0.258
11158.0,593.8,0.257
11239.0,593.8,0.257
11320.0,593.8,0.257
11401.0,593.9,0.257
11482.0,593.9,0.257
11563.0,593.8,0.257
11644.0,593.8,0.257
11725.0,593.9,0.257
11806.0,593.9,0.257
11887.0,593.9,0.256
11968.0,593.9,0.257
12049.0,593.9,0.256
12130.0,593.9,0.256
12211.0,593.9,0.256
12292.0,593.9,0.256
12373.0,593.9,0.257
12454.0,593.9,0.256
12535.0,593.9,0.256
12616.0,593.9,0.256
12697.0,593.9,0.256
12778.0,593.9,0.256
12859.0,593.9,0.256
12940.0,593.9,0.256
13021.0,593.8,0.255
13102.0,593.8,0.256
13183.0,593.9,0.255
13264.0,593.9,0.255
13345.0,593.9,0.255
13426.0,593.9,0.255
13507.0,593.9,0.255
13588.0,593.9,0.255
13669.0,593.9,0.255
13750.0,593.9,0.255
13831.0,593.9,0.255
13912.0,593.9,0.255
13993.0,593.9,0.255
14074.0,593.9,0.255
14155.0,593.9,0.255
14236.0,593.9,0.255
14317.0,593.8,0.255
14398.0,593.9,0.255
14479.0,593.8,0.255
14560.0,593.9,0.255
14641.0,593.9,0.255
14722.0,593.8,0.255
14803.0,593.9,0.255
14884.0,593.9,0.254
14965.0,593.9,0.254
15046.0,593.9,0.254
15127.0,593.8,0.254
15208.0,593.8,0.254
15289.0,593.9,0.254
15370.0,593.9,0.254
15451.0,593.8,0.254
15532.0,593.9,0.254
15613.0,593.8,0.254
15694.0,593.9,0.254
15775.0,593.9,0.254
15856.0,593.8,0.254
15937.0,593.8,0.254
16018.0,593.9,0.254
16099.0,593.8,0.254
16180.0,593.8,0.253
16261.0,593.8,0.253
16342.0,593.9,0.253
16423.0,593.9,0.253
16504.0,593.9,0.253
16585.0,593.9,0.253
16666.0,593.9,0.253
16747.0,593.9,0.253
16828.0,593.9,0.253
16909.0,593.9,0.253
16990.0,593.9,0.253
17071.0,593.9,0.253
17152.0,593.9,0.253
17233.0,593.9,0.253
17314.0,593.9,0.253
17395.0,593.9,0.253
17476.0,593.9,0.252
17557.0,593.9,0.253
17638.0,593.9,0.253
17719.0,593.9,0.253
17800.0,593.9,0.253
17881.0,593.9,0.253
17962.0,593.9,0.252
18043.0,593.9,0.252
18124.0,593.9,0.252
18205.0,593.9,0.252
18286.0,593.9,0.252
18367.0,593.9,0.252
18448.0,593.9,0.252
18529.0,593.9,0.252
18610.0,593.9,0.252
18691.0,593.9,0.252
18772.0,593.9,0.252
18853.0,593.9,0.252
18934.0,593.9,0.252
19015.0,593.9,0.252
19096.0,593.9,0.252
19177.0,593.9,0.252
19258.0,593.9,0.252
19339.0,593.9,0.252
19420.0,593.9,0.252
19501.0,593.9,0.252
19582.0,593.9,0.252
19663.0,593.9,0.252
19744.0,593.9,0.252
19825.0,593.9,0.252
19906.0,593.9,0.252
19987.0,593.9,0.252
20068.0,593.9,0.251
20149.0,593.9,0.252
20230.0,593.9,0.252
20311.0,593.9,0.251
20392.0,593.9,0.251
20473.0,593.9,0.251
20554.0,593.9,0.251
20635.0,593.9,0.251
20716.0,593.9,0.251
20797.0,593.9,0.251
20878.0,593.9,0.251
20959.0,593.9,0.251
21040.0,593.9,0.251
21121.0,593.9,0.251
21202.0,593.9,0.251
21283.0,593.9,0.251
21364.0,593.9,0.251
21445.0,593.9,0.251
21526.0,593.9,0.251
21607.0,593.9,0.251
21688.0,593.9,0.251
21769.0,593.9,0.251
21850.0,593.9,0.251
21931.0,593.9,0.25
22012.0,593.9,0.25
22093.0,593.9,0.25
22174.0,593.9,0.25
22255.0,593.9,0.25
22336.0,593.9,0.25
22417.0,593.9,0.25
22498.0,593.9,0.25
22579.0,593.9,0.25
22660.0,593.9,0.25
22741.0,593.9,0.25
22813.0,593.9,0.25

File: TUBS_Wood_Cone_30kW_hor_R1.csv
Time (s),Mass (g),HRR (kW/m2)
0.0,88.16,0.0
10.0,88.02,0.1
20.0,87.92,0.3
30.0,87.53,22.9
40.0,86.45,145.1
50.0,85.63,134.8
60.0,84.99,108.0
70.0,84.41,90.1
80.0,83.86,80.5
90.0,83.38,76.6
100.0,82.87,70.5
110.0,82.39,71.3
120.0,81.95,69.3
130.0,81.5,67.5
140.0,81.07,65.6
150.0,80.66,65.0
160.0,80.25,64.3
170.0,79.78,61.2
180.0,79.42,55.9
190.0,79.0,58.2
200.0,78.62,54.1
210.0,78.22,56.5
220.0,77.84,58.1
230.0,77.45,56.6
240.0,77.09,54.8
250.0,76.7,53.3
260.0,76.31,53.6
270.0,75.96,48.2
280.0,75.58,53.9
290.0,75.19,49.7
300.0,74.82,49.7
310.0,74.42,49.2
320.0,74.04,49.0
330.0,73.65,51.6
340.0,73.24,55.1
350.0,72.78,52.6
360.0,72.39,51.3
370.0,71.96,49.5
380.0,71.51,48.2
390.0,71.13,50.1
400.0,70.7,48.7
410.0,70.24,51.4
420.0,69.84,50.6
430.0,69.39,53.3
440.0,68.95,49.5
450.0,68.54,52.6
460.0,68.06,49.3
470.0,67.63,48.8
480.0,67.19,48.1
490.0,66.75,48.2
500.0,66.33,48.9
510.0,65.87,47.5
520.0,65.44,49.2
530.0,65.0,48.2
540.0,64.57,50.0
550.0,64.13,47.4
560.0,63.71,42.3
570.0,63.24,48.8
580.0,62.87,45.3
590.0,62.41,45.8
600.0,61.99,44.8
610.0,61.59,44.7
620.0,61.16,47.3
630.0,60.73,47.3
640.0,60.31,43.1
650.0,59.89,47.0
660.0,59.48,43.3
670.0,59.05,48.1
680.0,58.65,45.7
690.0,58.21,45.3
700.0,57.81,41.1
710.0,57.4,43.6
720.0,56.96,41.6
730.0,56.6,40.7
740.0,56.15,41.3
750.0,55.76,43.0
760.0,55.36,46.6
770.0,54.96,43.6
780.0,54.55,44.8
790.0,54.15,41.9
800.0,53.75,41.2
810.0,53.34,42.2
820.0,52.97,42.1
830.0,52.55,41.0
840.0,52.15,41.1
850.0,51.76,39.8
860.0,51.36,40.4
870.0,50.96,41.2
880.0,50.54,43.6
890.0,50.18,42.3
900.0,49.76,40.1
910.0,49.4,41.6
920.0,48.97,43.0
930.0,48.59,42.1
940.0,48.19,40.2
950.0,47.82,41.4
960.0,47.4,43.6
970.0,47.04,41.0
980.0,46.67,40.9
990.0,46.26,39.7
1000.0,45.84,39.6
1010.0,45.48,40.6
1020.0,45.08,38.3
1030.0,44.67,35.9
1040.0,44.28,38.5
1050.0,43.89,40.7
1060.0,43.48,37.6
1070.0,43.11,36.1
1080.0,42.69,37.7
1090.0,42.29,41.0
1100.0,41.91,38.0
1110.0,41.54,39.7
1120.0,41.1,36.9
1130.0,40.69,38.4
1140.0,40.31,40.3
1150.0,39.87,37.9
1160.0,39.5,41.0
1170.0,39.07,38.1
1180.0,38.65,36.3
1190.0,38.26,39.8
1200.0,37.83,41.0
1210.0,37.4,39.6
1220.0,36.98,44.8
1230.0,36.53,44.0
1240.0,36.11,40.3
1250.0,35.68,46.3
1260.0,35.2,43.0
1270.0,34.77,45.2
1280.0,34.33,42.6
1290.0,33.83,47.6
1300.0,33.35,45.2
1310.0,32.97,44.3
1320.0,32.43,49.8
1330.0,31.93,52.1
1340.0,31.43,50.7
1350.0,30.91,49.0
1360.0,30.4,53.0
1370.0,29.92,52.1
1380.0,29.4,54.9
1390.0,28.88,52.2
1400.0,28.37,55.7
1410.0,27.83,55.5
1420.0,27.29,56.5
1430.0,26.78,57.5
1440.0,26.24,59.0
1450.0,25.71,63.4
1460.0,25.19,57.6
1470.0,24.66,59.8
1480.0,24.14,60.8
1490.0,23.61,56.5
1500.0,23.16,59.3
1510.0,22.69,57.3
1520.0,22.2,52.4
1530.0,21.76,49.7
1540.0,21.32,48.4
1550.0,20.87,47.2
1560.0,20.47,50.0
1570.0,20.08,42.6
1580.0,19.69,44.9
1590.0,19.37,42.0
1600.0,19.02,39.6
1610.0,18.68,35.2
1620.0,18.39,32.5
1630.0,18.11,29.8
1640.0,17.82,29.8
1650.0,17.55,31.6
1660.0,17.3,30.4
1670.0,17.04,25.5
1680.0,16.82,25.8
1690.0,16.6,23.1
1700.0,16.38,22.3
1710.0,16.18,22.1
1720.0,15.98,20.1
1730.0,15.78,18.1
1740.0,15.63,15.7
1750.0,15.45,14.4
1760.0,15.27,14.4
1770.0,15.13,16.6
1780.0,14.97,12.7
1790.0,14.82,11.8
1800.0,14.67,11.0
1810.0,14.55,9.3
1820.0,14.41,11.8
1830.0,14.27,10.4
1840.0,14.15,11.8
1850.0,14.03,11.9
1860.0,13.92,11.9
1870.0,13.78,4.2
1880.0,13.68,2.3
1890.0,13.57,0.2
1900.0,13.46,1.6
1910.0,13.34,3.2
1920.0,13.24,1.9
1930.0,13.15,1.6
1940.0,13.04,2.2
1950.0,12.94,0.0
1960.0,12.86,0.5
1970.0,12.75,1.0
1980.0,12.68,0.0
1990.0,12.56,0.0
2000.0,12.46,0.0
2010.0,12.39,0.6
2020.0,12.29,0.0
2030.0,12.21,0.0
2040.0,12.13,1.7
2050.0,12.05,0.0
2060.0,11.96,0.0
2070.0,11.86,0.0
2080.0,11.79,0.0
2090.0,11.7,0.0
2100.0,11.64,0.0
2110.0,11.53,0.0
2120.0,11.46,0.0
2130.0,11.37,0.0
2140.0,11.29,0.0
2150.0,11.21,0.0
2160.0,11.15,0.0
2170.0,11.06,0.0
2180.0,10.99,0.0
2190.0,10.9,0.0
2200.0,10.83,0.0
2210.0,10.76,0.0
2220.0,10.67,0.0
2230.0,10.61,0.0
2240.0,10.53,0.0
2250.0,10.45,0.0
2260.0,10.39,0.0
2270.0,10.31,0.0
2280.0,10.24,0.0
2290.0,10.17,0.0
2300.0,10.09,0.0
2310.0,10.02,0.0
2320.0,9.95,0.0
2330.0,9.88,0.0
2340.0,9.8,0.0
2350.0,9.73,0.0
2360.0,9.65,0.0
2370.0,9.56,0.0
2380.0,9.51,0.0
2390.0,9.44,0.0
2400.0,9.37,0.0
2410.0,9.29,0.0
2420.0,9.22,0.0
2430.0,9.15,0.0
2440.0,9.06,0.0
2450.0,9.02,0.0
2460.0,8.93,0.0
2470.0,8.86,0.0
2480.0,8.8,0.0
2490.0,8.73,0.0
2500.0,8.66,0.0
2510.0,8.59,0.0
2520.0,8.51,0.0
2530.0,8.43,0.0
2540.0,8.37,0.0
2550.0,8.3,0.0
2560.0,8.23,0.0
2570.0,8.17,0.0
2580.0,8.11,0.0
2590.0,8.03,0.0
2600.0,7.96,0.0
2610.0,7.89,0.0
2620.0,7.81,0.0
2630.0,7.76,0.0
2640.0,7.69,0.0
2650.0,7.62,0.0
2660.0,7.57,0.0
2670.0,7.49,0.0
2680.0,7.41,0.0
2690.0,7.35,0.0
2700.0,7.28,0.0

File: TUBS_Wood_Cone_30kW_hor_R3.csv
Time (s),Mass (g),HRR (kW/m2)
0.0,80.18,0.0
10.0,80.07,0.0
20.0,79.94,0.0
30.0,79.4,30.7
40.0,78.33,143.7
50.0,77.6,119.7
60.0,76.99,94.5
70.0,76.46,78.9
80.0,75.94,67.9
90.0,75.56,61.1
100.0,75.08,61.9
110.0,74.66,54.8
120.0,74.28,52.4
130.0,73.88,53.6
140.0,73.5,49.8
150.0,73.14,49.1
160.0,72.75,48.3
170.0,72.38,48.1
180.0,72.0,46.2
190.0,71.67,43.5
200.0,71.27,45.8
210.0,70.92,45.3
220.0,70.53,44.5
230.0,70.14,46.5
240.0,69.8,43.1
250.0,69.4,42.1
260.0,69.04,45.3
270.0,68.66,44.3
280.0,68.28,42.4
290.0,67.87,45.2
300.0,67.52,45.3
310.0,67.11,45.7
320.0,66.74,41.5
330.0,66.36,43.1
340.0,65.97,43.5
350.0,65.58,43.2
360.0,65.19,41.9
370.0,64.8,42.1
380.0,64.4,41.8
390.0,64.03,40.6
400.0,63.63,45.9
410.0,63.23,41.8
420.0,62.83,39.7
430.0,62.45,41.1
440.0,62.05,39.3
450.0,61.65,41.6
460.0,61.27,41.1
470.0,60.87,44.4
480.0,60.48,43.2
490.0,60.1,39.4
500.0,59.7,38.9
510.0,59.32,42.7
520.0,58.94,41.0
530.0,58.51,40.0
540.0,58.12,43.1
550.0,57.74,42.3
560.0,57.35,40.0
570.0,56.94,41.9
580.0,56.58,42.0
590.0,56.16,42.1
600.0,55.77,39.4
610.0,55.41,40.3
620.0,55.02,38.0
630.0,54.6,41.3
640.0,54.25,42.7
650.0,53.84,38.7
660.0,53.47,37.5
670.0,53.08,36.2
680.0,52.73,39.4
690.0,52.35,38.0
700.0,51.99,37.7
710.0,51.58,38.7
720.0,51.2,37.8
730.0,50.84,41.5
740.0,50.46,38.5
750.0,50.08,38.6
760.0,49.71,40.2
770.0,49.35,37.6
780.0,48.95,39.4
790.0,48.61,39.8
800.0,48.23,37.2
810.0,47.85,42.6
820.0,47.51,38.6
830.0,47.12,36.2
840.0,46.77,36.0
850.0,46.42,35.6
860.0,46.04,37.5
870.0,45.67,35.3
880.0,45.32,34.7
890.0,44.96,37.2
900.0,44.57,35.4
910.0,44.24,36.4
920.0,43.87,34.4
930.0,43.5,36.8
940.0,43.17,33.5
950.0,42.8,33.0
960.0,42.44,32.8
970.0,42.09,38.8
980.0,41.7,35.9
990.0,41.37,35.1
1000.0,41.01,35.5
1010.0,40.64,36.4
1020.0,40.28,35.9
1030.0,39.87,36.8
1040.0,39.54,36.8
1050.0,39.17,36.0
1060.0,38.78,36.0
1070.0,38.41,33.8
1080.0,38.02,34.9
1090.0,37.62,37.5
1100.0,37.24,39.3
1110.0,36.83,37.9
1120.0,36.42,41.5
1130.0,36.04,41.2
1140.0,35.6,44.9
1150.0,35.16,43.6
1160.0,34.75,43.2
1170.0,34.31,44.9
1180.0,33.85,45.4
1190.0,33.41,44.6
1200.0,32.94,51.4
1210.0,32.47,44.8
1220.0,32.01,48.7
1230.0,31.53,52.6
1240.0,31.03,54.3
1250.0,30.55,52.4
1260.0,30.05,53.6
1270.0,29.54,54.7
1280.0,29.05,55.3
1290.0,28.51,56.8
1300.0,27.98,57.6
1310.0,27.46,58.3
1320.0,26.9,58.6
1330.0,26.36,59.3
1340.0,25.84,56.9
1350.0,25.28,60.7
1360.0,24.75,62.8
1370.0,24.23,60.0
1380.0,23.71,54.3
1390.0,23.17,56.4
1400.0,22.69,60.3
1410.0,22.18,55.6
1420.0,21.72,58.6
1430.0,21.3,56.8
1440.0,20.85,46.7
1450.0,20.49,44.6
1460.0,20.13,43.0
1470.0,19.78,40.2
1480.0,19.49,37.3
1490.0,19.17,34.0
1500.0,18.89,31.0
1510.0,18.63,29.7
1520.0,18.38,27.6
1530.0,18.14,27.0
1540.0,17.91,25.7
1550.0,17.69,25.6
1560.0,17.5,21.3
1570.0,17.29,23.4
1580.0,17.11,20.3
1590.0,16.92,17.4
1600.0,16.75,18.8
1610.0,16.59,17.1
1620.0,16.4,17.0
1630.0,16.25,15.8
1640.0,16.1,15.5
1650.0,15.96,17.8
1660.0,15.8,16.6
1670.0,15.64,16.2
1680.0,15.51,17.4
1690.0,15.38,15.8
1700.0,15.24,12.9
1710.0,15.1,14.8
1720.0,14.98,12.9
1730.0,14.86,8.3
1740.0,14.73,8.6
1750.0,14.61,7.7
1760.0,14.49,10.0
1770.0,14.36,7.0
1780.0,14.26,7.1
1790.0,14.15,7.2
1800.0,14.04,6.2
1810.0,13.92,5.7
1820.0,13.81,6.1
1830.0,13.71,6.2
1840.0,13.61,4.1
1850.0,13.5,10.1
1860.0,13.4,6.7
1870.0,13.29,6.3
1880.0,13.19,8.0
1890.0,13.08,5.4
1900.0,12.99,3.5
1910.0,12.9,6.0
1920.0,12.81,6.8
1930.0,12.72,3.6
1940.0,12.62,6.2
1950.0,12.54,5.2
1960.0,12.43,5.0
1970.0,12.35,4.6
1980.0,12.26,3.5
1990.0,12.17,5.9
2000.0,12.08,2.5
2010.0,11.99,4.9
2020.0,11.91,5.2
2030.0,11.83,0.0
2040.0,11.73,2.5
2050.0,11.64,4.9
2060.0,11.56,3.2
2070.0,11.47,3.6
2080.0,11.4,0.5
2090.0,11.3,1.1
2100.0,11.24,2.9
2110.0,11.14,1.5
2120.0,11.07,2.2
2130.0,10.99,2.2
2140.0,10.91,2.2
2150.0,10.83,2.8
2160.0,10.75,3.6
2170.0,10.67,0.8
2180.0,10.6,0.7
2190.0,10.52,0.0
2200.0,10.46,1.4
2210.0,10.39,0.9
2220.0,10.3,2.9
2230.0,10.21,0.8
2240.0,10.16,2.2
2250.0,10.09,2.4
2260.0,10.02,1.9
2270.0,9.94,1.1
2280.0,9.88,0.0
2290.0,9.8,3.3
2300.0,9.73,1.1
2310.0,9.67,0.0
2320.0,9.6,0.2
2330.0,9.53,2.0
2340.0,9.47,0.0
2350.0,9.41,0.0
2360.0,9.32,1.0
2370.0,9.25,0.0
2380.0,9.2,0.0
2390.0,9.13,0.0
2400.0,9.06,0.0
2410.0,9.0,0.0
2420.0,8.93,0.0
2430.0,8.87,0.0
2440.0,8.78,0.0
2450.0,8.74,0.0
2460.0,8.68,0.0
2470.0,8.62,0.0
2480.0,8.54,0.0
2490.0,8.48,0.0
2500.0,8.43,0.0
2510.0,8.36,0.0
2520.0,8.28,0.0
2530.0,8.24,0.0
2540.0,8.18,0.0
2550.0,8.12,0.2
2560.0,8.05,0.0
2570.0,7.99,0.0
2580.0,7.92,0.0
2590.0,7.88,0.0
2600.0,7.82,0.0
2610.0,7.74,0.0
2620.0,7.68,0.0
2630.0,7.63,0.0
2640.0,7.56,0.0
2650.0,7.5,0.0
2660.0,7.44,0.0
2670.0,7.39,0.0
2680.0,7.33,0.0
2690.0,7.28,0.0
2700.0,7.21,0.0

File: TUBS_Wood_MCC_N2_30K_R1.csv
Time (s),Temperature (K),HRR (W/g)
7.8,474.0,0.11
10.9,475.5,1.07
13.8,477.0,0.98
16.9,478.5,1.29
19.9,480.0,1.09
22.9,481.5,1.08
26.0,483.0,1.24
29.1,484.5,1.22
32.1,486.0,0.13
35.0,487.5,0.65
38.1,489.0,0.74
41.1,490.5,0.56
44.2,492.0,0.22
47.0,493.5,1.21
50.0,495.0,2.06
52.9,496.5,3.09
55.9,498.0,2.78
58.8,499.5,3.22
61.7,501.0,2.99
64.6,502.5,3.13
67.5,504.0,2.53
70.5,505.5,3.55
73.4,507.0,3.59
76.4,508.5,2.0
79.2,510.0,2.71
82.1,511.5,1.94
85.0,513.0,2.28
88.0,514.5,2.02
90.8,516.0,1.62
93.7,517.5,2.16
96.5,519.0,2.31
99.5,520.5,2.94
102.4,522.0,2.78
105.3,523.5,2.8
108.4,525.0,3.53
111.2,526.5,4.21
114.2,528.0,3.08
117.1,529.5,3.46
120.1,531.0,4.32
123.1,532.5,3.94
126.1,534.0,4.38
129.1,535.5,4.25
132.2,537.0,5.03
135.2,538.5,4.95
138.2,540.0,5.47
141.1,541.5,5.9
144.1,543.0,5.42
147.1,544.5,5.0
150.2,546.0,7.15
153.2,547.5,6.78
156.2,549.0,6.42
159.2,550.5,7.14
162.1,552.0,6.91
165.2,553.5,6.43
168.2,555.0,7.22
171.2,556.5,7.81
174.1,558.0,8.87
177.2,559.5,9.72
180.2,561.0,9.75
183.2,562.5,10.64
186.2,564.0,10.73
189.1,565.5,11.42
192.1,567.0,12.42
195.2,568.5,13.38
198.2,570.0,14.1
201.2,571.5,13.65
204.1,573.0,12.51
207.2,574.5,14.17
210.2,576.0,15.22
213.2,577.5,15.76
216.1,579.0,15.41
219.1,580.5,16.93
222.1,582.0,17.86
225.1,583.5,18.22
228.1,585.0,20.48
231.1,586.5,18.85
234.2,588.0,20.63
237.2,589.5,21.76
240.2,591.0,23.95
243.3,592.5,24.44
246.1,594.0,26.21
249.2,595.5,26.03
252.1,597.0,26.67
255.2,598.5,27.43
258.2,600.0,28.5
261.2,601.5,28.98
264.3,603.0,30.11
267.2,604.5,31.01
270.3,606.0,32.05
273.3,607.5,33.55
276.3,609.0,32.24
279.3,610.5,33.49
282.3,612.0,33.97
285.3,613.5,34.64
288.3,615.0,35.31
291.2,616.5,36.34
294.2,618.0,37.89
297.2,619.5,36.57
300.2,621.0,36.99
303.2,622.5,38.66
306.2,624.0,40.2
309.2,625.5,39.82
312.2,627.0,40.7
315.1,628.5,41.59
318.0,630.0,42.69
321.0,631.5,43.23
323.8,633.0,44.59
326.8,634.5,46.6
329.8,636.0,46.58
332.7,637.5,47.13
335.7,639.0,49.33
338.8,640.5,51.11
341.8,642.0,52.07
344.7,643.5,53.29
347.8,645.0,55.7
350.8,646.5,56.06
353.9,648.0,57.3
356.9,649.5,58.21
360.0,651.0,58.11
363.0,652.5,59.52
366.0,654.0,58.03
369.1,655.5,58.1
372.2,657.0,55.64
375.2,658.5,52.95
378.2,660.0,51.72
381.2,661.5,47.77
384.3,663.0,44.51
387.3,664.5,41.09
390.3,666.0,36.02
393.4,667.5,32.2
396.4,669.0,27.68
399.5,670.5,21.55
402.5,672.0,16.84
405.6,673.5,12.69
408.5,675.0,10.88
411.7,676.5,7.78
414.8,678.0,5.11
417.8,679.5,3.23
420.8,681.0,1.25
423.8,682.5,0.61
426.7,684.0,0.59
429.7,685.5,0.37
432.8,687.0,0.37
435.7,688.5,-1.32
438.7,690.0,-1.62
441.8,691.5,-1.0
444.8,693.0,-1.37
447.7,694.5,-1.91
450.8,696.0,-2.27
453.9,697.5,-2.61
456.9,699.0,-2.27
459.9,700.5,-2.63
463.0,702.0,-2.52
466.1,703.5,-0.66
469.1,705.0,-1.82
472.1,706.5,-0.74
475.2,708.0,-1.36
478.1,709.5,-1.46
481.1,711.0,-1.38
484.0,712.5,-1.67
487.1,714.0,-2.41
490.0,715.5,-1.42
493.0,717.0,-3.07
496.2,718.5,-3.7
499.1,720.0,-4.26
502.1,721.5,-3.22
505.3,723.0,-2.76
508.2,724.5,-2.32
511.2,726.0,-2.13
514.2,727.5,-2.29
517.2,729.0,-2.08
520.3,730.5,-2.75
523.2,732.0,-3.17
526.3,733.5,-2.88
529.2,735.0,-3.11
532.2,736.5,-2.39
535.1,738.0,-1.71
538.2,739.5,-2.69
541.1,741.0,-2.76
544.1,742.5,-3.58
547.1,744.0,-2.85
550.2,745.5,-3.14
553.2,747.0,-3.11
556.3,748.5,-3.39
559.3,750.0,-4.01
562.2,751.5,-4.22
565.2,753.0,-3.84
568.2,754.5,-4.98
571.3,756.0,-4.0
574.4,757.5,-3.34
577.6,759.0,-2.43
580.7,760.5,-2.09
583.7,762.0,-2.87
586.9,763.5,-2.5
590.0,765.0,-2.77
593.1,766.5,-3.8
596.2,768.0,-2.94
599.3,769.5,-3.72
602.4,771.0,-3.18
605.5,772.5,-3.49
608.6,774.0,-3.66
611.5,775.5,-2.06
614.6,777.0,-1.96
617.5,778.5,-1.48
620.6,780.0,-2.7
623.7,781.5,-2.52
626.6,783.0,-2.51
629.7,784.5,-3.91
632.7,786.0,-3.25
635.6,787.5,-5.28
638.6,789.0,-5.57
641.7,790.5,-5.59
644.8,792.0,-4.56
647.9,793.5,-4.18
650.9,795.0,-2.76
653.8,796.5,-2.22
656.9,798.0,-2.62
659.9,799.5,-2.7
662.8,801.0,-2.22
665.8,802.5,-1.98
668.8,804.0,-3.21
671.9,805.5,-3.36
674.9,807.0,-2.82
677.8,808.5,-1.94
680.8,810.0,-4.06
683.8,811.5,-4.93
686.7,813.0,-4.49
689.7,814.5,-4.31
692.7,816.0,-4.73
695.7,817.5,-3.53
698.7,819.0,-4.6
701.7,820.5,-3.12
704.8,822.0,-3.31
707.8,823.5,-3.18
710.8,825.0,-2.76
713.9,826.5,-3.76
716.8,828.0,-4.5
719.9,829.5,-4.91
722.9,831.0,-4.73
725.9,832.5,-3.91
729.0,834.0,-2.01
731.9,835.5,-1.96
734.9,837.0,-2.07
737.8,838.5,-2.27
740.9,840.0,-3.39
744.1,841.5,-3.54
747.1,843.0,-4.05
750.1,844.5,-3.92
753.2,846.0,-4.15
756.1,847.5,-3.06
759.1,849.0,-4.33
762.2,850.5,-4.48
765.2,852.0,-4.09
768.3,853.5,-2.89
771.4,855.0,-3.38
774.5,856.5,-4.19
777.4,858.0,-4.26
780.6,859.5,-3.13
783.6,861.0,-1.92
786.6,862.5,-1.8
789.7,864.0,-1.65
792.7,865.5,-1.53
795.7,867.0,-1.41
798.7,868.5,-1.37
801.7,870.0,-1.09
804.5,871.5,0.26
805.6,872.0,-0.03

File: TUBS_Wood_MCC_N2_30K_R2.csv
Time (s),Temperature (K),HRR (W/g)
2.7,474.0,-0.05
5.5,475.5,-0.35
8.4,477.0,0.83
11.5,478.5,0.03
14.5,480.0,-0.42
17.6,481.5,-0.43
20.6,483.0,-0.5
23.6,484.5,-0.87
26.7,486.0,-0.3
29.6,487.5,0.23
32.5,489.0,0.08
35.6,490.5,-0.76
38.6,492.0,-0.93
41.6,493.5,-1.03
44.7,495.0,1.34
47.6,496.5,1.36
50.5,498.0,3.54
53.4,499.5,3.86
56.5,501.0,2.12
59.5,502.5,2.4
62.5,504.0,2.27
65.3,505.5,1.72
68.4,507.0,2.98
71.4,508.5,2.81
74.4,510.0,3.5
77.3,511.5,2.28
80.4,513.0,1.8
83.0,514.5,2.78
86.2,516.0,4.19
89.0,517.5,4.69
92.0,519.0,5.34
95.1,520.5,6.57
98.0,522.0,6.15
101.1,523.5,6.58
104.0,525.0,6.72
106.9,526.5,7.27
109.8,528.0,8.31
112.8,529.5,8.69
115.8,531.0,9.34
118.7,532.5,9.95
121.6,534.0,9.77
124.7,535.5,12.1
127.5,537.0,12.48
130.5,538.5,12.39
133.4,540.0,10.71
136.3,541.5,10.48
139.3,543.0,11.37
142.3,544.5,11.41
145.3,546.0,12.1
148.3,547.5,11.94
151.2,549.0,11.69
154.1,550.5,12.58
157.1,552.0,13.53
160.0,553.5,13.79
163.0,555.0,14.95
166.0,556.5,14.46
168.9,558.0,16.84
171.9,559.5,17.37
174.9,561.0,17.57
177.9,562.5,18.51
180.8,564.0,19.22
183.8,565.5,18.18
186.9,567.0,19.69
189.8,568.5,20.16
192.8,570.0,21.37
195.8,571.5,22.02
198.8,573.0,22.05
201.6,574.5,22.34
204.7,576.0,21.53
207.7,577.5,22.2
210.6,579.0,23.65
213.6,580.5,24.12
216.7,582.0,24.43
219.6,583.5,25.78
222.7,585.0,27.01
225.8,586.5,27.48
228.8,588.0,28.12
231.8,589.5,28.71
234.7,591.0,27.49
237.8,592.5,29.45
240.8,594.0,30.24
243.8,595.5,31.05
246.9,597.0,31.82
249.8,598.5,32.8
252.8,600.0,34.32
255.8,601.5,35.5
258.9,603.0,37.4
261.8,604.5,37.76
264.8,606.0,39.62
267.8,607.5,39.24
270.7,609.0,40.27
273.7,610.5,39.38
276.7,612.0,41.18
279.7,613.5,41.43
282.7,615.0,43.02
285.7,616.5,42.8
288.7,618.0,41.81
291.7,619.5,42.86
294.6,621.0,44.88
297.6,622.5,46.31
300.4,624.0,46.69
303.4,625.5,48.17
306.4,627.0,49.82
309.5,628.5,49.54
312.4,630.0,49.58
315.7,631.5,50.07
318.6,633.0,52.23
321.7,634.5,53.61
324.7,636.0,54.75
327.8,637.5,55.3
330.8,639.0,56.13
333.9,640.5,56.76
337.0,642.0,57.89
340.0,643.5,57.47
343.2,645.0,58.75
346.2,646.5,60.63
349.2,648.0,61.44
352.3,649.5,62.69
355.3,651.0,62.92
358.3,652.5,62.27
361.2,654.0,62.56
364.4,655.5,62.13
367.3,657.0,60.8
370.3,658.5,58.9
373.4,660.0,56.87
376.4,661.5,53.84
379.4,663.0,50.15
382.3,664.5,47.0
385.4,666.0,41.73
388.3,667.5,37.3
391.3,669.0,33.25
394.3,670.5,29.27
397.4,672.0,23.26
400.4,673.5,20.38
403.4,675.0,17.09
406.6,676.5,12.45
409.7,678.0,10.82
412.6,679.5,8.88
415.7,681.0,7.54
418.7,682.5,7.38
421.7,684.0,4.89
424.8,685.5,3.11
427.9,687.0,2.33
431.0,688.5,1.53
434.0,690.0,0.55
436.9,691.5,-0.45
440.0,693.0,-0.64
443.1,694.5,-0.92
446.1,696.0,-1.01
449.1,697.5,-0.47
452.3,699.0,-1.77
455.2,700.5,-1.72
458.2,702.0,-1.47
461.2,703.5,-1.63
464.3,705.0,-1.23
467.3,706.5,-1.47
470.3,708.0,-1.44
473.3,709.5,-2.74
476.3,711.0,-2.41
479.3,712.5,-1.64
482.3,714.0,-1.7
485.4,715.5,-1.91
488.3,717.0,-0.69
491.3,718.5,-0.91
494.3,720.0,-0.66
497.2,721.5,0.18
500.3,723.0,0.67
503.3,724.5,1.06
506.4,726.0,0.42
509.3,727.5,0.63
512.3,729.0,1.15
515.3,730.5,1.26
518.4,732.0,0.84
521.3,733.5,0.27
524.3,735.0,0.32
527.4,736.5,-0.36
530.5,738.0,-0.22
533.5,739.5,0.38
536.5,741.0,-0.2
539.6,742.5,-0.93
542.6,744.0,-0.23
545.7,745.5,-0.67
548.8,747.0,-0.94
551.8,748.5,0.04
554.9,750.0,-0.34
557.9,751.5,0.14
561.0,753.0,0.05
564.1,754.5,-0.07
567.1,756.0,-0.43
570.1,757.5,-1.98
573.2,759.0,-2.45
576.3,760.5,-1.63
579.2,762.0,-0.54
582.3,763.5,0.33
585.4,765.0,0.19
588.3,766.5,0.56
591.4,768.0,-0.69
594.4,769.5,-1.31
597.5,771.0,-1.37
600.4,772.5,-0.42
603.5,774.0,-1.11
606.5,775.5,-1.32
609.6,777.0,-0.67
612.6,778.5,-0.81
615.7,780.0,-0.72
618.8,781.5,-1.41
621.8,783.0,-0.31
624.8,784.5,-0.71
628.0,786.0,-0.18
630.9,787.5,-0.03
633.9,789.0,-1.31
636.9,790.5,-1.51
639.9,792.0,-2.91
643.0,793.5,-2.08
646.1,795.0,-1.29
649.2,796.5,-2.97
652.2,798.0,-1.34
655.2,799.5,-1.04
658.3,801.0,-0.93
661.3,802.5,-1.91
664.3,804.0,-2.17
667.4,805.5,-2.12
670.4,807.0,-1.64
673.5,808.5,-1.34
676.4,810.0,-1.03
679.5,811.5,-1.99
682.4,813.0,-2.37
685.4,814.5,-2.6
688.4,816.0,-2.94
691.4,817.5,-1.02
694.5,819.0,-2.21
697.4,820.5,-2.15
700.3,822.0,-1.94
703.3,823.5,-1.71
706.4,825.0,-2.15
709.4,826.5,-1.58
712.4,828.0,-2.83
715.4,829.5,-2.09
718.3,831.0,-1.24
721.4,832.5,-1.81
724.3,834.0,-1.77
727.3,835.5,-2.31
730.4,837.0,-2.69
733.3,838.5,-2.94
736.4,840.0,-1.84
739.4,841.5,-1.38
742.4,843.0,0.34
745.4,844.5,-0.73
748.5,846.0,-0.09
751.5,847.5,-0.22
754.5,849.0,0.03
757.5,850.5,-1.18
760.4,852.0,-0.83
763.4,853.5,-0.88
766.4,855.0,-1.42
769.4,856.5,-1.79
772.3,858.0,-1.55
775.3,859.5,-2.05
778.2,861.0,-1.98
781.2,862.5,-0.56
784.3,864.0,-1.83
787.3,865.5,-1.79
790.2,867.0,-3.8
793.2,868.5,-3.38
796.3,870.0,-2.63
799.2,871.5,-2.4
802.2,873.0,-1.77