Folder: matl-db/Wood/Calibration_Data/TUBS (part 12)

File: TUBS_Wood_TGA_N2_50K_R13.csv
Time (s),Temperature (K),Mass (mg)
0.0,305.047,0.4999
9.0,305.032,0.49954
18.0,304.978,0.49903
27.0,304.935,0.49863
36.0,304.907,0.49831
45.0,304.88,0.49802
54.0,304.844,0.4978
63.0,304.821,0.49746
72.0,304.809,0.49714
81.0,304.783,0.49689
90.0,304.764,0.49661
99.0,304.744,0.49639
108.0,304.729,0.4962
117.0,304.708,0.49613
133.0,304.678,0.49608
142.0,304.682,0.49594
151.0,304.66,0.49574
160.0,304.659,0.49554
169.0,304.644,0.4954
178.0,304.618,0.49548
187.0,304.623,0.49553
196.0,304.596,0.49539
205.0,304.611,0.49518
215.0,304.573,0.49511
224.0,304.591,0.49497
236.0,304.553,0.49493
245.0,304.56,0.49488
254.0,304.539,0.49493
263.0,304.561,0.49482
272.0,304.531,0.49459
281.0,304.539,0.49456
290.0,304.524,0.49444
303.0,304.515,0.49442
312.0,304.512,0.49429
322.0,304.5,0.49432
332.0,304.495,0.49425
341.0,304.505,0.49417
350.0,304.492,0.49418
359.0,304.497,0.49413
370.0,304.483,0.49414
379.0,304.487,0.49415
388.0,304.477,0.49413
398.0,304.481,0.49404
410.0,304.469,0.49401
419.0,304.486,0.49386
428.0,304.471,0.49386
437.0,304.482,0.49371
446.0,304.465,0.4939
455.0,304.472,0.49387
466.0,304.448,0.49383
478.0,304.451,0.49381
487.0,304.449,0.49373
496.0,304.45,0.49365
505.0,304.458,0.49373
514.0,304.448,0.4938
523.0,304.444,0.49371
532.0,304.468,0.49366
541.0,304.451,0.49382
550.0,304.457,0.49374
559.0,304.466,0.49372
575.0,304.455,0.49373
584.0,304.461,0.49372
593.0,304.466,0.49364
603.0,304.449,0.4937
613.0,304.448,0.49373
624.0,304.434,0.49364
633.0,304.442,0.49364
642.0,304.459,0.49371
652.0,304.432,0.49373
661.0,304.455,0.4938
670.0,304.453,0.49381
679.0,304.459,0.49376
688.0,304.44,0.49389
697.0,304.459,0.49393
706.0,304.448,0.49384
719.0,304.457,0.49379
728.0,304.442,0.49372
737.0,304.461,0.49364
763.0,304.454,0.49364
772.0,304.461,0.49371
781.0,304.455,0.49376
791.0,304.466,0.49369
800.0,304.453,0.49371
809.0,304.453,0.49368
819.0,304.458,0.49363
831.0,304.458,0.49357
840.0,304.442,0.49357
850.0,304.436,0.49363
888.0,304.438,0.49361
897.0,304.443,0.49347
906.0,304.434,0.49351
915.0,304.445,0.49349
924.0,304.431,0.49346
933.0,304.444,0.49352
942.0,304.45,0.4935
951.0,304.446,0.49353
963.0,304.446,0.49349
973.0,304.467,0.49334
986.0,304.459,0.49332
995.0,304.462,0.49331
1004.0,304.462,0.49333
1019.0,304.467,0.49329
1029.0,304.45,0.49332
1038.0,304.451,0.49341
1047.0,304.467,0.49336
1058.0,304.453,0.49333
1119.0,304.447,0.49339
1128.0,304.434,0.49326
1140.0,304.462,0.49322
1149.0,304.464,0.49319
1158.0,304.456,0.49323
1169.0,304.466,0.49315
1179.0,304.457,0.49329
1188.0,304.46,0.49322
1197.0,304.477,0.49323
1209.118,307.5,0.49059
1215.436,312.0,0.49434
1220.962,316.5,0.49536
1226.384,321.0,0.4948
1231.785,325.5,0.49349
1237.177,330.0,0.49251
1242.564,334.5,0.4919
1247.976,339.0,0.4915
1253.394,343.5,0.49108
1258.806,348.0,0.49065
1264.243,352.5,0.49025
1269.676,357.0,0.48989
1275.1,361.5,0.48953
1280.532,366.0,0.48924
1285.96,370.5,0.48894
1291.373,375.0,0.48873
1296.809,379.5,0.48861
1302.233,384.0,0.48853
1307.642,388.5,0.48851
1313.037,393.0,0.48857
1318.432,397.5,0.48856
1323.828,402.0,0.48862
1329.202,406.5,0.4886
1334.581,411.0,0.48857
1339.941,415.5,0.48855
1345.307,420.0,0.4885
1350.64,424.5,0.48838
1356.001,429.0,0.48831
1361.334,433.5,0.48831
1366.659,438.0,0.48826
1371.98,442.5,0.48802
1377.293,447.0,0.48775
1382.597,451.5,0.48751
1387.89,456.0,0.48714
1393.18,460.5,0.48672
1398.455,465.0,0.48624
1403.728,469.5,0.48568
1408.992,474.0,0.48503
1414.263,478.5,0.48433
1419.52,483.0,0.48362
1424.77,487.5,0.48285
1430.028,492.0,0.48199
1435.279,496.5,0.48105
1440.524,501.0,0.48006
1445.769,505.5,0.47902
1451.006,510.0,0.47777
1456.265,514.5,0.47638
1461.514,519.0,0.47494
1466.767,523.5,0.47334
1472.02,528.0,0.47146
1477.273,532.5,0.46935
1482.525,537.0,0.46706
1487.783,541.5,0.46456
1493.041,546.0,0.4618
1498.292,550.5,0.45875
1503.556,555.0,0.45551
1508.823,559.5,0.45209
1514.095,564.0,0.44852
1519.37,568.5,0.44472
1524.643,573.0,0.44068
1529.927,577.5,0.43645
1535.218,582.0,0.43194
1540.505,586.5,0.42706
1545.799,591.0,0.42189
1551.108,595.5,0.41624
1556.416,600.0,0.41003
1561.732,604.5,0.40323
1567.048,609.0,0.39581
1572.395,613.5,0.38763
1577.716,618.0,0.37887
1583.044,622.5,0.36945
1588.397,627.0,0.35914
1593.756,631.5,0.34819
1599.116,636.0,0.33673
1604.482,640.5,0.32469
1609.86,645.0,0.31203
1615.243,649.5,0.29869
1620.62,654.0,0.28482
1626.018,658.5,0.27028
1631.433,663.0,0.25484
1636.855,667.5,0.23829
1642.265,672.0,0.22069
1647.682,676.5,0.20208
1653.119,681.0,0.18282
1658.538,685.5,0.164
1663.967,690.0,0.14714
1669.395,694.5,0.13372
1674.823,699.0,0.1244
1680.265,703.5,0.11918
1685.705,708.0,0.11619
1691.158,712.5,0.11432
1696.607,717.0,0.11288
1702.05,721.5,0.11148
1707.504,726.0,0.11017
1712.951,730.5,0.1089
1718.417,735.0,0.10772
1723.885,739.5,0.10658
1729.346,744.0,0.10542
1734.819,748.5,0.10433
1740.278,753.0,0.10331
1745.741,757.5,0.10233
1751.201,762.0,0.10141
1756.666,766.5,0.10064
1762.136,771.0,0.09991
1767.601,775.5,0.09913
1773.055,780.0,0.09839
1778.529,784.5,0.09775
1784.007,789.0,0.09722
1789.475,793.5,0.09669
1794.939,798.0,0.09615
1800.404,802.5,0.09566
1805.88,807.0,0.09517
1811.344,811.5,0.09466
1816.814,816.0,0.09422
1822.275,820.5,0.09383
1827.75,825.0,0.0934
1833.212,829.5,0.093
1838.683,834.0,0.0926
1844.14,838.5,0.09217
1849.612,843.0,0.09185
1855.078,847.5,0.09152
1860.537,852.0,0.09119
1866.012,856.5,0.09092
1871.472,861.0,0.09064
1876.936,865.5,0.09029
1882.397,870.0,0.08994
1887.838,874.5,0.08959
1893.294,879.0,0.08924
1898.752,883.5,0.08882
1904.189,888.0,0.08848
1909.643,892.5,0.08827
1915.085,897.0,0.08805
1920.525,901.5,0.08783
1925.971,906.0,0.08758
1931.417,910.5,0.08733
1936.848,915.0,0.08704
1942.288,919.5,0.08674
1947.727,924.0,0.08645
1953.168,928.5,0.08632
1958.609,933.0,0.08617
1964.036,937.5,0.08587
1969.468,942.0,0.08561
1974.903,946.5,0.0854
1980.345,951.0,0.0852
1985.775,955.5,0.08501
1991.209,960.0,0.08484
1996.632,964.5,0.08463
2002.055,969.0,0.0844
2007.486,973.5,0.08422
2012.894,978.0,0.08408
2018.328,982.5,0.08394
2023.742,987.0,0.0838
2029.168,991.5,0.08371
2034.58,996.0,0.08353
2039.996,1000.5,0.08333
2045.415,1005.0,0.08314
2050.822,1009.5,0.08294
2056.222,1014.0,0.08277
2061.624,1018.5,0.08268
2067.024,1023.0,0.08258
2072.425,1027.5,0.08247
2077.813,1032.0,0.08236
2083.218,1036.5,0.08224
2088.61,1041.0,0.08211
2094.013,1045.5,0.08197
2099.405,1050.0,0.0818
2105.233,1054.5,0.08168
2113.665,1059.0,0.08155
2144.0,1067.191,0.08124
2234.0,1071.461,0.08049
2324.0,1072.111,0.07984
2414.0,1072.308,0.07946
2424.0,1072.327,0.07944

File: TUBS_Wood_TGA_N2_50K_R14.csv
Time (s),Temperature (K),Mass (mg)
0.0,305.071,0.46993
9.0,305.044,0.46962
18.0,304.982,0.46908
27.0,304.946,0.46863
36.0,304.916,0.46836
45.0,304.856,0.46804
54.0,304.831,0.4678
63.0,304.808,0.46761
72.0,304.784,0.4674
81.0,304.768,0.46718
90.0,304.739,0.46683
99.0,304.717,0.46663
110.0,304.716,0.4666
119.0,304.685,0.46646
128.0,304.681,0.46634
137.0,304.669,0.4662
146.0,304.635,0.46604
155.0,304.646,0.46591
164.0,304.628,0.46564
173.0,304.618,0.46544
183.0,304.604,0.46552
195.0,304.599,0.46552
204.0,304.573,0.46537
214.0,304.572,0.46533
223.0,304.549,0.46523
242.0,304.525,0.46521
253.0,304.509,0.46517
262.0,304.532,0.465
271.0,304.504,0.46486
281.0,304.506,0.46488
291.0,304.492,0.46484
300.0,304.48,0.46474
309.0,304.488,0.46468
318.0,304.498,0.46471
330.0,304.478,0.46473
340.0,304.472,0.4646
349.0,304.463,0.46453
365.0,304.469,0.46455
374.0,304.462,0.46462
383.0,304.47,0.46471
392.0,304.472,0.46459
403.0,304.474,0.46453
414.0,304.479,0.46441
423.0,304.457,0.46437
432.0,304.476,0.46436
441.0,304.461,0.46438
450.0,304.465,0.46434
459.0,304.458,0.46419
468.0,304.465,0.46414
477.0,304.47,0.4642
486.0,304.465,0.46403
496.0,304.47,0.46399
505.0,304.47,0.46395
514.0,304.45,0.4641
527.0,304.452,0.46413
537.0,304.446,0.46419
547.0,304.438,0.46415
556.0,304.456,0.46405
565.0,304.446,0.46412
575.0,304.463,0.46404
584.0,304.431,0.46407
593.0,304.434,0.46404
604.0,304.448,0.46402
615.0,304.445,0.46403
624.0,304.418,0.46394
635.0,304.454,0.46396
644.0,304.454,0.46402
654.0,304.444,0.46404
663.0,304.422,0.46412
676.0,304.429,0.46412
686.0,304.43,0.46412
697.0,304.421,0.46411
706.0,304.424,0.46403
715.0,304.432,0.46399
724.0,304.429,0.4641
733.0,304.434,0.46413
742.0,304.44,0.46422
751.0,304.438,0.46416
760.0,304.437,0.46406
769.0,304.437,0.46407
778.0,304.424,0.46404
787.0,304.457,0.4641
796.0,304.434,0.46411
805.0,304.445,0.464
814.0,304.427,0.46397
824.0,304.449,0.46394
836.0,304.446,0.46394
846.0,304.453,0.46403
855.0,304.445,0.46394
882.0,304.437,0.46394
891.0,304.445,0.46403
901.0,304.43,0.46397
910.0,304.456,0.46402
919.0,304.438,0.4639
928.0,304.45,0.46389
937.0,304.451,0.46388
946.0,304.442,0.46392
958.0,304.442,0.46393
967.0,304.454,0.4638
977.0,304.447,0.46373
987.0,304.445,0.46383
998.0,304.433,0.46375
1007.0,304.44,0.46364
1017.0,304.459,0.4636
1026.0,304.432,0.46367
1035.0,304.431,0.46378
1044.0,304.429,0.46382
1053.0,304.447,0.46374
1062.0,304.439,0.46368
1071.0,304.441,0.46373
1081.0,304.452,0.46381
1104.0,304.427,0.46383
1113.0,304.424,0.46374
1122.0,304.437,0.46367
1131.0,304.438,0.46363
1145.0,304.442,0.46365
1154.0,304.444,0.46364
1163.0,304.445,0.46358
1174.0,304.436,0.46354
1183.0,304.434,0.46362
1194.0,304.421,0.46365
1206.437,306.0,0.46107
1213.387,310.5,0.46339
1218.897,315.0,0.46628
1224.188,319.5,0.46609
1229.465,324.0,0.46493
1234.758,328.5,0.46359
1240.059,333.0,0.46268
1245.375,337.5,0.46203
1250.73,342.0,0.46144
1256.091,346.5,0.4608
1261.482,351.0,0.46022
1266.871,355.5,0.45972
1272.244,360.0,0.45923
1277.662,364.5,0.45879
1283.05,369.0,0.45849
1288.46,373.5,0.45821
1293.862,378.0,0.458
1299.248,382.5,0.45785
1304.626,387.0,0.45769
1310.014,391.5,0.45754
1315.406,396.0,0.45743
1320.784,400.5,0.45736
1326.141,405.0,0.4573
1331.523,409.5,0.45724
1336.869,414.0,0.45718
1342.226,418.5,0.4571
1347.567,423.0,0.457
1352.902,427.5,0.45691
1358.211,432.0,0.45675
1363.546,436.5,0.45663
1368.873,441.0,0.45642
1374.172,445.5,0.45607
1379.473,450.0,0.4557
1384.761,454.5,0.4553
1390.039,459.0,0.4548
1395.324,463.5,0.45423
1400.591,468.0,0.45356
1405.852,472.5,0.45286
1411.112,477.0,0.45212
1416.375,481.5,0.45133
1421.62,486.0,0.45054
1426.864,490.5,0.44967
1432.108,495.0,0.44876
1437.369,499.5,0.4478
1442.598,504.0,0.44683
1447.857,508.5,0.4457
1453.092,513.0,0.44447
1458.339,517.5,0.44308
1463.586,522.0,0.44155
1468.832,526.5,0.43984
1474.081,531.0,0.43793
1479.326,535.5,0.43581
1484.588,540.0,0.43354
1489.841,544.5,0.43109
1495.091,549.0,0.4284
1500.358,553.5,0.42546
1505.615,558.0,0.42233
1510.876,562.5,0.41906
1516.158,567.0,0.41565
1521.427,571.5,0.41209
1526.705,576.0,0.40835
1531.978,580.5,0.40432
1537.275,585.0,0.4
1542.574,589.5,0.3954
1547.878,594.0,0.39029
1553.184,598.5,0.38472
1558.49,603.0,0.37869
1563.812,607.5,0.37207
1569.134,612.0,0.36489
1574.471,616.5,0.35702
1579.814,621.0,0.34841
1585.149,625.5,0.33929
1590.495,630.0,0.32952
1595.853,634.5,0.319
1601.215,639.0,0.308
1606.589,643.5,0.29658
1611.965,648.0,0.2846
1617.345,652.5,0.27217
1622.744,657.0,0.25915
1628.149,661.5,0.24532
1633.554,666.0,0.23065
1638.963,670.5,0.21504
1644.396,675.0,0.1983
1649.832,679.5,0.18075
1655.264,684.0,0.16297
1660.698,688.5,0.14616
1666.145,693.0,0.13168
1671.574,697.5,0.12103
1677.029,702.0,0.11425
1682.473,706.5,0.11035
1687.928,711.0,0.10827
1693.382,715.5,0.10691
1698.841,720.0,0.10569
1704.299,724.5,0.10442
1709.763,729.0,0.10318
1715.227,733.5,0.102
1720.697,738.0,0.10093
1726.172,742.5,0.09988
1731.632,747.0,0.09878
1737.092,751.5,0.09778
1742.575,756.0,0.09683
1748.053,760.5,0.09599
1753.533,765.0,0.09517
1759.006,769.5,0.0944
1764.473,774.0,0.09367
1769.959,778.5,0.09299
1775.437,783.0,0.09244
1780.914,787.5,0.09186
1786.384,792.0,0.09137
1791.85,796.5,0.09093
1797.333,801.0,0.09041
1802.804,805.5,0.09
1808.273,810.0,0.08955
1813.743,814.5,0.08909
1819.221,819.0,0.08869
1824.69,823.5,0.08828
1830.182,828.0,0.0879
1835.653,832.5,0.08759
1841.122,837.0,0.08729
1846.603,841.5,0.087
1852.08,846.0,0.0867
1857.548,850.5,0.08637
1863.023,855.0,0.08609
1868.495,859.5,0.08581
1873.959,864.0,0.08553
1879.428,868.5,0.08525
1884.894,873.0,0.08496
1890.357,877.5,0.08473
1895.82,882.0,0.08455
1901.292,886.5,0.08431
1906.754,891.0,0.08412
1912.21,895.5,0.08388
1917.662,900.0,0.08375
1923.123,904.5,0.08353
1928.584,909.0,0.08316
1934.027,913.5,0.08289
1939.48,918.0,0.08273
1944.929,922.5,0.08243
1950.384,927.0,0.08213
1955.831,931.5,0.08205
1961.275,936.0,0.08192
1966.717,940.5,0.0817
1972.16,945.0,0.0815
1977.601,949.5,0.0813
1983.044,954.0,0.0811
1988.48,958.5,0.08093
1993.917,963.0,0.08077
1999.355,967.5,0.08068
2004.777,972.0,0.08055
2010.211,976.5,0.08032
2015.639,981.0,0.08012
2021.079,985.5,0.07997
2026.504,990.0,0.07977
2031.926,994.5,0.07958
2037.355,999.0,0.07937
2042.784,1003.5,0.0792
2048.2,1008.0,0.07898
2053.626,1012.5,0.07873
2059.052,1017.0,0.0786
2064.469,1021.5,0.07846
2069.891,1026.0,0.07825
2075.299,1030.5,0.07803
2080.709,1035.0,0.07785
2086.127,1039.5,0.07761
2091.535,1044.0,0.07743
2096.943,1048.5,0.07729
2102.356,1053.0,0.07708
2109.8,1057.5,0.07693
2120.326,1062.0,0.07647
2204.0,1070.647,0.07573
2294.0,1071.659,0.07488
2384.0,1071.946,0.07456
2424.0,1072.0,0.07424

File: TUBS_Wood_TGA_N2_50K_R15.csv
Time (s),Temperature (K),Mass (mg)
0.0,305.032,0.51
274.0,304.527,0.504
694.0,304.435,0.504
1006.0,304.424,0.504
1206.625,306.0,0.501
1211.492,309.0,0.502
1215.32,312.0,0.505
1218.919,315.0,0.506
1222.469,318.0,0.506
1225.977,321.0,0.506
1229.509,324.0,0.504
1233.036,327.0,0.504
1236.554,330.0,0.503
1240.098,333.0,0.502
1243.641,336.0,0.502
1247.187,339.0,0.501
1250.77,342.0,0.501
1254.337,345.0,0.501
1257.917,348.0,0.5
1261.512,351.0,0.5
1265.097,354.0,0.499
1268.679,357.0,0.499
1272.254,360.0,0.499
1275.858,363.0,0.498
1279.442,366.0,0.498
1283.04,369.0,0.498
1286.636,372.0,0.498
1290.225,375.0,0.498
1293.806,378.0,0.497
1297.404,381.0,0.497
1300.993,384.0,0.497
1304.574,387.0,0.497
1308.163,390.0,0.497
1311.742,393.0,0.497
1315.324,396.0,0.497
1318.89,399.0,0.497
1322.472,402.0,0.497
1326.041,405.0,0.497
1329.601,408.0,0.497
1333.176,411.0,0.497
1336.721,414.0,0.497
1340.292,417.0,0.497
1343.86,420.0,0.497
1347.402,423.0,0.497
1350.949,426.0,0.497
1354.48,429.0,0.497
1358.021,432.0,0.496
1361.548,435.0,0.496
1365.091,438.0,0.496
1368.631,441.0,0.496
1372.16,444.0,0.496
1375.669,447.0,0.495
1379.207,450.0,0.495
1382.704,453.0,0.495
1386.217,456.0,0.495
1389.714,459.0,0.494
1393.225,462.0,0.494
1396.731,465.0,0.494
1400.236,468.0,0.493
1403.731,471.0,0.493
1407.227,474.0,0.492
1410.723,477.0,0.492
1414.22,480.0,0.491
1417.712,483.0,0.49
1421.192,486.0,0.49
1424.686,489.0,0.489
1428.168,492.0,0.488
1431.658,495.0,0.488
1435.145,498.0,0.487
1438.623,501.0,0.486
1442.116,504.0,0.486
1445.586,507.0,0.485
1449.077,510.0,0.484
1452.571,513.0,0.483
1456.046,516.0,0.482
1459.531,519.0,0.481
1463.016,522.0,0.48
1466.513,525.0,0.479
1470.007,528.0,0.477
1473.478,531.0,0.476
1476.98,534.0,0.475
1480.46,537.0,0.473
1483.944,540.0,0.471
1487.448,543.0,0.47
1490.94,546.0,0.468
1494.437,549.0,0.466
1497.924,552.0,0.463
1501.423,555.0,0.462
1504.924,558.0,0.459
1508.41,561.0,0.457
1511.916,564.0,0.454
1515.415,567.0,0.452
1518.928,570.0,0.449
1522.427,573.0,0.447
1525.948,576.0,0.444
1529.445,579.0,0.441
1532.961,582.0,0.438
1536.47,585.0,0.435
1539.982,588.0,0.432
1543.504,591.0,0.428
1547.03,594.0,0.424
1550.558,597.0,0.42
1554.086,600.0,0.416
1557.613,603.0,0.412
1561.147,606.0,0.407
1564.69,609.0,0.402
1568.22,612.0,0.398
1571.764,615.0,0.391
1575.325,618.0,0.386
1578.87,621.0,0.379
1582.424,624.0,0.373
1585.988,627.0,0.366
1589.54,630.0,0.359
1593.101,633.0,0.352
1596.675,636.0,0.344
1600.228,639.0,0.337
1603.799,642.0,0.328
1607.376,645.0,0.32
1610.954,648.0,0.311
1614.535,651.0,0.302
1618.113,654.0,0.294
1621.721,657.0,0.284
1625.309,660.0,0.274
1628.905,663.0,0.264
1632.49,666.0,0.254
1636.105,669.0,0.243
1639.714,672.0,0.231
1643.314,675.0,0.219
1646.928,678.0,0.206
1650.538,681.0,0.194
1654.16,684.0,0.181
1657.783,687.0,0.169
1661.385,690.0,0.158
1664.99,693.0,0.148
1668.613,696.0,0.14
1672.229,699.0,0.133
1675.852,702.0,0.129
1679.476,705.0,0.126
1683.106,708.0,0.124
1686.731,711.0,0.122
1690.35,714.0,0.121
1693.99,717.0,0.12
1697.634,720.0,0.119
1701.258,723.0,0.119
1704.883,726.0,0.118
1708.532,729.0,0.117
1712.166,732.0,0.116
1715.798,735.0,0.115
1719.434,738.0,0.114
1723.071,741.0,0.114
1726.723,744.0,0.113
1730.365,747.0,0.112
1734.006,750.0,0.112
1737.648,753.0,0.111
1741.298,756.0,0.11
1744.948,759.0,0.11
1748.582,762.0,0.109
1752.23,765.0,0.109
1755.875,768.0,0.108
1759.521,771.0,0.107
1763.168,774.0,0.107
1766.822,777.0,0.107
1770.471,780.0,0.106
1774.115,783.0,0.106
1777.75,786.0,0.105
1781.405,789.0,0.105
1785.056,792.0,0.105
1788.701,795.0,0.104
1792.361,798.0,0.104
1796.006,801.0,0.104
1799.654,804.0,0.103
1803.296,807.0,0.103
1806.934,810.0,0.103
1810.59,813.0,0.102
1814.232,816.0,0.102
1817.882,819.0,0.102
1821.537,822.0,0.102
1825.177,825.0,0.101
1828.82,828.0,0.101
1832.463,831.0,0.101
1836.117,834.0,0.101
1839.76,837.0,0.101
1843.409,840.0,0.1
1847.053,843.0,0.1
1850.701,846.0,0.1
1854.353,849.0,0.1
1858.0,852.0,0.099
1861.633,855.0,0.099
1865.282,858.0,0.099
1868.933,861.0,0.099
1872.575,864.0,0.099
1876.213,867.0,0.098
1879.863,870.0,0.098
1883.508,873.0,0.098
1887.149,876.0,0.098
1890.8,879.0,0.097
1894.435,882.0,0.097
1898.073,885.0,0.097
1901.708,888.0,0.097
1905.352,891.0,0.097
1908.987,894.0,0.096
1912.624,897.0,0.096
1916.266,900.0,0.096
1919.909,903.0,0.096
1923.537,906.0,0.096
1927.173,909.0,0.096
1930.808,912.0,0.095
1934.45,915.0,0.095
1938.076,918.0,0.095
1941.72,921.0,0.095
1945.348,924.0,0.095
1948.976,927.0,0.095
1952.616,930.0,0.094
1956.248,933.0,0.094
1959.881,936.0,0.094
1963.517,939.0,0.094
1967.147,942.0,0.094
1970.781,945.0,0.094
1974.403,948.0,0.094
1978.027,951.0,0.093
1981.672,954.0,0.093
1985.294,957.0,0.093
1988.926,960.0,0.093
1992.561,963.0,0.093
1996.203,966.0,0.093
1999.831,969.0,0.093
2003.462,972.0,0.093
2007.091,975.0,0.093
2010.723,978.0,0.092
2014.35,981.0,0.092
2017.983,984.0,0.092
2021.619,987.0,0.092
2025.237,990.0,0.092
2028.875,993.0,0.092
2032.493,996.0,0.092
2036.114,999.0,0.092
2039.742,1002.0,0.092
2043.359,1005.0,0.091
2046.995,1008.0,0.091
2050.613,1011.0,0.091
2054.242,1014.0,0.091
2057.87,1017.0,0.091
2061.483,1020.0,0.091
2065.1,1023.0,0.091
2068.72,1026.0,0.091
2072.345,1029.0,0.091
2075.956,1032.0,0.09
2079.564,1035.0,0.09
2083.176,1038.0,0.09
2086.783,1041.0,0.09
2090.403,1044.0,0.09
2094.011,1047.0,0.09
2097.621,1050.0,0.09
2101.218,1053.0,0.09
2105.298,1056.0,0.09
2110.824,1059.0,0.09
2117.76,1062.0,0.09
2154.0,1068.921,0.089
2214.0,1071.317,0.089
2274.0,1071.982,0.089
2334.0,1072.27,0.088
2394.0,1072.403,0.088
2424.0,1072.434,0.088

File: TUBS_Wood_TGA_N2_593Kiso_R1.csv
Time (s),Temperature (K),Mass (mg)
0.0,305.0,1.02
60.0,304.7,1.011
227.0,304.5,1.002
1005.0,304.4,0.997
1194.0,304.4,0.996
1233.0,356.1,0.997
1251.0,402.0,0.988
1304.0,495.0,0.979
1327.0,520.3,0.97
1342.0,533.3,0.961
1355.0,542.8,0.952
1365.0,549.1,0.943
1374.0,554.1,0.934
1383.0,558.7,0.925
1392.0,562.7,0.916
1401.0,566.3,0.907
1410.0,569.5,0.898
1419.0,572.3,0.888
1428.0,574.8,0.878
1437.0,577.0,0.867
1446.0,579.0,0.857
1455.0,580.7,0.846
1464.0,582.3,0.836
1473.0,583.6,0.826
1482.0,584.8,0.817
1491.0,585.9,0.808
1500.0,586.8,0.799
1509.0,587.6,0.79
1519.0,588.4,0.781
1529.0,589.1,0.772
1539.0,589.7,0.763
1550.0,590.3,0.754
1561.0,590.7,0.745
1573.0,591.2,0.736
1586.0,591.6,0.727
1599.0,592.0,0.718
1673.0,593.1,0.676
1754.0,593.5,0.641
1835.0,593.7,0.612
1916.0,593.7,0.589
1997.0,593.7,0.568
2078.0,593.7,0.551
2159.0,593.7,0.535
2240.0,593.7,0.52
2321.0,593.7,0.506
2402.0,593.7,0.494
2483.0,593.7,0.482
2564.0,593.7,0.47
2645.0,593.7,0.459
2726.0,593.7,0.449
2807.0,593.7,0.439
2888.0,593.7,0.43
2969.0,593.7,0.42
3050.0,593.7,0.412
3131.0,593.7,0.403
3212.0,593.7,0.395
3293.0,593.7,0.388
3374.0,593.7,0.38
3455.0,593.8,0.372
3536.0,593.7,0.366
3617.0,593.8,0.359
3698.0,593.8,0.352
3779.0,593.8,0.346
3860.0,593.8,0.34
3941.0,593.8,0.334
4022.0,593.8,0.329
4103.0,593.8,0.324
4184.0,593.8,0.319
4265.0,593.8,0.314
4346.0,593.8,0.31
4427.0,593.8,0.306
4508.0,593.8,0.301
4589.0,593.8,0.298
4670.0,593.8,0.294
4751.0,593.8,0.29
4832.0,593.8,0.287
4913.0,593.8,0.284
4994.0,593.8,0.281
5075.0,593.8,0.279
5156.0,593.8,0.276
5237.0,593.8,0.274
5318.0,593.8,0.272
5399.0,593.8,0.269
5480.0,593.8,0.268
5561.0,593.8,0.266
5642.0,593.8,0.264
5723.0,593.8,0.263
5804.0,593.8,0.261
5885.0,593.8,0.26
5966.0,593.8,0.259
6047.0,593.8,0.258
6128.0,593.8,0.257
6209.0,593.8,0.256
6290.0,593.8,0.255
6371.0,593.8,0.254
6452.0,593.8,0.253
6533.0,593.8,0.252
6614.0,593.8,0.252
6695.0,593.8,0.251
6776.0,593.8,0.251
6857.0,593.8,0.25
6938.0,593.8,0.25
7019.0,593.8,0.25
7100.0,593.8,0.249
7181.0,593.8,0.249
7262.0,593.8,0.249
7343.0,593.8,0.248
7424.0,593.8,0.248
7505.0,593.8,0.248
7586.0,593.8,0.248
7667.0,593.8,0.247
7748.0,593.8,0.247
7829.0,593.8,0.247
7910.0,593.8,0.247
7991.0,593.8,0.247
8072.0,593.8,0.247
8153.0,593.8,0.246
8234.0,593.8,0.246
8315.0,593.8,0.246
8396.0,593.8,0.246
8477.0,593.8,0.246
8558.0,593.8,0.246
8639.0,593.8,0.246
8720.0,593.8,0.245
8801.0,593.8,0.245
8882.0,593.8,0.245
8963.0,593.8,0.245
9044.0,593.8,0.245
9125.0,593.8,0.245
9206.0,593.8,0.245
9287.0,593.8,0.244
9368.0,593.8,0.244
9449.0,593.8,0.244
9530.0,593.8,0.244
9611.0,593.8,0.244
9692.0,593.8,0.244
9773.0,593.8,0.243
9854.0,593.8,0.243
9935.0,593.8,0.243
10016.0,593.8,0.243
10097.0,593.8,0.243
10178.0,593.8,0.243
10259.0,593.8,0.243
10340.0,593.8,0.243
10421.0,593.8,0.243
10502.0,593.8,0.243
10583.0,593.8,0.243
10664.0,593.8,0.243
10745.0,593.8,0.242
10826.0,593.8,0.243
10907.0,593.8,0.242
10988.0,593.8,0.242
11069.0,593.8,0.242
11150.0,593.8,0.242
11231.0,593.8,0.242
11312.0,593.8,0.242
11393.0,593.8,0.242
11474.0,593.8,0.242
11555.0,593.8,0.242
11636.0,593.8,0.242
11717.0,593.8,0.241
11798.0,593.8,0.241
11879.0,593.8,0.241
11960.0,593.8,0.241
12041.0,593.8,0.241
12122.0,593.8,0.241
12203.0,593.8,0.241
12284.0,593.8,0.241
12365.0,593.8,0.241
12446.0,593.8,0.241
12527.0,593.8,0.241
12608.0,593.8,0.241
12689.0,593.8,0.241
12770.0,593.8,0.241
12851.0,593.8,0.241
12932.0,593.8,0.241
13013.0,593.8,0.24
13094.0,593.8,0.24
13175.0,593.8,0.241
13256.0,593.8,0.24
13337.0,593.8,0.24
13418.0,593.8,0.24
13499.0,593.8,0.24
13580.0,593.8,0.24
13661.0,593.8,0.24
13742.0,593.8,0.24
13823.0,593.8,0.24
13904.0,593.8,0.24
13985.0,593.8,0.24
14066.0,593.8,0.239
14147.0,593.8,0.24
14228.0,593.8,0.239
14309.0,593.8,0.24
14390.0,593.8,0.24
14471.0,593.8,0.24
14552.0,593.8,0.239
14633.0,593.8,0.239
14714.0,593.8,0.239
14795.0,593.8,0.239
14876.0,593.8,0.239
14957.0,593.8,0.239
15038.0,593.8,0.239
15119.0,593.8,0.239
15200.0,593.8,0.239
15281.0,593.8,0.239
15362.0,593.8,0.239
15443.0,593.8,0.239
15524.0,593.8,0.238
15605.0,593.8,0.238
15686.0,593.8,0.238
15767.0,593.8,0.238
15848.0,593.8,0.238
15929.0,593.8,0.238
16010.0,593.8,0.238
16091.0,593.8,0.238
16172.0,593.8,0.238
16253.0,593.8,0.238
16334.0,593.8,0.238
16415.0,593.8,0.238
16496.0,593.8,0.238
16577.0,593.8,0.238
16658.0,593.8,0.238
16739.0,593.8,0.238
16820.0,593.8,0.238
16901.0,593.8,0.238
16982.0,593.8,0.238
17063.0,593.8,0.237
17144.0,593.8,0.237
17225.0,593.8,0.237
17306.0,593.8,0.237
17387.0,593.8,0.237
17468.0,593.8,0.237
17549.0,593.8,0.237
17630.0,593.8,0.237
17711.0,593.8,0.237
17792.0,593.8,0.237
17873.0,593.8,0.237
17954.0,593.8,0.237
18035.0,593.8,0.237
18116.0,593.8,0.237
18197.0,593.8,0.237
18278.0,593.8,0.237
18359.0,593.8,0.237
18440.0,593.8,0.237
18521.0,593.8,0.237
18602.0,593.8,0.237
18683.0,593.8,0.236
18764.0,593.8,0.236
18845.0,593.8,0.236
18926.0,593.8,0.237
19007.0,593.8,0.236
19088.0,593.8,0.236
19169.0,593.8,0.236
19250.0,593.8,0.236
19331.0,593.8,0.236
19412.0,593.8,0.237
19493.0,593.8,0.236
19574.0,593.8,0.236
19655.0,593.8,0.236
19736.0,593.8,0.236
19817.0,593.8,0.236
19898.0,593.8,0.236
19979.0,593.8,0.236
20060.0,593.8,0.236
20141.0,593.8,0.236
20222.0,593.8,0.236
20303.0,593.8,0.236
20384.0,593.8,0.236
20465.0,593.8,0.236
20546.0,593.8,0.236
20627.0,593.8,0.236
20708.0,593.8,0.236
20789.0,593.8,0.236
20870.0,593.8,0.236
20951.0,593.8,0.236
21032.0,593.8,0.236
21113.0,593.8,0.235
21194.0,593.8,0.235
21275.0,593.8,0.235
21356.0,593.8,0.235
21437.0,593.8,0.235
21518.0,593.8,0.235
21599.0,593.8,0.235
21680.0,593.8,0.235
21761.0,593.8,0.235
21842.0,593.8,0.235
21923.0,593.8,0.235
22004.0,593.8,0.235
22085.0,593.8,0.235
22166.0,593.8,0.235
22247.0,593.8,0.235
22328.0,593.8,0.235
22409.0,593.8,0.235
22490.0,593.8,0.235
22571.0,593.8,0.235
22652.0,593.8,0.235
22733.0,593.8,0.234
22814.0,593.8,0.234