Folder: matl-db/Wood/Calibration_Data/TUBS (part 10)

File: TUBS_Wood_TGA_N2_50K_R6.csv
Time (s),Temperature (K),Mass (mg)
0.0,304.923,3.999
16.0,304.86,3.993
31.0,304.804,3.987
47.0,304.728,3.981
65.0,304.691,3.975
84.0,304.671,3.969
105.0,304.631,3.963
129.0,304.591,3.957
155.0,304.562,3.951
184.0,304.511,3.945
216.0,304.504,3.939
253.0,304.484,3.933
294.0,304.461,3.927
340.0,304.433,3.921
398.0,304.433,3.915
460.0,304.432,3.909
541.0,304.419,3.903
638.0,304.423,3.897
770.0,304.446,3.891
936.0,304.445,3.885
1195.0,304.441,3.879
1208.477,307.5,3.876
1213.081,310.5,3.878
1216.919,313.5,3.88
1220.615,316.5,3.881
1224.233,319.5,3.88
1227.849,322.5,3.879
1231.425,325.5,3.878
1235.03,328.5,3.877
1238.611,331.5,3.875
1242.218,334.5,3.874
1245.819,337.5,3.873
1249.426,340.5,3.871
1253.046,343.5,3.869
1256.66,346.5,3.866
1260.27,349.5,3.864
1263.91,352.5,3.861
1267.529,355.5,3.857
1271.142,358.5,3.855
1274.768,361.5,3.851
1278.382,364.5,3.848
1282.006,367.5,3.844
1285.614,370.5,3.841
1289.235,373.5,3.838
1292.827,376.5,3.835
1296.422,379.5,3.833
1300.007,382.5,3.831
1303.604,385.5,3.829
1307.186,388.5,3.828
1310.782,391.5,3.827
1314.36,394.5,3.826
1317.952,397.5,3.825
1321.517,400.5,3.825
1325.114,403.5,3.824
1328.674,406.5,3.824
1332.254,409.5,3.824
1335.828,412.5,3.824
1339.4,415.5,3.824
1342.965,418.5,3.823
1346.535,421.5,3.823
1350.088,424.5,3.823
1353.648,427.5,3.823
1357.201,430.5,3.822
1360.753,433.5,3.822
1364.302,436.5,3.822
1367.845,439.5,3.821
1371.386,442.5,3.821
1374.931,445.5,3.82
1378.467,448.5,3.82
1381.991,451.5,3.819
1385.526,454.5,3.818
1389.067,457.5,3.817
1392.59,460.5,3.816
1396.11,463.5,3.815
1399.615,466.5,3.813
1403.133,469.5,3.812
1406.65,472.5,3.81
1410.163,475.5,3.808
1413.669,478.5,3.805
1417.173,481.5,3.803
1420.678,484.5,3.799
1424.193,487.5,3.796
1427.699,490.5,3.792
1431.198,493.5,3.788
1434.704,496.5,3.783
1438.194,499.5,3.778
1441.692,502.5,3.772
1445.193,505.5,3.766
1448.682,508.5,3.76
1452.178,511.5,3.753
1455.685,514.5,3.747
1459.174,517.5,3.74
1462.68,520.5,3.732
1466.183,523.5,3.725
1469.675,526.5,3.717
1473.165,529.5,3.709
1476.669,532.5,3.699
1480.163,535.5,3.69
1483.671,538.5,3.679
1487.171,541.5,3.668
1490.683,544.5,3.656
1494.185,547.5,3.643
1497.692,550.5,3.629
1501.197,553.5,3.615
1504.702,556.5,3.599
1508.219,559.5,3.583
1511.732,562.5,3.565
1515.24,565.5,3.547
1518.769,568.5,3.527
1522.272,571.5,3.506
1525.803,574.5,3.483
1529.326,577.5,3.46
1532.844,580.5,3.435
1536.389,583.5,3.409
1539.908,586.5,3.382
1543.439,589.5,3.352
1546.963,592.5,3.322
1550.497,595.5,3.29
1554.044,598.5,3.256
1557.588,601.5,3.219
1561.135,604.5,3.182
1564.681,607.5,3.142
1568.233,610.5,3.099
1571.783,613.5,3.056
1575.343,616.5,3.009
1578.903,619.5,2.959
1582.467,622.5,2.908
1586.026,625.5,2.855
1589.599,628.5,2.797
1593.177,631.5,2.739
1596.751,634.5,2.678
1600.335,637.5,2.615
1603.92,640.5,2.55
1607.511,643.5,2.483
1611.114,646.5,2.414
1614.7,649.5,2.343
1618.304,652.5,2.269
1621.916,655.5,2.192
1625.529,658.5,2.112
1629.154,661.5,2.027
1632.779,664.5,1.94
1636.422,667.5,1.846
1640.044,670.5,1.749
1643.675,673.5,1.648
1647.304,676.5,1.544
1650.906,679.5,1.442
1654.507,682.5,1.341
1658.096,685.5,1.248
1661.669,688.5,1.165
1665.234,691.5,1.096
1668.81,694.5,1.045
1672.389,697.5,1.007
1675.989,700.5,0.982
1679.565,703.5,0.964
1683.167,706.5,0.95
1686.78,709.5,0.94
1690.393,712.5,0.93
1694.007,715.5,0.921
1697.624,718.5,0.912
1701.238,721.5,0.904
1704.857,724.5,0.896
1708.486,727.5,0.889
1712.094,730.5,0.881
1715.722,733.5,0.874
1719.349,736.5,0.867
1722.981,739.5,0.86
1726.599,742.5,0.854
1730.235,745.5,0.847
1733.856,748.5,0.841
1737.498,751.5,0.835
1741.12,754.5,0.829
1744.749,757.5,0.824
1748.392,760.5,0.818
1752.025,763.5,0.813
1755.646,766.5,0.808
1759.285,769.5,0.804
1762.914,772.5,0.799
1766.522,775.5,0.794
1770.149,778.5,0.791
1773.759,781.5,0.786
1777.385,784.5,0.783
1780.986,787.5,0.779
1784.583,790.5,0.775
1788.172,793.5,0.771
1791.755,796.5,0.767
1795.344,799.5,0.764
1798.921,802.5,0.761
1802.486,805.5,0.758
1806.058,808.5,0.754
1809.622,811.5,0.75
1813.191,814.5,0.748
1816.754,817.5,0.744
1820.313,820.5,0.741
1823.881,823.5,0.738
1827.455,826.5,0.735
1831.032,829.5,0.732
1834.589,832.5,0.729
1838.179,835.5,0.726
1841.779,838.5,0.723
1845.356,841.5,0.721
1848.939,844.5,0.718
1852.529,847.5,0.715
1856.121,850.5,0.713
1859.724,853.5,0.71
1863.317,856.5,0.708
1866.922,859.5,0.705
1870.517,862.5,0.703
1874.128,865.5,0.701
1877.729,868.5,0.698
1881.34,871.5,0.696
1884.95,874.5,0.694
1888.565,877.5,0.691
1892.177,880.5,0.69
1895.79,883.5,0.687
1899.406,886.5,0.686
1903.019,889.5,0.683
1906.642,892.5,0.681
1910.261,895.5,0.68
1913.879,898.5,0.677
1917.501,901.5,0.675
1921.117,904.5,0.674
1924.737,907.5,0.672
1928.369,910.5,0.67
1931.992,913.5,0.669
1935.614,916.5,0.667
1939.239,919.5,0.665
1942.848,922.5,0.663
1946.474,925.5,0.662
1950.093,928.5,0.66
1953.714,931.5,0.659
1957.325,934.5,0.657
1960.951,937.5,0.656
1964.574,940.5,0.654
1968.2,943.5,0.653
1971.82,946.5,0.651
1975.448,949.5,0.65
1979.082,952.5,0.648
1982.705,955.5,0.647
1986.326,958.5,0.646
1989.954,961.5,0.644
1993.597,964.5,0.643
1997.222,967.5,0.642
2000.865,970.5,0.64
2004.494,973.5,0.639
2008.137,976.5,0.638
2011.787,979.5,0.636
2015.42,982.5,0.635
2019.056,985.5,0.634
2022.697,988.5,0.633
2026.33,991.5,0.632
2029.96,994.5,0.631
2033.599,997.5,0.63
2037.22,1000.5,0.629
2040.866,1003.5,0.628
2044.491,1006.5,0.627
2048.122,1009.5,0.626
2051.736,1012.5,0.625
2055.368,1015.5,0.624
2058.982,1018.5,0.623
2062.602,1021.5,0.623
2066.227,1024.5,0.622
2069.834,1027.5,0.621
2073.463,1030.5,0.62
2077.077,1033.5,0.619
2080.695,1036.5,0.619
2084.314,1039.5,0.618
2087.922,1042.5,0.617
2091.54,1045.5,0.616
2095.141,1048.5,0.615
2098.762,1051.5,0.614
2102.366,1054.5,0.614
2107.681,1057.5,0.612
2114.039,1060.5,0.611
2124.0,1063.863,0.609
2184.0,1070.248,0.602
2244.0,1071.282,0.598
2304.0,1071.66,0.594
2364.0,1071.81,0.591
2424.0,1071.875,0.588

File: TUBS_Wood_TGA_N2_50K_R7.csv
Time (s),Temperature (K),Mass (mg)
0.0,304.994,2.03
24.0,304.889,2.024
54.0,304.781,2.018
94.0,304.683,2.012
147.0,304.614,2.006
218.0,304.544,2.0
330.0,304.47,1.994
522.0,304.437,1.988
1123.0,304.452,1.982
1206.753,306.5,1.98
1211.691,309.5,1.981
1215.659,312.5,1.983
1219.366,315.5,1.984
1222.999,318.5,1.983
1226.596,321.5,1.983
1230.195,324.5,1.982
1233.79,327.5,1.98
1237.385,330.5,1.98
1240.971,333.5,1.979
1244.564,336.5,1.978
1248.173,339.5,1.977
1251.773,342.5,1.976
1255.384,345.5,1.975
1258.98,348.5,1.973
1262.6,351.5,1.972
1266.217,354.5,1.971
1269.827,357.5,1.969
1273.438,360.5,1.968
1277.035,363.5,1.966
1280.654,366.5,1.965
1284.263,369.5,1.964
1287.874,372.5,1.962
1291.474,375.5,1.961
1295.079,378.5,1.961
1298.657,381.5,1.96
1302.269,384.5,1.959
1305.863,387.5,1.959
1309.448,390.5,1.959
1313.044,393.5,1.958
1316.633,396.5,1.958
1320.218,399.5,1.958
1323.802,402.5,1.958
1327.383,405.5,1.958
1330.974,408.5,1.958
1334.549,411.5,1.958
1338.105,414.5,1.958
1341.685,417.5,1.957
1345.253,420.5,1.957
1348.825,423.5,1.957
1352.375,426.5,1.957
1355.933,429.5,1.957
1359.486,432.5,1.957
1363.033,435.5,1.956
1366.584,438.5,1.956
1370.129,441.5,1.956
1373.671,444.5,1.955
1377.204,447.5,1.955
1380.736,450.5,1.954
1384.273,453.5,1.954
1387.795,456.5,1.953
1391.31,459.5,1.953
1394.837,462.5,1.952
1398.349,465.5,1.951
1401.863,468.5,1.95
1405.379,471.5,1.949
1408.889,474.5,1.947
1412.396,477.5,1.946
1415.902,480.5,1.944
1419.41,483.5,1.942
1422.919,486.5,1.94
1426.422,489.5,1.938
1429.914,492.5,1.935
1433.421,495.5,1.933
1436.917,498.5,1.929
1440.408,501.5,1.927
1443.92,504.5,1.923
1447.414,507.5,1.921
1450.911,510.5,1.917
1454.41,513.5,1.914
1457.914,516.5,1.91
1461.409,519.5,1.906
1464.923,522.5,1.902
1468.413,525.5,1.898
1471.911,528.5,1.893
1475.418,531.5,1.888
1478.902,534.5,1.882
1482.411,537.5,1.877
1485.916,540.5,1.87
1489.419,543.5,1.863
1492.926,546.5,1.856
1496.447,549.5,1.848
1499.955,552.5,1.84
1503.461,555.5,1.831
1506.972,558.5,1.822
1510.487,561.5,1.812
1513.999,564.5,1.801
1517.521,567.5,1.79
1521.04,570.5,1.779
1524.556,573.5,1.767
1528.079,576.5,1.755
1531.607,579.5,1.742
1535.121,582.5,1.729
1538.656,585.5,1.714
1542.172,588.5,1.7
1545.719,591.5,1.685
1549.273,594.5,1.669
1552.791,597.5,1.652
1556.347,600.5,1.634
1559.91,603.5,1.615
1563.446,606.5,1.595
1567.004,609.5,1.575
1570.553,612.5,1.553
1574.119,615.5,1.529
1577.677,618.5,1.504
1581.238,621.5,1.478
1584.816,624.5,1.451
1588.385,627.5,1.423
1591.953,630.5,1.393
1595.534,633.5,1.362
1599.11,636.5,1.331
1602.699,639.5,1.298
1606.281,642.5,1.263
1609.876,645.5,1.229
1613.465,648.5,1.193
1617.075,651.5,1.155
1620.678,654.5,1.118
1624.294,657.5,1.077
1627.9,660.5,1.035
1631.53,663.5,0.992
1635.153,666.5,0.946
1638.774,669.5,0.898
1642.387,672.5,0.848
1646.008,675.5,0.796
1649.642,678.5,0.743
1653.267,681.5,0.691
1656.882,684.5,0.642
1660.478,687.5,0.596
1664.079,690.5,0.557
1667.683,693.5,0.526
1671.29,696.5,0.502
1674.891,699.5,0.485
1678.519,702.5,0.474
1682.128,705.5,0.467
1685.761,708.5,0.46
1689.382,711.5,0.456
1693.004,714.5,0.451
1696.642,717.5,0.447
1700.271,720.5,0.443
1703.899,723.5,0.439
1707.526,726.5,0.435
1711.164,729.5,0.432
1714.807,732.5,0.428
1718.435,735.5,0.426
1722.085,738.5,0.422
1725.72,741.5,0.418
1729.365,744.5,0.416
1732.992,747.5,0.413
1736.628,750.5,0.409
1740.28,753.5,0.407
1743.935,756.5,0.404
1747.571,759.5,0.401
1751.222,762.5,0.399
1754.865,765.5,0.396
1758.51,768.5,0.394
1762.151,771.5,0.392
1765.79,774.5,0.39
1769.446,777.5,0.388
1773.095,780.5,0.386
1776.733,783.5,0.384
1780.379,786.5,0.383
1784.028,789.5,0.381
1787.668,792.5,0.379
1791.311,795.5,0.378
1794.967,798.5,0.376
1798.603,801.5,0.375
1802.241,804.5,0.374
1805.883,807.5,0.372
1809.539,810.5,0.371
1813.182,813.5,0.37
1816.825,816.5,0.368
1820.476,819.5,0.367
1824.113,822.5,0.366
1827.754,825.5,0.365
1831.408,828.5,0.364
1835.061,831.5,0.362
1838.692,834.5,0.361
1842.338,837.5,0.36
1845.982,840.5,0.359
1849.626,843.5,0.358
1853.259,846.5,0.357
1856.914,849.5,0.356
1860.552,852.5,0.355
1864.187,855.5,0.354
1867.837,858.5,0.353
1871.467,861.5,0.352
1875.105,864.5,0.351
1878.763,867.5,0.35
1882.405,870.5,0.349
1886.033,873.5,0.348
1889.675,876.5,0.347
1893.309,879.5,0.346
1896.938,882.5,0.345
1900.572,885.5,0.344
1904.206,888.5,0.343
1907.843,891.5,0.342
1911.462,894.5,0.342
1915.088,897.5,0.341
1918.713,900.5,0.34
1922.348,903.5,0.339
1925.979,906.5,0.338
1929.593,909.5,0.338
1933.22,912.5,0.337
1936.844,915.5,0.336
1940.468,918.5,0.336
1944.088,921.5,0.335
1947.69,924.5,0.334
1951.312,927.5,0.333
1954.93,930.5,0.333
1958.543,933.5,0.332
1962.166,936.5,0.331
1965.777,939.5,0.331
1969.39,942.5,0.33
1972.995,945.5,0.33
1976.608,948.5,0.329
1980.212,951.5,0.329
1983.824,954.5,0.328
1987.434,957.5,0.328
1991.041,960.5,0.327
1994.654,963.5,0.326
1998.262,966.5,0.326
2001.86,969.5,0.326
2005.467,972.5,0.325
2009.059,975.5,0.325
2012.669,978.5,0.324
2016.271,981.5,0.324
2019.868,984.5,0.323
2023.475,987.5,0.323
2027.072,990.5,0.322
2030.672,993.5,0.322
2034.265,996.5,0.322
2037.871,999.5,0.321
2041.458,1002.5,0.321
2045.064,1005.5,0.32
2048.655,1008.5,0.32
2052.247,1011.5,0.319
2055.844,1014.5,0.319
2059.427,1017.5,0.319
2063.02,1020.5,0.318
2066.616,1023.5,0.318
2070.203,1026.5,0.318
2073.781,1029.5,0.317
2077.375,1032.5,0.317
2080.963,1035.5,0.317
2084.547,1038.5,0.316
2088.141,1041.5,0.316
2091.716,1044.5,0.316
2095.305,1047.5,0.315
2098.887,1050.5,0.315
2102.48,1053.5,0.315
2107.476,1056.5,0.314
2113.331,1059.5,0.314
2121.149,1062.5,0.313
2164.0,1069.28,0.311
2224.0,1071.172,0.308
2284.0,1071.721,0.307
2344.0,1071.958,0.305
2404.0,1072.063,0.304
2424.0,1072.082,0.303

File: TUBS_Wood_TGA_N2_50K_R8.csv
Time (s),Temperature (K),Mass (mg)
0.0,305.008,1.97968
9.0,304.952,1.97771
18.0,304.927,1.9756
27.0,304.846,1.97351
36.0,304.85,1.97166
45.0,304.817,1.96989
54.0,304.784,1.96817
63.0,304.77,1.96663
72.0,304.76,1.96515
81.0,304.719,1.96374
90.0,304.704,1.96238
99.0,304.688,1.96116
108.0,304.67,1.96
117.0,304.672,1.95886
126.0,304.642,1.95783
135.0,304.636,1.95682
144.0,304.636,1.95589
153.0,304.618,1.95497
162.0,304.593,1.95407
171.0,304.586,1.95318
180.0,304.581,1.95259
189.0,304.574,1.95185
198.0,304.556,1.95106
207.0,304.547,1.95028
216.0,304.565,1.94973
225.0,304.528,1.94911
234.0,304.532,1.94852
243.0,304.528,1.94793
252.0,304.523,1.94745
261.0,304.509,1.94687
270.0,304.508,1.9463
279.0,304.503,1.94574
288.0,304.508,1.94518
297.0,304.489,1.94477
306.0,304.5,1.94425
315.0,304.485,1.94383
324.0,304.482,1.94342
333.0,304.482,1.94303
342.0,304.488,1.94264
351.0,304.483,1.94227
360.0,304.463,1.94189
369.0,304.473,1.94153
378.0,304.479,1.94116
387.0,304.481,1.94095
396.0,304.458,1.94063
405.0,304.462,1.94034
414.0,304.465,1.93997
423.0,304.462,1.93958
432.0,304.456,1.93926
441.0,304.442,1.939
450.0,304.441,1.93879
459.0,304.438,1.93849
468.0,304.455,1.93829
477.0,304.453,1.93815
486.0,304.449,1.93779
496.0,304.433,1.93768
505.0,304.432,1.93749
516.0,304.443,1.93737
525.0,304.443,1.93711
534.0,304.445,1.93691
543.0,304.448,1.93673
552.0,304.45,1.9365
562.0,304.449,1.93637
571.0,304.433,1.93619
584.0,304.445,1.93605
594.0,304.443,1.93586
603.0,304.432,1.9357
615.0,304.441,1.93557
624.0,304.436,1.93533
633.0,304.44,1.9352
646.0,304.429,1.93512
655.0,304.43,1.93493
667.0,304.438,1.93481
677.0,304.459,1.93467
687.0,304.44,1.93456
697.0,304.444,1.93439
706.0,304.422,1.93423
716.0,304.441,1.93414
726.0,304.432,1.93404
735.0,304.443,1.93392
744.0,304.436,1.93381
753.0,304.435,1.93362
769.0,304.435,1.93364
787.0,304.437,1.93364
796.0,304.443,1.93342
808.0,304.434,1.93328
817.0,304.43,1.9331
847.0,304.432,1.93294
870.0,304.429,1.93277
880.0,304.441,1.93266
889.0,304.455,1.93255
905.0,304.45,1.93249
914.0,304.455,1.93235
923.0,304.443,1.93219
935.0,304.452,1.93208
947.0,304.446,1.93217
965.0,304.447,1.93203
974.0,304.444,1.93187
997.0,304.461,1.93177
1019.0,304.444,1.93157
1032.0,304.465,1.93151
1046.0,304.442,1.9315
1056.0,304.454,1.93145
1078.0,304.451,1.93134
1120.0,304.463,1.93124
1129.0,304.463,1.93113
1149.0,304.449,1.93113
1160.0,304.444,1.9311
1180.0,304.463,1.93102
1189.0,304.451,1.9309
1199.0,304.443,1.93071
1210.339,308.5,1.9286
1216.15,313.0,1.93217
1221.506,317.5,1.93256
1226.806,322.0,1.93163
1232.106,326.5,1.92984
1237.428,331.0,1.92823
1242.775,335.5,1.92685
1248.111,340.0,1.9254
1253.501,344.5,1.92361
1258.863,349.0,1.92164
1264.261,353.5,1.9195
1269.645,358.0,1.91724
1275.037,362.5,1.91499
1280.43,367.0,1.91305
1285.82,371.5,1.91137
1291.205,376.0,1.90996
1296.575,380.5,1.90888
1301.965,385.0,1.90795
1307.333,389.5,1.90732
1312.707,394.0,1.90699
1318.053,398.5,1.90676
1323.412,403.0,1.9066
1328.761,407.5,1.90643
1334.099,412.0,1.9063
1339.443,416.5,1.90617
1344.783,421.0,1.90601
1350.095,425.5,1.90574
1355.413,430.0,1.90545
1360.718,434.5,1.90512
1366.016,439.0,1.90469
1371.324,443.5,1.90413
1376.611,448.0,1.9035
1381.885,452.5,1.90283
1387.16,457.0,1.90198
1392.421,461.5,1.90085
1397.676,466.0,1.89939
1402.931,470.5,1.8976
1408.184,475.0,1.89546
1413.416,479.5,1.89282
1418.672,484.0,1.88976
1423.907,488.5,1.88626
1429.148,493.0,1.8824
1434.363,497.5,1.87829
1439.601,502.0,1.87392
1444.83,506.5,1.86937
1450.051,511.0,1.86469
1455.28,515.5,1.85974
1460.51,520.0,1.85438
1465.752,524.5,1.8485
1470.988,529.0,1.84194
1476.211,533.5,1.83455
1481.456,538.0,1.82633
1486.693,542.5,1.81721
1491.953,547.0,1.80677
1497.176,551.5,1.79528
1502.43,556.0,1.78275
1507.681,560.5,1.76917
1512.933,565.0,1.75454
1518.184,569.5,1.73898
1523.456,574.0,1.72233
1528.718,578.5,1.70463
1534.0,583.0,1.68584
1539.266,587.5,1.66592
1544.558,592.0,1.64448
1549.849,596.5,1.62155
1555.146,601.0,1.59678
1560.442,605.5,1.56976
1565.757,610.0,1.54049
1571.081,614.5,1.50861
1576.408,619.0,1.47382
1581.734,623.5,1.43644
1587.087,628.0,1.39627
1592.431,632.5,1.35344
1597.78,637.0,1.30838
1603.152,641.5,1.26101
1608.521,646.0,1.21147
1613.914,650.5,1.15955
1619.292,655.0,1.10525
1624.691,659.5,1.04759
1630.112,664.0,0.98592
1635.541,668.5,0.91951
1640.957,673.0,0.84858
1646.384,677.5,0.77388
1651.813,682.0,0.69818
1657.198,686.5,0.62737
1662.591,691.0,0.56687
1667.983,695.5,0.52306
1673.39,700.0,0.49511
1678.801,704.5,0.4791
1684.227,709.0,0.47001
1689.665,713.5,0.46308
1695.095,718.0,0.45712
1700.542,722.5,0.45151
1705.98,727.0,0.44618
1711.429,731.5,0.44106
1716.868,736.0,0.43616
1722.337,740.5,0.43148
1727.787,745.0,0.42691
1733.248,749.5,0.42247
1738.711,754.0,0.41836
1744.156,758.5,0.41453
1749.632,763.0,0.4109
1755.103,767.5,0.40755
1760.571,772.0,0.40444
1766.044,776.5,0.40154
1771.509,781.0,0.39881
1776.976,785.5,0.39622
1782.458,790.0,0.39383
1787.931,794.5,0.39161
1793.39,799.0,0.38944
1798.862,803.5,0.38739
1804.326,808.0,0.3854
1809.799,812.5,0.38344
1815.268,817.0,0.38155
1820.726,821.5,0.37972
1826.194,826.0,0.37801
1831.663,830.5,0.37651
1837.128,835.0,0.37504
1842.594,839.5,0.37349
1848.063,844.0,0.37192
1853.527,848.5,0.37036
1858.994,853.0,0.36883
1864.45,857.5,0.36738
1869.914,862.0,0.36598
1875.361,866.5,0.36466
1880.831,871.0,0.36325
1886.28,875.5,0.36179
1891.743,880.0,0.36048
1897.186,884.5,0.35931
1902.636,889.0,0.35813
1908.092,893.5,0.35695
1913.544,898.0,0.35578
1918.976,902.5,0.35464
1924.427,907.0,0.3535
1929.869,911.5,0.3524
1935.303,916.0,0.35126
1940.766,920.5,0.35011
1946.187,925.0,0.34913
1951.63,929.5,0.34819
1957.07,934.0,0.3473
1962.501,938.5,0.34648
1967.937,943.0,0.34561
1973.36,947.5,0.34467
1978.799,952.0,0.34376
1984.216,956.5,0.34297
1989.655,961.0,0.34215
1995.072,965.5,0.34144
2000.504,970.0,0.34073
2005.939,974.5,0.34
2011.366,979.0,0.33937
2016.798,983.5,0.33881
2022.224,988.0,0.33824
2027.653,992.5,0.33765
2033.079,997.0,0.33709
2038.502,1001.5,0.33651
2043.921,1006.0,0.33589
2049.351,1010.5,0.3353
2054.78,1015.0,0.33476
2060.192,1019.5,0.33431
2065.613,1024.0,0.3339
2071.031,1028.5,0.33344
2076.438,1033.0,0.3329
2081.854,1037.5,0.33238
2087.255,1042.0,0.33184
2092.667,1046.5,0.33131
2098.059,1051.0,0.33082
2103.408,1055.5,0.3304
2111.776,1060.0,0.32977
2124.0,1064.384,0.32874
2214.0,1071.324,0.32554
2304.0,1072.119,0.32313
2394.0,1072.326,0.32125
2424.0,1072.356,0.32071

File: TUBS_Wood_TGA_N2_50K_R9.csv
Time (s),Temperature (K),Mass (mg)
0.0,304.972,2.01966
9.0,304.929,2.01765
18.0,304.888,2.01534
27.0,304.844,2.01315
36.0,304.835,2.01133
45.0,304.796,2.00956
54.0,304.768,2.00784
63.0,304.744,2.00615
72.0,304.731,2.00463
81.0,304.714,2.00314
90.0,304.713,2.00169
99.0,304.672,2.00042
108.0,304.665,1.99934
117.0,304.653,1.99822
126.0,304.635,1.99707
135.0,304.615,1.99602
144.0,304.613,1.99508
153.0,304.62,1.99414
162.0,304.585,1.99315
171.0,304.57,1.99236
180.0,304.58,1.99168
189.0,304.54,1.99082
198.0,304.553,1.99003
207.0,304.55,1.98932
216.0,304.546,1.98859
225.0,304.528,1.98793
234.0,304.521,1.98732
243.0,304.518,1.98665
252.0,304.504,1.98616
261.0,304.49,1.98563
270.0,304.485,1.98503
279.0,304.482,1.98448
288.0,304.478,1.98394
297.0,304.47,1.98338
306.0,304.48,1.98285
315.0,304.467,1.98246
324.0,304.47,1.98207
333.0,304.452,1.98169
342.0,304.456,1.98129
351.0,304.443,1.98088
360.0,304.455,1.9805
369.0,304.448,1.98008
378.0,304.444,1.97986
387.0,304.452,1.97953
396.0,304.43,1.97916
405.0,304.453,1.97889
414.0,304.453,1.97851
423.0,304.445,1.97818
432.0,304.446,1.97791
441.0,304.433,1.9776
450.0,304.434,1.97736
459.0,304.444,1.97699
468.0,304.448,1.97678
477.0,304.445,1.97657
486.0,304.43,1.97625
495.0,304.426,1.97608
504.0,304.433,1.97583
513.0,304.422,1.97563
522.0,304.434,1.97539
531.0,304.432,1.97518
540.0,304.428,1.97505
549.0,304.427,1.97491
558.0,304.436,1.97473
567.0,304.409,1.97448
577.0,304.411,1.97431
586.0,304.427,1.97401
600.0,304.427,1.97387
609.0,304.429,1.97371
618.0,304.436,1.97356
627.0,304.437,1.97338
636.0,304.429,1.97312
652.0,304.43,1.97304
662.0,304.443,1.9729
671.0,304.424,1.97264
681.0,304.446,1.97251
691.0,304.446,1.97241
702.0,304.431,1.97225
712.0,304.432,1.97214
722.0,304.436,1.97201
737.0,304.443,1.97188
746.0,304.451,1.9717
755.0,304.432,1.97153
772.0,304.421,1.97144
787.0,304.429,1.97133
796.0,304.445,1.97118
805.0,304.434,1.97104
820.0,304.442,1.97093
829.0,304.432,1.97073
842.0,304.443,1.97059
852.0,304.437,1.97044
879.0,304.448,1.97035
889.0,304.431,1.97022
899.0,304.448,1.97002
913.0,304.444,1.97006
922.0,304.421,1.96991
931.0,304.429,1.96979
942.0,304.432,1.96976
954.0,304.438,1.96972
964.0,304.428,1.96955
974.0,304.431,1.96938
989.0,304.445,1.96932
1001.0,304.437,1.96937
1010.0,304.45,1.96925
1019.0,304.448,1.96915
1036.0,304.456,1.96915
1056.0,304.439,1.9691
1070.0,304.44,1.969
1087.0,304.424,1.96884
1119.0,304.429,1.96877
1130.0,304.428,1.96867
1139.0,304.43,1.96856
1153.0,304.435,1.96858
1172.0,304.438,1.96859
1182.0,304.424,1.96849
1191.0,304.451,1.96833
1205.319,305.5,1.96619
1212.445,310.0,1.96746
1218.102,314.5,1.97023
1223.476,319.0,1.97012
1228.826,323.5,1.96892
1234.172,328.0,1.96728
1239.522,332.5,1.96583
1244.91,337.0,1.96445
1250.276,341.5,1.9629
1255.681,346.0,1.96111
1261.081,350.5,1.95908
1266.477,355.0,1.95682
1271.896,359.5,1.95454
1277.276,364.0,1.95239
1282.69,368.5,1.95043
1288.068,373.0,1.94863
1293.464,377.5,1.94724
1298.851,382.0,1.94622
1304.226,386.5,1.94546
1309.61,391.0,1.94497
1314.998,395.5,1.94463
1320.356,400.0,1.94441
1325.722,404.5,1.94429
1331.076,409.0,1.94415
1336.405,413.5,1.94399
1341.742,418.0,1.94382
1347.098,422.5,1.94362
1352.409,427.0,1.94338
1357.723,431.5,1.94311
1363.025,436.0,1.94276
1368.339,440.5,1.94231
1373.646,445.0,1.94169
1378.923,449.5,1.94101
1384.21,454.0,1.94017
1389.479,458.5,1.93914
1394.74,463.0,1.93792
1399.999,467.5,1.93637
1405.264,472.0,1.93443
1410.511,476.5,1.932
1415.75,481.0,1.92913
1420.98,485.5,1.92586
1426.237,490.0,1.92215
1431.471,494.5,1.918
1436.713,499.0,1.91359
1441.939,503.5,1.90911
1447.159,508.0,1.90445
1452.399,512.5,1.89946
1457.635,517.0,1.89423
1462.866,521.5,1.88861
1468.096,526.0,1.88227
1473.326,530.5,1.87528
1478.566,535.0,1.86751
1483.808,539.5,1.85865
1489.042,544.0,1.84871
1494.301,548.5,1.83755
1499.549,553.0,1.82524
1504.795,557.5,1.81188
1510.051,562.0,1.79759
1515.301,566.5,1.78224
1520.566,571.0,1.76574
1525.829,575.5,1.74813
1531.103,580.0,1.72932
1536.382,584.5,1.70924
1541.664,589.0,1.688
1546.945,593.5,1.66528
1552.236,598.0,1.64055
1557.545,602.5,1.61392
1562.856,607.0,1.58507
1568.163,611.5,1.55352
1573.486,616.0,1.51934
1578.811,620.5,1.4824
1584.157,625.0,1.44229
1589.494,629.5,1.39978
1594.84,634.0,1.35478
1600.204,638.5,1.3071
1605.576,643.0,1.25733
1610.946,647.5,1.20538
1616.333,652.0,1.15063
1621.728,656.5,1.09305
1627.144,661.0,1.03173
1632.574,665.5,0.96559
1637.983,670.0,0.89517
1643.424,674.5,0.81985
1648.837,679.0,0.74233
1654.248,683.5,0.66639
1659.643,688.0,0.59854
1665.043,692.5,0.54488
1670.439,697.0,0.50812
1675.848,701.5,0.48695
1681.276,706.0,0.47467
1686.696,710.5,0.46649
1692.118,715.0,0.46009
1697.562,719.5,0.45423
1702.996,724.0,0.44865
1708.45,728.5,0.44329
1713.905,733.0,0.43815
1719.347,737.5,0.43322
1724.794,742.0,0.42854
1730.257,746.5,0.42401
1735.719,751.0,0.41966
1741.176,755.5,0.41562
1746.64,760.0,0.41181
1752.105,764.5,0.40831
1757.573,769.0,0.40495
1763.04,773.5,0.40184
1768.508,778.0,0.39903
1773.97,782.5,0.39634
1779.444,787.0,0.39383
1784.913,791.5,0.39151
1790.382,796.0,0.38925
1795.841,800.5,0.38714
1801.301,805.0,0.38511
1806.773,809.5,0.38312
1812.232,814.0,0.38113
1817.685,818.5,0.37927
1823.146,823.0,0.37746
1828.617,827.5,0.37574
1834.091,832.0,0.37411
1839.546,836.5,0.37259
1845.008,841.0,0.37103
1850.465,845.5,0.36952
1855.936,850.0,0.36803
1861.401,854.5,0.36653
1866.857,859.0,0.36509
1872.315,863.5,0.36367
1877.771,868.0,0.36226
1883.227,872.5,0.36083
1888.68,877.0,0.35945
1894.129,881.5,0.3582
1899.572,886.0,0.35694
1905.032,890.5,0.35568
1910.471,895.0,0.35439
1915.926,899.5,0.35319
1921.358,904.0,0.35204
1926.799,908.5,0.35091
1932.241,913.0,0.34981
1937.67,917.5,0.34872
1943.095,922.0,0.34764
1948.538,926.5,0.34655
1953.967,931.0,0.34558
1959.396,935.5,0.34471
1964.813,940.0,0.34385
1970.243,944.5,0.34295
1975.663,949.0,0.34203
1981.089,953.5,0.34109
1986.522,958.0,0.34029
1991.942,962.5,0.33957
1997.377,967.0,0.33888
2002.807,971.5,0.33815
2008.232,976.0,0.33752
2013.658,980.5,0.33691
2019.079,985.0,0.33628
2024.503,989.5,0.33568
2029.935,994.0,0.33509
2035.353,998.5,0.3345
2040.766,1003.0,0.33394
2046.193,1007.5,0.33338
2051.609,1012.0,0.33282
2057.016,1016.5,0.33231
2062.437,1021.0,0.33179
2067.849,1025.5,0.33127
2073.267,1030.0,0.33079
2078.672,1034.5,0.33029
2084.068,1039.0,0.32975
2089.485,1043.5,0.32916
2094.9,1048.0,0.32859
2100.286,1052.5,0.32813
2106.687,1057.0,0.32762
2116.015,1061.5,0.32677
2174.0,1070.245,0.32394
2264.0,1071.919,0.32097
2354.0,1072.291,0.3189
2424.0,1072.404,0.3175