Folder: matl-db/Wood/Calibration_Data/TUBS (part 11)

File: TUBS_Wood_TGA_N2_50K_R10.csv
Time (s),Temperature (K),Mass (mg)
0.0,305.033,1.02984
8.0,304.987,1.02919
16.0,304.944,1.02822
24.0,304.919,1.0274
32.0,304.885,1.02675
40.0,304.866,1.02622
48.0,304.829,1.02553
56.0,304.806,1.02494
64.0,304.79,1.02427
72.0,304.769,1.02382
80.0,304.76,1.02325
88.0,304.735,1.02272
96.0,304.709,1.02229
104.0,304.698,1.02199
112.0,304.691,1.02165
120.0,304.668,1.02138
128.0,304.662,1.02103
136.0,304.668,1.02068
144.0,304.644,1.02036
152.0,304.644,1.02012
160.0,304.613,1.01989
168.0,304.598,1.01963
176.0,304.58,1.0194
184.0,304.57,1.01928
192.0,304.577,1.01902
200.0,304.566,1.01878
209.0,304.576,1.01865
217.0,304.554,1.01842
225.0,304.549,1.01828
233.0,304.536,1.01813
241.0,304.531,1.01798
254.0,304.519,1.01782
262.0,304.523,1.01762
270.0,304.51,1.01747
278.0,304.516,1.01726
288.0,304.497,1.01702
296.0,304.489,1.01674
308.0,304.488,1.01665
316.0,304.504,1.01646
324.0,304.492,1.01636
332.0,304.493,1.01621
347.0,304.48,1.0161
358.0,304.489,1.01601
370.0,304.472,1.01591
378.0,304.48,1.01577
396.0,304.477,1.01577
407.0,304.466,1.01568
415.0,304.457,1.01551
425.0,304.456,1.01534
434.0,304.455,1.01517
445.0,304.456,1.01524
455.0,304.455,1.01508
463.0,304.452,1.01484
473.0,304.447,1.01493
484.0,304.452,1.01493
492.0,304.448,1.0148
508.0,304.459,1.01472
519.0,304.442,1.01462
529.0,304.44,1.01453
544.0,304.437,1.01456
554.0,304.441,1.01448
565.0,304.434,1.01442
582.0,304.439,1.01432
593.0,304.446,1.01427
601.0,304.441,1.01436
614.0,304.429,1.01431
634.0,304.435,1.01423
651.0,304.428,1.01417
667.0,304.423,1.01411
675.0,304.444,1.0142
691.0,304.427,1.0142
715.0,304.443,1.01411
725.0,304.43,1.01402
742.0,304.436,1.01407
758.0,304.444,1.01404
772.0,304.429,1.01406
780.0,304.443,1.01392
796.0,304.446,1.01387
819.0,304.444,1.01396
828.0,304.447,1.0139
836.0,304.43,1.01366
857.0,304.423,1.01356
874.0,304.44,1.0135
889.0,304.431,1.01339
913.0,304.427,1.01338
934.0,304.436,1.0133
959.0,304.454,1.01325
967.0,304.433,1.01314
983.0,304.452,1.01317
999.0,304.404,1.0132
1028.0,304.436,1.01318
1036.0,304.443,1.01326
1069.0,304.423,1.01325
1081.0,304.433,1.01318
1101.0,304.441,1.01312
1117.0,304.439,1.01319
1125.0,304.44,1.01301
1144.0,304.45,1.01294
1152.0,304.451,1.01308
1162.0,304.427,1.01314
1186.0,304.447,1.01306
1199.0,304.451,1.01297
1209.686,308.0,1.0106
1215.213,312.0,1.01378
1220.151,316.0,1.01487
1224.967,320.0,1.01444
1229.743,324.0,1.01325
1234.524,328.0,1.01197
1239.304,332.0,1.01111
1244.09,336.0,1.01048
1248.902,340.0,1.00979
1253.712,344.0,1.00899
1258.531,348.0,1.00813
1263.317,352.0,1.00724
1268.125,356.0,1.00636
1272.968,360.0,1.00554
1277.788,364.0,1.00479
1282.593,368.0,1.00412
1287.421,372.0,1.00352
1292.23,376.0,1.00302
1297.024,380.0,1.00273
1301.83,384.0,1.00275
1306.647,388.0,1.00273
1311.436,392.0,1.00256
1316.228,396.0,1.00242
1321.019,400.0,1.00237
1325.794,404.0,1.00236
1330.576,408.0,1.00226
1335.34,412.0,1.00217
1340.102,416.0,1.00213
1344.852,420.0,1.00206
1349.609,424.0,1.00197
1354.358,428.0,1.00191
1359.102,432.0,1.0018
1363.843,436.0,1.00157
1368.572,440.0,1.00126
1373.294,444.0,1.00091
1378.014,448.0,1.00054
1382.724,452.0,1.00018
1387.428,456.0,0.99972
1392.122,460.0,0.99908
1396.818,464.0,0.9983
1401.5,468.0,0.99748
1406.183,472.0,0.9966
1410.856,476.0,0.99552
1415.531,480.0,0.99419
1420.212,484.0,0.99284
1424.885,488.0,0.99143
1429.546,492.0,0.98983
1434.213,496.0,0.98811
1438.879,500.0,0.98631
1443.545,504.0,0.98437
1448.209,508.0,0.98228
1452.874,512.0,0.98004
1457.547,516.0,0.97761
1462.209,520.0,0.97496
1466.863,524.0,0.97201
1471.537,528.0,0.9687
1476.199,532.0,0.96511
1480.859,536.0,0.96115
1485.527,540.0,0.95677
1490.204,544.0,0.9519
1494.869,548.0,0.94658
1499.552,552.0,0.94078
1504.229,556.0,0.93454
1508.929,560.0,0.92796
1513.605,564.0,0.9213
1518.293,568.0,0.91439
1522.991,572.0,0.90702
1527.682,576.0,0.89917
1532.378,580.0,0.89099
1537.081,584.0,0.88246
1541.79,588.0,0.87345
1546.5,592.0,0.86378
1551.212,596.0,0.85344
1555.945,600.0,0.84227
1560.657,604.0,0.83026
1565.391,608.0,0.81718
1570.144,612.0,0.80296
1574.875,616.0,0.78776
1579.624,620.0,0.77137
1584.374,624.0,0.75389
1589.134,628.0,0.73536
1593.899,632.0,0.71579
1598.654,636.0,0.69527
1603.434,640.0,0.67378
1608.211,644.0,0.65155
1613.008,648.0,0.6283
1617.779,652.0,0.60421
1622.593,656.0,0.57896
1627.396,660.0,0.55249
1632.215,664.0,0.52446
1637.036,668.0,0.49479
1641.866,672.0,0.46324
1646.704,676.0,0.43005
1651.528,680.0,0.39607
1656.357,684.0,0.36273
1661.185,688.0,0.33205
1666.006,692.0,0.30622
1670.832,696.0,0.28666
1675.657,700.0,0.27388
1680.487,704.0,0.26623
1685.32,708.0,0.26163
1690.164,712.0,0.25843
1695.014,716.0,0.25573
1699.849,720.0,0.2532
1704.696,724.0,0.25075
1709.541,728.0,0.24842
1714.394,732.0,0.24621
1719.245,736.0,0.24408
1724.089,740.0,0.24199
1728.95,744.0,0.23991
1733.808,748.0,0.23789
1738.649,752.0,0.23604
1743.522,756.0,0.23429
1748.379,760.0,0.2326
1753.234,764.0,0.23106
1758.097,768.0,0.22959
1762.952,772.0,0.22814
1767.798,776.0,0.2268
1772.656,780.0,0.22561
1777.522,784.0,0.22447
1782.376,788.0,0.22335
1787.243,792.0,0.2224
1792.094,796.0,0.22149
1796.956,800.0,0.22053
1801.808,804.0,0.21963
1806.667,808.0,0.21874
1811.527,812.0,0.21786
1816.387,816.0,0.21699
1821.231,820.0,0.21615
1826.094,824.0,0.2154
1830.957,828.0,0.21472
1835.805,832.0,0.21402
1840.669,836.0,0.21327
1845.518,840.0,0.21256
1850.37,844.0,0.21186
1855.229,848.0,0.21119
1860.088,852.0,0.21056
1864.943,856.0,0.20997
1869.81,860.0,0.20941
1874.655,864.0,0.20883
1879.508,868.0,0.20822
1884.358,872.0,0.20751
1889.208,876.0,0.20681
1894.044,880.0,0.20618
1898.887,884.0,0.2056
1903.723,888.0,0.20495
1908.567,892.0,0.20432
1913.391,896.0,0.2038
1918.229,900.0,0.20334
1923.068,904.0,0.20282
1927.892,908.0,0.20228
1932.729,912.0,0.20175
1937.559,916.0,0.20126
1942.389,920.0,0.20082
1947.219,924.0,0.20037
1952.046,928.0,0.19997
1956.863,932.0,0.19959
1961.691,936.0,0.19915
1966.513,940.0,0.19871
1971.34,944.0,0.19829
1976.159,948.0,0.19793
1980.989,952.0,0.19757
1985.796,956.0,0.19724
1990.612,960.0,0.19694
1995.437,964.0,0.19664
2000.248,968.0,0.19631
2005.063,972.0,0.19595
2009.873,976.0,0.19566
2014.688,980.0,0.19541
2019.505,984.0,0.19518
2024.303,988.0,0.19495
2029.102,992.0,0.19465
2033.908,996.0,0.19437
2038.72,1000.0,0.19404
2043.512,1004.0,0.19375
2048.317,1008.0,0.19351
2053.117,1012.0,0.19326
2057.901,1016.0,0.19305
2062.692,1020.0,0.19281
2067.487,1024.0,0.19254
2072.292,1028.0,0.19231
2077.067,1032.0,0.19209
2081.855,1036.0,0.19188
2086.643,1040.0,0.19166
2091.426,1044.0,0.19141
2096.204,1048.0,0.19116
2100.987,1052.0,0.1909
2106.914,1056.0,0.19076
2114.85,1060.0,0.19055
2154.0,1068.461,0.18937
2234.0,1071.317,0.18791
2314.0,1071.882,0.18677
2394.0,1072.073,0.18601
2424.0,1072.112,0.18569

File: TUBS_Wood_TGA_N2_50K_R11.csv
Time (s),Temperature (K),Mass (mg)
0.0,304.986,0.99978
9.0,304.961,0.9988
18.0,304.927,0.99767
27.0,304.868,0.99657
36.0,304.841,0.99564
45.0,304.81,0.99487
54.0,304.791,0.99403
63.0,304.773,0.99319
72.0,304.744,0.99253
81.0,304.734,0.99189
90.0,304.722,0.99121
99.0,304.685,0.99067
108.0,304.661,0.99017
117.0,304.657,0.98966
126.0,304.649,0.98922
135.0,304.63,0.98879
144.0,304.637,0.98847
153.0,304.607,0.98812
162.0,304.593,0.9877
171.0,304.591,0.98735
180.0,304.594,0.98715
189.0,304.579,0.98684
198.0,304.563,0.98651
207.0,304.564,0.98624
216.0,304.54,0.98608
225.0,304.537,0.9858
234.0,304.545,0.9856
243.0,304.534,0.98544
253.0,304.525,0.98536
262.0,304.514,0.98516
271.0,304.52,0.98491
280.0,304.518,0.98462
289.0,304.516,0.98447
298.0,304.492,0.98418
307.0,304.488,0.98399
316.0,304.485,0.98383
325.0,304.497,0.98376
334.0,304.483,0.98359
343.0,304.489,0.98341
352.0,304.502,0.98321
361.0,304.496,0.98305
370.0,304.483,0.98295
379.0,304.469,0.98296
392.0,304.471,0.98291
401.0,304.465,0.98276
410.0,304.466,0.98261
419.0,304.455,0.98248
428.0,304.472,0.98244
437.0,304.446,0.98228
446.0,304.435,0.98225
455.0,304.439,0.98218
464.0,304.44,0.9819
473.0,304.443,0.98191
482.0,304.435,0.9819
491.0,304.448,0.9818
500.0,304.446,0.98176
510.0,304.441,0.98179
519.0,304.432,0.98174
528.0,304.45,0.98158
537.0,304.443,0.98161
546.0,304.449,0.9815
556.0,304.441,0.98142
566.0,304.44,0.98138
575.0,304.444,0.9813
585.0,304.43,0.9813
595.0,304.463,0.98126
604.0,304.451,0.98128
614.0,304.435,0.98124
623.0,304.445,0.98109
632.0,304.429,0.98093
641.0,304.448,0.98093
651.0,304.432,0.98096
660.0,304.432,0.98102
669.0,304.425,0.98103
678.0,304.427,0.9809
687.0,304.425,0.98094
726.0,304.446,0.98093
735.0,304.424,0.98081
746.0,304.449,0.98076
769.0,304.44,0.98073
778.0,304.451,0.98076
787.0,304.423,0.98082
796.0,304.446,0.98066
805.0,304.444,0.98056
841.0,304.452,0.98049
850.0,304.441,0.98037
876.0,304.438,0.98034
885.0,304.426,0.98026
894.0,304.426,0.98018
905.0,304.422,0.98023
914.0,304.43,0.98023
923.0,304.441,0.98016
934.0,304.431,0.98015
944.0,304.423,0.98013
955.0,304.414,0.98016
965.0,304.426,0.98011
974.0,304.423,0.98007
984.0,304.422,0.98008
993.0,304.429,0.98011
1002.0,304.435,0.98007
1013.0,304.417,0.98013
1022.0,304.432,0.9801
1031.0,304.44,0.98015
1046.0,304.46,0.98015
1064.0,304.448,0.98008
1089.0,304.432,0.98005
1098.0,304.442,0.97991
1107.0,304.451,0.97986
1119.0,304.444,0.97983
1128.0,304.437,0.97976
1142.0,304.43,0.97976
1151.0,304.441,0.97982
1161.0,304.421,0.97985
1186.0,304.439,0.97981
1196.0,304.438,0.97977
1208.363,307.0,0.97732
1214.559,311.5,0.98059
1219.986,316.0,0.98222
1225.3,320.5,0.98174
1230.622,325.0,0.98029
1235.933,329.5,0.97887
1241.291,334.0,0.97781
1246.662,338.5,0.97701
1252.017,343.0,0.97608
1257.416,347.5,0.97505
1262.796,352.0,0.974
1268.199,356.5,0.97291
1273.601,361.0,0.9719
1278.993,365.5,0.97103
1284.395,370.0,0.97026
1289.787,374.5,0.96954
1295.192,379.0,0.9691
1300.571,383.5,0.96888
1305.954,388.0,0.96871
1311.325,392.5,0.96857
1316.691,397.0,0.96842
1322.06,401.5,0.96828
1327.42,406.0,0.96815
1332.768,410.5,0.96811
1338.11,415.0,0.96802
1343.444,419.5,0.96787
1348.77,424.0,0.96775
1354.089,428.5,0.96764
1359.402,433.0,0.9675
1364.696,437.5,0.96727
1370.008,442.0,0.96693
1375.287,446.5,0.96647
1380.57,451.0,0.96596
1385.831,455.5,0.96533
1391.104,460.0,0.96458
1396.36,464.5,0.96363
1401.611,469.0,0.96258
1406.856,473.5,0.96126
1412.111,478.0,0.95967
1417.335,482.5,0.95798
1422.561,487.0,0.95618
1427.791,491.5,0.95432
1433.013,496.0,0.95236
1438.242,500.5,0.95032
1443.467,505.0,0.94819
1448.708,509.5,0.94586
1453.921,514.0,0.94337
1459.15,518.5,0.94061
1464.38,523.0,0.93747
1469.597,527.5,0.93392
1474.829,532.0,0.93001
1480.069,536.5,0.92565
1485.294,541.0,0.92082
1490.531,545.5,0.91543
1495.763,550.0,0.90941
1501.009,554.5,0.90287
1506.257,559.0,0.89591
1511.509,563.5,0.8886
1516.766,568.0,0.88091
1522.022,572.5,0.87283
1527.287,577.0,0.86434
1532.551,581.5,0.8553
1537.832,586.0,0.84566
1543.103,590.5,0.83542
1548.388,595.0,0.8243
1553.673,599.5,0.81219
1558.983,604.0,0.79896
1564.279,608.5,0.78452
1569.594,613.0,0.76879
1574.906,617.5,0.75173
1580.236,622.0,0.73308
1585.567,626.5,0.71322
1590.903,631.0,0.69204
1596.252,635.5,0.66949
1601.613,640.0,0.64598
1606.981,644.5,0.62151
1612.353,649.0,0.59584
1617.717,653.5,0.56908
1623.109,658.0,0.54081
1628.512,662.5,0.51065
1633.93,667.0,0.47846
1639.328,671.5,0.44409
1644.758,676.0,0.40735
1650.174,680.5,0.36955
1655.592,685.0,0.33229
1661.011,689.5,0.29859
1666.422,694.0,0.27153
1671.833,698.5,0.25336
1677.256,703.0,0.24253
1682.69,707.5,0.23641
1688.122,712.0,0.23272
1693.554,716.5,0.22974
1699.001,721.0,0.22697
1704.455,725.5,0.22431
1709.907,730.0,0.22171
1715.354,734.5,0.21929
1720.816,739.0,0.21701
1726.276,743.5,0.21478
1731.736,748.0,0.21261
1737.198,752.5,0.21059
1742.661,757.0,0.20863
1748.126,761.5,0.20679
1753.596,766.0,0.20506
1759.061,770.5,0.20345
1764.54,775.0,0.20202
1770.0,779.5,0.20065
1775.483,784.0,0.19937
1780.947,788.5,0.19823
1786.427,793.0,0.1971
1791.884,797.5,0.19605
1797.359,802.0,0.19505
1802.827,806.5,0.19407
1808.293,811.0,0.1931
1813.764,815.5,0.19219
1819.222,820.0,0.19131
1824.692,824.5,0.19049
1830.17,829.0,0.1897
1835.628,833.5,0.18898
1841.101,838.0,0.18829
1846.563,842.5,0.18761
1852.028,847.0,0.18682
1857.501,851.5,0.18603
1862.976,856.0,0.18525
1868.441,860.5,0.18448
1873.907,865.0,0.18384
1879.366,869.5,0.18317
1884.827,874.0,0.18241
1890.296,878.5,0.1818
1895.758,883.0,0.18121
1901.217,887.5,0.1806
1906.666,892.0,0.18
1912.125,896.5,0.17952
1917.573,901.0,0.179
1923.024,905.5,0.17843
1928.47,910.0,0.17797
1933.926,914.5,0.17745
1939.37,919.0,0.17689
1944.811,923.5,0.17634
1950.25,928.0,0.17585
1955.681,932.5,0.17546
1961.131,937.0,0.17504
1966.578,941.5,0.17455
1972.014,946.0,0.17405
1977.442,950.5,0.17369
1982.884,955.0,0.17327
1988.315,959.5,0.17295
1993.752,964.0,0.17264
1999.188,968.5,0.17221
2004.626,973.0,0.1718
2010.059,977.5,0.17151
2015.5,982.0,0.17119
2020.926,986.5,0.1708
2026.367,991.0,0.1705
2031.809,995.5,0.17022
2037.241,1000.0,0.16997
2042.672,1004.5,0.1697
2048.101,1009.0,0.16938
2053.519,1013.5,0.16909
2058.948,1018.0,0.1689
2064.371,1022.5,0.16868
2069.794,1027.0,0.16848
2075.208,1031.5,0.16823
2080.629,1036.0,0.16796
2086.043,1040.5,0.16769
2091.46,1045.0,0.16742
2096.868,1049.5,0.16717
2102.27,1054.0,0.16695
2109.483,1058.5,0.1667
2120.119,1063.0,0.16611
2204.0,1071.194,0.1649
2294.0,1072.16,0.1634
2384.0,1072.437,0.1625
2424.0,1072.493,0.16206

File: TUBS_Wood_TGA_N2_50K_R12.csv
Time (s),Temperature (K),Mass (mg)
0.0,305.002,1.01982
9.0,304.948,1.01886
18.0,304.932,1.01778
27.0,304.894,1.01671
36.0,304.86,1.01591
45.0,304.827,1.01513
54.0,304.801,1.01426
63.0,304.771,1.01361
72.0,304.746,1.01304
81.0,304.734,1.01244
90.0,304.718,1.0117
99.0,304.683,1.01114
108.0,304.684,1.0107
117.0,304.672,1.01028
126.0,304.666,1.00994
135.0,304.647,1.0096
144.0,304.626,1.00917
153.0,304.61,1.00877
162.0,304.61,1.00844
171.0,304.607,1.00822
180.0,304.582,1.0081
189.0,304.567,1.00777
198.0,304.557,1.00751
207.0,304.552,1.00725
217.0,304.538,1.00711
226.0,304.531,1.00684
235.0,304.523,1.00655
244.0,304.528,1.00639
256.0,304.52,1.00615
265.0,304.508,1.00585
276.0,304.492,1.00573
287.0,304.481,1.00557
296.0,304.484,1.00543
305.0,304.484,1.00524
314.0,304.49,1.00504
324.0,304.469,1.0049
334.0,304.464,1.00472
343.0,304.477,1.0046
352.0,304.47,1.00448
363.0,304.445,1.00433
376.0,304.444,1.00425
389.0,304.448,1.00428
400.0,304.459,1.00418
411.0,304.441,1.00407
420.0,304.46,1.00389
429.0,304.452,1.00374
438.0,304.439,1.00362
455.0,304.429,1.00356
464.0,304.451,1.00336
479.0,304.432,1.00331
494.0,304.431,1.0033
508.0,304.433,1.00325
524.0,304.445,1.00319
536.0,304.424,1.00318
547.0,304.415,1.00309
559.0,304.445,1.00312
571.0,304.426,1.00294
582.0,304.432,1.0028
594.0,304.442,1.00279
615.0,304.437,1.0028
629.0,304.422,1.00269
641.0,304.442,1.00261
656.0,304.439,1.00257
667.0,304.45,1.0027
684.0,304.432,1.00262
708.0,304.443,1.00251
717.0,304.449,1.00235
746.0,304.44,1.00227
756.0,304.438,1.00216
770.0,304.428,1.00225
781.0,304.429,1.00236
791.0,304.432,1.00231
800.0,304.417,1.00206
811.0,304.439,1.00196
842.0,304.431,1.00199
854.0,304.434,1.00194
872.0,304.44,1.00185
893.0,304.422,1.00176
912.0,304.429,1.00181
922.0,304.427,1.00166
932.0,304.439,1.00187
948.0,304.453,1.00183
968.0,304.453,1.00168
978.0,304.441,1.00156
992.0,304.439,1.00148
1011.0,304.438,1.00157
1022.0,304.449,1.00147
1035.0,304.435,1.00148
1052.0,304.439,1.00158
1070.0,304.438,1.00168
1095.0,304.442,1.00158
1121.0,304.437,1.00148
1148.0,304.434,1.00147
1162.0,304.438,1.0015
1175.0,304.459,1.00153
1190.0,304.426,1.00144
1200.0,304.461,1.00099
1211.222,309.0,0.99973
1216.887,313.5,1.00322
1222.221,318.0,1.0033
1227.465,322.5,1.00224
1232.732,327.0,1.00057
1238.016,331.5,0.99924
1243.322,336.0,0.99818
1248.64,340.5,0.99719
1253.988,345.0,0.99612
1259.333,349.5,0.99493
1264.712,354.0,0.9937
1270.083,358.5,0.99262
1275.447,363.0,0.99172
1280.825,367.5,0.99097
1286.196,372.0,0.99028
1291.575,376.5,0.98973
1296.957,381.0,0.98939
1302.333,385.5,0.98911
1307.697,390.0,0.9889
1313.082,394.5,0.98878
1318.408,399.0,0.98863
1323.765,403.5,0.98854
1329.114,408.0,0.98846
1334.459,412.5,0.98831
1339.795,417.0,0.98817
1345.116,421.5,0.98799
1350.429,426.0,0.98784
1355.742,430.5,0.98767
1361.042,435.0,0.98744
1366.345,439.5,0.9871
1371.63,444.0,0.98666
1376.915,448.5,0.98615
1382.185,453.0,0.98563
1387.446,457.5,0.98497
1392.716,462.0,0.9841
1397.963,466.5,0.98308
1403.215,471.0,0.98185
1408.452,475.5,0.98034
1413.689,480.0,0.97871
1418.922,484.5,0.97692
1424.155,489.0,0.97497
1429.383,493.5,0.97291
1434.611,498.0,0.97078
1439.841,502.5,0.9686
1445.062,507.0,0.96633
1450.304,511.5,0.96384
1455.529,516.0,0.96116
1460.761,520.5,0.95818
1466.0,525.0,0.95488
1471.229,529.5,0.95115
1476.458,534.0,0.94695
1481.696,538.5,0.94227
1486.934,543.0,0.93716
1492.178,547.5,0.93139
1497.415,552.0,0.9251
1502.656,556.5,0.91842
1507.912,561.0,0.91136
1513.155,565.5,0.90398
1518.433,570.0,0.89619
1523.69,574.5,0.88796
1528.945,579.0,0.87934
1534.216,583.5,0.8702
1539.499,588.0,0.86047
1544.779,592.5,0.85002
1550.07,597.0,0.83863
1555.362,601.5,0.82622
1560.671,606.0,0.8126
1565.987,610.5,0.79774
1571.297,615.0,0.78161
1576.631,619.5,0.76392
1581.968,624.0,0.74485
1587.303,628.5,0.72453
1592.661,633.0,0.70288
1598.006,637.5,0.68011
1603.366,642.0,0.65617
1608.743,646.5,0.6311
1614.118,651.0,0.60495
1619.521,655.5,0.57737
1624.908,660.0,0.54845
1630.318,664.5,0.5177
1635.723,669.0,0.48471
1641.146,673.5,0.44931
1646.574,678.0,0.41211
1651.996,682.5,0.37429
1657.421,687.0,0.33829
1662.84,691.5,0.30708
1668.245,696.0,0.28404
1673.687,700.5,0.26882
1679.113,705.0,0.26017
1684.548,709.5,0.25545
1689.974,714.0,0.2521
1695.422,718.5,0.24929
1700.859,723.0,0.24666
1706.317,727.5,0.24409
1711.777,732.0,0.24159
1717.236,736.5,0.23922
1722.686,741.0,0.23702
1728.146,745.5,0.23483
1733.607,750.0,0.2327
1739.073,754.5,0.23069
1744.539,759.0,0.22882
1749.995,763.5,0.22704
1755.475,768.0,0.22543
1760.942,772.5,0.22393
1766.414,777.0,0.22249
1771.873,781.5,0.22118
1777.349,786.0,0.21996
1782.817,790.5,0.2188
1788.296,795.0,0.21774
1793.756,799.5,0.21669
1799.228,804.0,0.21573
1804.687,808.5,0.21481
1810.152,813.0,0.21383
1815.621,817.5,0.21288
1821.071,822.0,0.21198
1826.543,826.5,0.21114
1831.999,831.0,0.21042
1837.479,835.5,0.20972
1842.94,840.0,0.20901
1848.421,844.5,0.2083
1853.881,849.0,0.20764
1859.346,853.5,0.20697
1864.817,858.0,0.20627
1870.281,862.5,0.20556
1875.738,867.0,0.20485
1881.2,871.5,0.20414
1886.658,876.0,0.20338
1892.116,880.5,0.20272
1897.578,885.0,0.20213
1903.039,889.5,0.20152
1908.49,894.0,0.20099
1913.951,898.5,0.20043
1919.408,903.0,0.19978
1924.85,907.5,0.19919
1930.304,912.0,0.19867
1935.75,916.5,0.19822
1941.186,921.0,0.19779
1946.646,925.5,0.19731
1952.101,930.0,0.19688
1957.538,934.5,0.1965
1962.999,939.0,0.19605
1968.43,943.5,0.19558
1973.874,948.0,0.19508
1979.312,952.5,0.19461
1984.749,957.0,0.19426
1990.196,961.5,0.19383
1995.631,966.0,0.19351
2001.062,970.5,0.19317
2006.511,975.0,0.19282
2011.944,979.5,0.19252
2017.39,984.0,0.19231
2022.825,988.5,0.19203
2028.276,993.0,0.19163
2033.71,997.5,0.19137
2039.143,1002.0,0.1911
2044.562,1006.5,0.19079
2049.998,1011.0,0.19044
2055.424,1015.5,0.19016
2060.846,1020.0,0.18992
2066.266,1024.5,0.18963
2071.695,1029.0,0.18942
2077.113,1033.5,0.18914
2082.529,1038.0,0.18884
2087.959,1042.5,0.18859
2093.371,1047.0,0.18832
2098.782,1051.5,0.18806
2104.203,1056.0,0.18778
2113.166,1060.5,0.1874
2134.0,1066.521,0.18699
2224.0,1071.481,0.18555
2314.0,1072.177,0.18421
2404.0,1072.379,0.18323
2424.0,1072.403,0.18326