Folder: matl-db/Wood/Calibration_Data/TUBS (part 3)

File: TUBS_TGA_N2_20K_R2.csv
Time (s),Temperature (K),Mass (mg)
0.0,305.118,1.01
9.0,305.068,1.009
18.0,305.023,1.008
27.0,304.981,1.007
36.0,304.952,1.006
45.0,304.913,1.005
54.0,304.878,1.005
63.0,304.866,1.004
72.0,304.857,1.003
81.0,304.816,1.003
90.0,304.798,1.002
99.0,304.774,1.002
108.0,304.756,1.001
117.0,304.744,1.001
126.0,304.735,1.0
135.0,304.708,1.0
144.0,304.688,1.0
153.0,304.664,0.999
162.0,304.657,0.999
171.0,304.653,0.999
180.0,304.633,0.999
189.0,304.632,0.998
198.0,304.608,0.998
207.0,304.61,0.998
216.0,304.606,0.998
225.0,304.586,0.997
234.0,304.58,0.997
243.0,304.582,0.997
252.0,304.572,0.997
261.0,304.58,0.997
270.0,304.558,0.997
279.0,304.557,0.996
288.0,304.554,0.996
297.0,304.544,0.996
306.0,304.533,0.996
315.0,304.524,0.996
324.0,304.522,0.996
333.0,304.523,0.996
342.0,304.515,0.996
351.0,304.518,0.995
360.0,304.494,0.995
369.0,304.497,0.995
378.0,304.5,0.995
387.0,304.504,0.995
396.0,304.491,0.995
405.0,304.495,0.995
414.0,304.479,0.995
423.0,304.489,0.995
432.0,304.495,0.995
441.0,304.497,0.995
450.0,304.5,0.994
459.0,304.493,0.994
468.0,304.488,0.994
477.0,304.489,0.994
486.0,304.49,0.994
495.0,304.477,0.994
504.0,304.487,0.994
513.0,304.487,0.994
522.0,304.482,0.994
531.0,304.492,0.994
540.0,304.476,0.994
549.0,304.495,0.994
558.0,304.483,0.994
567.0,304.476,0.994
576.0,304.466,0.994
585.0,304.481,0.994
594.0,304.495,0.994
603.0,304.476,0.994
612.0,304.492,0.993
621.0,304.481,0.993
630.0,304.468,0.993
639.0,304.478,0.993
648.0,304.474,0.993
657.0,304.485,0.993
666.0,304.483,0.993
675.0,304.467,0.993
684.0,304.48,0.993
693.0,304.475,0.993
702.0,304.473,0.993
711.0,304.485,0.993
720.0,304.46,0.993
729.0,304.48,0.993
738.0,304.484,0.993
747.0,304.472,0.993
756.0,304.476,0.993
765.0,304.455,0.993
774.0,304.473,0.993
783.0,304.452,0.993
792.0,304.472,0.993
801.0,304.477,0.993
810.0,304.469,0.993
819.0,304.486,0.993
828.0,304.482,0.993
837.0,304.464,0.993
846.0,304.477,0.993
855.0,304.463,0.993
864.0,304.481,0.993
873.0,304.476,0.993
882.0,304.468,0.993
891.0,304.469,0.993
900.0,304.469,0.993
909.0,304.479,0.993
918.0,304.468,0.993
927.0,304.477,0.993
936.0,304.477,0.993
945.0,304.464,0.992
954.0,304.475,0.993
963.0,304.468,0.993
972.0,304.458,0.993
981.0,304.45,0.993
990.0,304.475,0.993
999.0,304.451,0.993
1008.0,304.481,0.992
1017.0,304.469,0.992
1026.0,304.486,0.992
1035.0,304.474,0.992
1044.0,304.473,0.992
1053.0,304.487,0.992
1062.0,304.459,0.992
1071.0,304.463,0.992
1080.0,304.487,0.992
1089.0,304.472,0.992
1098.0,304.465,0.992
1107.0,304.475,0.992
1116.0,304.47,0.992
1125.0,304.467,0.992
1134.0,304.468,0.992
1143.0,304.474,0.992
1152.0,304.464,0.993
1161.0,304.461,0.993
1170.0,304.462,0.993
1179.0,304.46,0.992
1188.0,304.471,0.992
1197.0,304.462,0.992
1206.0,305.983,0.99
1215.0,310.462,0.993
1224.0,316.258,0.995
1233.0,322.2,0.993
1242.0,328.174,0.991
1251.0,334.154,0.99
1260.0,340.107,0.989
1269.0,346.057,0.987
1278.0,352.01,0.986
1287.0,357.972,0.984
1296.0,363.929,0.983
1305.0,369.906,0.982
1314.0,375.88,0.982
1323.0,381.875,0.981
1332.0,387.87,0.981
1341.0,393.895,0.981
1350.0,399.918,0.98
1359.0,405.952,0.98
1368.0,412.006,0.98
1377.0,418.072,0.98
1386.0,424.146,0.98
1395.0,430.216,0.98
1404.0,436.322,0.979
1413.0,442.427,0.979
1422.0,448.552,0.978
1431.0,454.671,0.977
1440.0,460.823,0.976
1449.0,466.967,0.975
1458.0,473.141,0.973
1467.0,479.3,0.971
1476.0,485.468,0.968
1485.0,491.633,0.965
1494.0,497.787,0.963
1503.0,503.952,0.959
1512.0,510.128,0.956
1521.0,516.279,0.951
1530.0,522.443,0.947
1539.0,528.584,0.941
1548.0,534.74,0.934
1557.0,540.882,0.926
1566.0,547.022,0.917
1575.0,553.15,0.907
1584.0,559.29,0.896
1593.0,565.403,0.885
1602.0,571.515,0.872
1611.0,577.632,0.859
1620.0,583.723,0.845
1629.0,589.818,0.829
1638.0,595.894,0.811
1647.0,601.966,0.791
1656.0,608.023,0.769
1665.0,614.082,0.743
1674.0,620.114,0.716
1683.0,626.155,0.685
1692.0,632.153,0.652
1701.0,638.179,0.617
1710.0,644.178,0.58
1719.0,650.172,0.54
1728.0,656.146,0.498
1737.0,662.11,0.451
1746.0,668.065,0.4
1755.0,674.014,0.346
1764.0,679.961,0.292
1773.0,685.919,0.245
1782.0,691.88,0.214
1791.0,697.842,0.198
1800.0,703.792,0.191
1809.0,709.735,0.187
1818.0,715.683,0.183
1827.0,721.623,0.179
1836.0,727.562,0.175
1845.0,733.491,0.172
1854.0,739.415,0.169
1863.0,745.343,0.166
1872.0,751.277,0.162
1881.0,757.197,0.16
1890.0,763.111,0.157
1899.0,769.04,0.155
1908.0,774.979,0.153
1917.0,780.893,0.151
1926.0,786.825,0.15
1935.0,792.749,0.148
1944.0,798.681,0.147
1953.0,804.613,0.145
1962.0,810.548,0.144
1971.0,816.49,0.143
1980.0,822.416,0.141
1989.0,828.356,0.14
1998.0,834.29,0.139
2007.0,840.225,0.138
2016.0,846.165,0.137
2025.0,852.105,0.136
2034.0,858.039,0.135
2043.0,863.981,0.134
2052.0,869.931,0.133
2061.0,875.877,0.132
2070.0,881.82,0.131
2079.0,887.773,0.13
2088.0,893.723,0.129
2097.0,899.682,0.129
2106.0,905.648,0.128
2115.0,911.606,0.127
2124.0,917.556,0.126
2133.0,923.514,0.126
2142.0,929.489,0.125
2151.0,935.453,0.124
2160.0,941.421,0.124
2169.0,947.381,0.123
2178.0,953.342,0.123
2187.0,959.3,0.122
2196.0,965.269,0.121
2205.0,971.243,0.121
2214.0,977.204,0.121
2223.0,983.186,0.12
2232.0,989.147,0.12
2241.0,995.124,0.119
2250.0,1001.09,0.119
2259.0,1007.066,0.118
2268.0,1013.046,0.118
2277.0,1019.019,0.118
2286.0,1024.997,0.117
2295.0,1030.996,0.117
2304.0,1036.986,0.116
2313.0,1042.976,0.116
2322.0,1048.968,0.116
2331.0,1054.949,0.115
2340.0,1059.642,0.115
2349.0,1063.028,0.114
2358.0,1065.387,0.114
2367.0,1067.058,0.114
2376.0,1068.238,0.114
2385.0,1069.099,0.113
2394.0,1069.719,0.113
2403.0,1070.184,0.113
2412.0,1070.536,0.113
2421.0,1070.802,0.113
2430.0,1071.008,0.113
2439.0,1071.179,0.112
2448.0,1071.326,0.112
2457.0,1071.424,0.112
2466.0,1071.535,0.112
2475.0,1071.617,0.112
2484.0,1071.68,0.112
2493.0,1071.753,0.112
2502.0,1071.802,0.112
2511.0,1071.846,0.111
2520.0,1071.892,0.111
2529.0,1071.924,0.111
2538.0,1071.957,0.111
2547.0,1071.989,0.111
2556.0,1072.026,0.111
2565.0,1072.049,0.111
2574.0,1072.067,0.111
2583.0,1072.088,0.11
2592.0,1072.113,0.11
2601.0,1072.124,0.11
2610.0,1072.137,0.11
2619.0,1072.155,0.11
2628.0,1072.166,0.11
2637.0,1072.18,0.11
2646.0,1072.183,0.11
2655.0,1072.208,0.11

File: TUBS_TGA_N2_20K_R3.csv
Time (s),Temperature (K),Mass (mg)
0.0,305.115,0.98
9.0,305.054,0.979
18.0,305.009,0.978
27.0,304.977,0.977
36.0,304.936,0.976
45.0,304.902,0.976
54.0,304.881,0.975
63.0,304.848,0.974
72.0,304.829,0.974
81.0,304.8,0.973
90.0,304.774,0.973
99.0,304.762,0.973
108.0,304.737,0.972
117.0,304.736,0.972
126.0,304.707,0.971
135.0,304.698,0.971
144.0,304.68,0.971
153.0,304.668,0.97
162.0,304.652,0.97
171.0,304.631,0.97
180.0,304.634,0.97
189.0,304.621,0.969
198.0,304.607,0.969
207.0,304.604,0.969
216.0,304.599,0.969
225.0,304.578,0.969
234.0,304.569,0.968
243.0,304.569,0.968
252.0,304.557,0.968
261.0,304.547,0.968
270.0,304.55,0.968
279.0,304.529,0.968
288.0,304.544,0.967
297.0,304.524,0.967
306.0,304.514,0.967
315.0,304.51,0.967
324.0,304.51,0.967
333.0,304.508,0.967
342.0,304.507,0.967
351.0,304.519,0.967
360.0,304.494,0.967
369.0,304.486,0.966
378.0,304.487,0.966
387.0,304.49,0.966
396.0,304.494,0.966
405.0,304.495,0.966
414.0,304.49,0.966
423.0,304.474,0.966
432.0,304.497,0.966
441.0,304.49,0.966
450.0,304.493,0.966
459.0,304.486,0.966
468.0,304.477,0.966
477.0,304.483,0.966
486.0,304.466,0.966
495.0,304.468,0.966
504.0,304.467,0.966
513.0,304.468,0.967
522.0,304.468,0.967
531.0,304.467,0.966
540.0,304.466,0.965
549.0,304.464,0.965
558.0,304.458,0.965
567.0,304.466,0.965
576.0,304.475,0.965
585.0,304.473,0.964
594.0,304.483,0.964
603.0,304.464,0.964
612.0,304.476,0.964
621.0,304.459,0.965
630.0,304.477,0.965
639.0,304.479,0.964
648.0,304.467,0.964
657.0,304.477,0.964
666.0,304.447,0.964
675.0,304.468,0.965
684.0,304.469,0.965
693.0,304.471,0.965
702.0,304.461,0.964
711.0,304.462,0.964
720.0,304.467,0.964
729.0,304.474,0.964
738.0,304.45,0.964
747.0,304.46,0.964
756.0,304.452,0.964
765.0,304.45,0.964
774.0,304.448,0.964
783.0,304.452,0.964
792.0,304.467,0.964
801.0,304.461,0.964
810.0,304.462,0.964
819.0,304.469,0.964
828.0,304.467,0.964
837.0,304.469,0.964
846.0,304.458,0.964
855.0,304.456,0.964
864.0,304.475,0.964
873.0,304.476,0.964
882.0,304.48,0.964
891.0,304.486,0.964
900.0,304.478,0.964
909.0,304.485,0.964
918.0,304.468,0.964
927.0,304.468,0.964
936.0,304.462,0.964
945.0,304.464,0.964
954.0,304.472,0.964
963.0,304.471,0.964
972.0,304.462,0.964
981.0,304.474,0.964
990.0,304.456,0.964
999.0,304.456,0.964
1008.0,304.462,0.964
1017.0,304.478,0.964
1026.0,304.452,0.964
1035.0,304.465,0.964
1044.0,304.46,0.964
1053.0,304.457,0.963
1062.0,304.461,0.963
1071.0,304.461,0.963
1080.0,304.462,0.963
1089.0,304.462,0.964
1098.0,304.447,0.964
1107.0,304.464,0.964
1116.0,304.465,0.964
1125.0,304.467,0.964
1134.0,304.474,0.964
1143.0,304.449,0.964
1152.0,304.475,0.964
1161.0,304.45,0.964
1170.0,304.47,0.964
1179.0,304.453,0.964
1188.0,304.463,0.964
1197.0,304.469,0.964
1206.0,305.823,0.961
1215.0,310.335,0.965
1224.0,316.011,0.967
1233.0,321.871,0.965
1242.0,327.762,0.964
1251.0,333.651,0.963
1260.0,339.534,0.962
1269.0,345.477,0.961
1278.0,351.378,0.959
1287.0,357.309,0.958
1296.0,363.262,0.957
1305.0,369.204,0.956
1314.0,375.156,0.956
1323.0,381.133,0.955
1332.0,387.111,0.955
1341.0,393.125,0.955
1350.0,399.128,0.955
1359.0,405.156,0.955
1368.0,411.199,0.955
1377.0,417.264,0.955
1386.0,423.334,0.955
1395.0,429.418,0.955
1404.0,435.519,0.954
1413.0,441.62,0.954
1422.0,447.743,0.953
1431.0,453.865,0.952
1440.0,460.012,0.952
1449.0,466.163,0.95
1458.0,472.314,0.948
1467.0,478.478,0.947
1476.0,484.65,0.945
1485.0,490.814,0.942
1494.0,496.99,0.94
1503.0,503.16,0.937
1512.0,509.337,0.933
1521.0,515.501,0.929
1530.0,521.663,0.925
1539.0,527.822,0.919
1548.0,533.993,0.913
1557.0,540.143,0.906
1566.0,546.277,0.898
1575.0,552.432,0.888
1584.0,558.566,0.878
1593.0,564.695,0.868
1602.0,570.813,0.857
1611.0,576.928,0.844
1620.0,583.034,0.831
1629.0,589.135,0.816
1638.0,595.224,0.8
1647.0,601.293,0.782
1656.0,607.357,0.761
1665.0,613.422,0.738
1674.0,619.467,0.712
1683.0,625.504,0.684
1692.0,631.542,0.653
1701.0,637.562,0.621
1710.0,643.564,0.587
1719.0,649.562,0.55
1728.0,655.543,0.511
1737.0,661.533,0.469
1746.0,667.489,0.422
1755.0,673.451,0.372
1764.0,679.413,0.322
1773.0,685.381,0.279
1782.0,691.354,0.248
1791.0,697.329,0.232
1800.0,703.289,0.226
1809.0,709.232,0.221
1818.0,715.179,0.218
1827.0,721.119,0.214
1836.0,727.057,0.211
1845.0,732.988,0.208
1854.0,738.925,0.205
1863.0,744.85,0.202
1872.0,750.786,0.199
1881.0,756.703,0.197
1890.0,762.642,0.194
1899.0,768.575,0.192
1908.0,774.508,0.19
1917.0,780.433,0.189
1926.0,786.359,0.188
1935.0,792.298,0.186
1944.0,798.221,0.185
1953.0,804.151,0.183
1962.0,810.104,0.182
1971.0,816.028,0.181
1980.0,821.972,0.18
1989.0,827.908,0.179
1998.0,833.85,0.177
2007.0,839.79,0.177
2016.0,845.738,0.176
2025.0,851.678,0.175
2034.0,857.623,0.174
2043.0,863.564,0.173
2052.0,869.52,0.172
2061.0,875.457,0.171
2070.0,881.403,0.17
2079.0,887.361,0.17
2088.0,893.304,0.169
2097.0,899.274,0.168
2106.0,905.227,0.168
2115.0,911.194,0.167
2124.0,917.156,0.166
2133.0,923.119,0.166
2142.0,929.08,0.165
2151.0,935.058,0.164
2160.0,941.018,0.164
2169.0,946.991,0.163
2178.0,952.969,0.163
2187.0,958.939,0.162
2196.0,964.899,0.162
2205.0,970.877,0.161
2214.0,976.852,0.161
2223.0,982.814,0.16
2232.0,988.798,0.16
2241.0,994.765,0.16
2250.0,1000.752,0.159
2259.0,1006.727,0.159
2268.0,1012.72,0.159
2277.0,1018.705,0.158
2286.0,1024.705,0.158
2295.0,1030.711,0.158
2304.0,1036.706,0.157
2313.0,1042.7,0.157
2322.0,1048.705,0.157
2331.0,1054.712,0.156
2340.0,1059.579,0.156
2349.0,1063.007,0.155
2358.0,1065.388,0.155
2367.0,1067.059,0.155
2376.0,1068.258,0.155
2385.0,1069.115,0.155
2394.0,1069.733,0.155
2403.0,1070.21,0.154
2412.0,1070.555,0.154
2421.0,1070.816,0.154
2430.0,1071.035,0.154
2439.0,1071.206,0.154
2448.0,1071.348,0.154
2457.0,1071.464,0.154
2466.0,1071.556,0.154
2475.0,1071.644,0.153
2484.0,1071.722,0.153
2493.0,1071.781,0.153
2502.0,1071.842,0.153
2511.0,1071.886,0.153
2520.0,1071.916,0.153
2529.0,1071.963,0.153
2538.0,1072.001,0.153
2547.0,1072.024,0.153
2556.0,1072.065,0.152
2565.0,1072.085,0.152
2574.0,1072.11,0.152
2583.0,1072.129,0.152
2592.0,1072.151,0.152
2601.0,1072.17,0.152
2610.0,1072.182,0.152
2619.0,1072.203,0.152
2628.0,1072.202,0.152
2637.0,1072.22,0.151
2646.0,1072.231,0.151
2655.0,1072.241,0.151

File: TUBS_TGA_N2_30K_R1.csv
Time (s),Temperature (K),Mass (mg)
0.0,304.023,0.93
9.0,305.065,0.929
18.0,305.004,0.928
27.0,304.98,0.928
36.0,304.938,0.927
45.0,304.919,0.926
54.0,304.88,0.925
63.0,304.842,0.925
72.0,304.811,0.924
81.0,304.826,0.924
90.0,304.783,0.924
99.0,304.754,0.923
108.0,304.752,0.923
117.0,304.736,0.922
126.0,304.72,0.922
135.0,304.692,0.922
144.0,304.685,0.922
153.0,304.675,0.921
162.0,304.66,0.921
171.0,304.648,0.921
180.0,304.638,0.921
189.0,304.618,0.921
198.0,304.626,0.92
207.0,304.624,0.92
216.0,304.587,0.92
225.0,304.591,0.92
234.0,304.576,0.92
243.0,304.566,0.92
252.0,304.553,0.92
261.0,304.548,0.919
270.0,304.544,0.919
279.0,304.526,0.919
288.0,304.538,0.919
297.0,304.525,0.919
306.0,304.517,0.919
315.0,304.501,0.919
324.0,304.522,0.919
333.0,304.511,0.919
342.0,304.512,0.919
351.0,304.531,0.919
360.0,304.469,0.918
369.0,304.488,0.918
378.0,304.484,0.918
387.0,304.489,0.918
396.0,304.467,0.918
405.0,304.457,0.918
414.0,304.478,0.918
423.0,304.472,0.918
432.0,304.473,0.918
441.0,304.459,0.918
450.0,304.463,0.918
459.0,304.458,0.918
468.0,304.447,0.918
477.0,304.448,0.918
486.0,304.454,0.917
495.0,304.458,0.917
504.0,304.461,0.918
513.0,304.447,0.918
522.0,304.456,0.917
531.0,304.452,0.917
540.0,304.456,0.917
549.0,304.464,0.917
558.0,304.452,0.917
567.0,304.474,0.917
576.0,304.46,0.917
585.0,304.469,0.917
594.0,304.476,0.917
603.0,304.449,0.917
612.0,304.445,0.917
621.0,304.429,0.917
630.0,304.454,0.917
639.0,304.441,0.917
648.0,304.443,0.917
657.0,304.448,0.917
666.0,304.448,0.917
675.0,304.456,0.917
684.0,304.453,0.917
693.0,304.444,0.917
702.0,304.463,0.917
711.0,304.451,0.917
720.0,304.453,0.917
729.0,304.44,0.917
738.0,304.445,0.917
747.0,304.45,0.917
756.0,304.427,0.917
765.0,304.448,0.917
774.0,304.448,0.917
783.0,304.44,0.917
792.0,304.453,0.917
801.0,304.447,0.917
810.0,304.454,0.917
819.0,304.436,0.916
828.0,304.438,0.916
837.0,304.426,0.916
846.0,304.433,0.917
855.0,304.445,0.917
864.0,304.445,0.917
873.0,304.434,0.916
882.0,304.438,0.916
891.0,304.432,0.916
900.0,304.426,0.916
909.0,304.463,0.916
918.0,304.435,0.916
927.0,304.424,0.916
936.0,304.439,0.916
945.0,304.444,0.916
954.0,304.436,0.916
963.0,304.436,0.916
972.0,304.446,0.916
981.0,304.432,0.916
990.0,304.443,0.916
999.0,304.441,0.916
1008.0,304.44,0.917
1017.0,304.443,0.916
1026.0,304.439,0.916
1035.0,304.446,0.916
1044.0,304.448,0.916
1053.0,304.442,0.916
1062.0,304.45,0.916
1071.0,304.455,0.916
1080.0,304.448,0.916
1089.0,304.446,0.916
1098.0,304.441,0.917
1107.0,304.448,0.917
1116.0,304.454,0.916
1125.0,304.455,0.916
1134.0,304.452,0.916
1143.0,304.455,0.916
1152.0,304.456,0.916
1161.0,304.449,0.916
1170.0,304.461,0.916
1179.0,304.448,0.916
1188.0,304.438,0.916
1197.0,304.439,0.916
1206.0,305.87,0.914
1215.0,310.328,0.917
1224.0,316.019,0.918
1233.0,321.878,0.917
1242.0,327.747,0.916
1251.0,333.641,0.915
1260.0,339.545,0.914
1269.0,345.456,0.913
1278.0,351.387,0.912
1287.0,357.314,0.91
1296.0,363.234,0.909
1305.0,369.193,0.908
1314.0,375.151,0.908
1323.0,381.116,0.907
1332.0,387.118,0.907
1341.0,393.087,0.907
1350.0,399.119,0.907
1359.0,405.144,0.907
1368.0,411.186,0.907
1377.0,417.246,0.907
1386.0,423.321,0.907
1395.0,429.408,0.907
1404.0,435.494,0.906
1413.0,441.601,0.906
1422.0,447.716,0.905
1431.0,453.854,0.905
1440.0,460.003,0.904
1449.0,466.144,0.902
1458.0,472.316,0.901
1467.0,478.481,0.899
1476.0,484.649,0.896
1485.0,490.807,0.894
1494.0,496.987,0.891
1503.0,503.163,0.887
1512.0,509.329,0.884
1521.0,515.5,0.88
1530.0,521.66,0.876
1539.0,527.842,0.871
1548.0,533.99,0.864
1557.0,540.136,0.858
1566.0,546.295,0.85
1575.0,552.446,0.841
1584.0,558.575,0.832
1593.0,564.707,0.822
1602.0,570.84,0.811
1611.0,576.974,0.799
1620.0,583.102,0.785
1629.0,589.209,0.768
1638.0,595.328,0.75
1647.0,601.425,0.731
1656.0,607.513,0.71
1665.0,613.562,0.687
1674.0,619.607,0.662
1683.0,625.651,0.634
1692.0,631.67,0.605
1701.0,637.685,0.574
1710.0,643.687,0.541
1719.0,649.681,0.507
1728.0,655.668,0.47
1737.0,661.66,0.43
1746.0,667.612,0.387
1755.0,673.576,0.34
1764.0,679.538,0.293
1773.0,685.495,0.252
1782.0,691.475,0.224
1791.0,697.452,0.209
1800.0,703.4,0.203
1809.0,709.333,0.199
1818.0,715.288,0.195
1827.0,721.231,0.192
1836.0,727.168,0.189
1845.0,733.102,0.185
1854.0,739.025,0.182
1863.0,744.959,0.179
1872.0,750.877,0.177
1881.0,756.797,0.174
1890.0,762.728,0.171
1899.0,768.629,0.169
1908.0,774.548,0.167
1917.0,780.468,0.165
1926.0,786.378,0.163
1935.0,792.294,0.162
1944.0,798.215,0.16
1953.0,804.14,0.159
1962.0,810.059,0.157
1971.0,815.985,0.156
1980.0,821.916,0.155
1989.0,827.842,0.154
1998.0,833.769,0.153
2007.0,839.703,0.153
2016.0,845.638,0.151
2025.0,851.582,0.151
2034.0,857.52,0.15
2043.0,863.454,0.149
2052.0,869.403,0.148
2061.0,875.366,0.147
2070.0,881.308,0.146
2079.0,887.245,0.146
2088.0,893.21,0.145
2097.0,899.16,0.144
2106.0,905.131,0.144
2115.0,911.082,0.143
2124.0,917.054,0.142
2133.0,923.032,0.142
2142.0,928.998,0.141
2151.0,934.97,0.141
2160.0,940.943,0.14
2169.0,946.919,0.139
2178.0,952.9,0.139
2187.0,958.876,0.139
2196.0,964.85,0.138
2205.0,970.833,0.138
2214.0,976.81,0.137
2223.0,982.791,0.137
2232.0,988.774,0.136
2241.0,994.749,0.136
2250.0,1000.736,0.135
2259.0,1006.712,0.135
2268.0,1012.702,0.134
2277.0,1018.687,0.134
2286.0,1024.664,0.134
2295.0,1030.644,0.133
2304.0,1036.63,0.133
2313.0,1042.62,0.132
2322.0,1048.605,0.132
2331.0,1054.584,0.132
2340.0,1059.336,0.131
2349.0,1062.738,0.131
2358.0,1065.129,0.131
2367.0,1066.834,0.13
2376.0,1068.059,0.13
2385.0,1068.954,0.13
2394.0,1069.601,0.13
2403.0,1070.091,0.129
2412.0,1070.446,0.129
2421.0,1070.753,0.129
2430.0,1070.979,0.129
2439.0,1071.162,0.129
2448.0,1071.317,0.128
2457.0,1071.434,0.128
2466.0,1071.545,0.128
2475.0,1071.634,0.128
2484.0,1071.714,0.128
2493.0,1071.792,0.127
2502.0,1071.843,0.128
2511.0,1071.899,0.127
2520.0,1071.949,0.127
2529.0,1072.007,0.127
2538.0,1072.042,0.127
2547.0,1072.074,0.127
2556.0,1072.106,0.127
2565.0,1072.143,0.127
2574.0,1072.175,0.127
2583.0,1072.206,0.127
2592.0,1072.227,0.127
2601.0,1072.251,0.127
2610.0,1072.265,0.127
2619.0,1072.287,0.127
2628.0,1072.307,0.127
2637.0,1072.327,0.126
2646.0,1072.34,0.127
2655.0,1072.347,0.127

File: TUBS_TGA_N2_30K_R2.csv
Time (s),Temperature (K),Mass (mg)
0.0,304.98,1.0
45.0,304.796,0.994
137.0,304.607,0.988
458.0,304.392,0.982
701.0,304.401,0.982
1117.0,304.422,0.98
1212.066,307.5,0.98
1218.966,310.5,0.983
1225.449,313.5,0.982
1231.816,316.5,0.981
1238.077,319.5,0.98
1244.348,322.5,0.98
1250.536,325.5,0.979
1256.727,328.5,0.979
1262.868,331.5,0.978
1269.016,334.5,0.977
1275.138,337.5,0.977
1281.233,340.5,0.976
1287.345,343.5,0.975
1293.454,346.5,0.975
1299.516,349.5,0.974
1305.607,352.5,0.973
1311.661,355.5,0.973
1317.713,358.5,0.972
1323.747,361.5,0.972
1329.766,364.5,0.971
1335.804,367.5,0.971
1341.797,370.5,0.971
1347.813,373.5,0.97
1353.807,376.5,0.97
1359.796,379.5,0.97
1365.805,382.5,0.97
1371.759,385.5,0.97
1377.706,388.5,0.97
1383.647,391.5,0.97
1389.607,394.5,0.97
1395.543,397.5,0.97
1401.481,400.5,0.97
1407.419,403.5,0.97
1413.35,406.5,0.97
1419.257,409.5,0.97
1425.151,412.5,0.97
1431.046,415.5,0.97
1436.948,418.5,0.97
1442.838,421.5,0.969
1448.73,424.5,0.969
1454.627,427.5,0.969
1460.504,430.5,0.969
1466.375,433.5,0.969
1472.22,436.5,0.969
1478.101,439.5,0.968
1483.976,442.5,0.968
1489.82,445.5,0.968
1495.675,448.5,0.967
1501.512,451.5,0.967
1507.354,454.5,0.967
1513.179,457.5,0.966
1519.014,460.5,0.965
1524.877,463.5,0.965
1530.709,466.5,0.964
1536.545,469.5,0.963
1542.379,472.5,0.962
1548.212,475.5,0.961
1554.018,478.5,0.96
1559.876,481.5,0.959
1565.688,484.5,0.958
1571.525,487.5,0.957
1577.354,490.5,0.957
1583.171,493.5,0.956
1589.018,496.5,0.955
1594.843,499.5,0.954
1600.686,502.5,0.953
1606.528,505.5,0.951
1612.356,508.5,0.95
1618.218,511.5,0.949
1624.061,514.5,0.948
1629.888,517.5,0.946
1635.745,520.5,0.944
1641.596,523.5,0.942
1647.462,526.5,0.94
1653.324,529.5,0.938
1659.178,532.5,0.936
1665.05,535.5,0.933
1670.917,538.5,0.93
1676.766,541.5,0.927
1682.667,544.5,0.923
1688.536,547.5,0.92
1694.403,550.5,0.916
1700.291,553.5,0.912
1706.165,556.5,0.908
1712.066,559.5,0.903
1717.963,562.5,0.898
1723.831,565.5,0.893
1729.748,568.5,0.888
1735.649,571.5,0.882
1741.561,574.5,0.876
1747.464,577.5,0.871
1753.375,580.5,0.864
1759.305,583.5,0.857
1765.218,586.5,0.849
1771.148,589.5,0.841
1777.073,592.5,0.832
1783.017,595.5,0.823
1788.933,598.5,0.813
1794.901,601.5,0.803
1800.846,604.5,0.791
1806.773,607.5,0.78
1812.734,610.5,0.768
1818.679,613.5,0.754
1824.649,616.5,0.74
1830.617,619.5,0.726
1836.554,622.5,0.711
1842.547,625.5,0.695
1848.538,628.5,0.679
1854.524,631.5,0.663
1860.526,634.5,0.646
1866.503,637.5,0.628
1872.501,640.5,0.61
1878.493,643.5,0.593
1884.512,646.5,0.573
1890.516,649.5,0.553
1896.544,652.5,0.532
1902.559,655.5,0.511
1908.595,658.5,0.488
1914.643,661.5,0.464
1920.652,664.5,0.439
1926.689,667.5,0.414
1932.724,670.5,0.389
1938.763,673.5,0.364
1944.794,676.5,0.341
1950.818,679.5,0.321
1956.831,682.5,0.305
1962.867,685.5,0.292
1968.876,688.5,0.284
1974.921,691.5,0.279
1980.957,694.5,0.276
1986.994,697.5,0.273
1993.034,700.5,0.271
1999.072,703.5,0.269
2005.11,706.5,0.268
2011.158,709.5,0.266
2017.209,712.5,0.265
2023.268,715.5,0.263
2029.337,718.5,0.261
2035.388,721.5,0.259
2041.441,724.5,0.258
2047.493,727.5,0.257
2053.566,730.5,0.255
2059.621,733.5,0.254
2065.697,736.5,0.252
2071.75,739.5,0.251
2077.821,742.5,0.249
2083.888,745.5,0.248
2089.958,748.5,0.247
2096.008,751.5,0.246
2102.092,754.5,0.245
2108.142,757.5,0.244
2114.198,760.5,0.243
2120.278,763.5,0.242
2126.33,766.5,0.241
2132.392,769.5,0.24
2138.44,772.5,0.239
2144.521,775.5,0.238
2150.572,778.5,0.237
2156.64,781.5,0.237
2162.692,784.5,0.236
2168.756,787.5,0.235
2174.81,790.5,0.235
2180.86,793.5,0.234
2186.914,796.5,0.233
2192.958,799.5,0.233
2199.006,802.5,0.232
2205.066,805.5,0.232
2211.113,808.5,0.231
2217.166,811.5,0.23
2223.189,814.5,0.23
2229.248,817.5,0.229
2235.298,820.5,0.229
2241.343,823.5,0.228
2247.401,826.5,0.228
2253.455,829.5,0.227
2259.476,832.5,0.227
2265.525,835.5,0.226
2271.575,838.5,0.226
2277.623,841.5,0.225
2283.674,844.5,0.225
2289.731,847.5,0.224
2295.795,850.5,0.224
2301.834,853.5,0.223
2307.875,856.5,0.223
2313.922,859.5,0.223
2319.976,862.5,0.222
2326.006,865.5,0.222
2332.045,868.5,0.221
2338.084,871.5,0.221
2344.13,874.5,0.22
2350.163,877.5,0.22
2356.193,880.5,0.22
2362.236,883.5,0.219
2368.27,886.5,0.219
2374.31,889.5,0.219
2380.361,892.5,0.218
2386.389,895.5,0.218
2392.412,898.5,0.217
2398.462,901.5,0.217
2404.478,904.5,0.217
2410.521,907.5,0.216
2416.533,910.5,0.216
2422.566,913.5,0.216
2428.581,916.5,0.215
2434.614,919.5,0.215
2440.631,922.5,0.215
2446.671,925.5,0.214
2452.687,928.5,0.214
2458.72,931.5,0.214
2464.758,934.5,0.214
2470.764,937.5,0.213
2476.79,940.5,0.213
2482.822,943.5,0.213
2488.857,946.5,0.213
2494.878,949.5,0.212
2500.9,952.5,0.212
2506.913,955.5,0.212
2512.939,958.5,0.212
2518.962,961.5,0.211
2524.978,964.5,0.211
2531.014,967.5,0.211
2537.028,970.5,0.211
2543.052,973.5,0.211
2549.089,976.5,0.211
2555.117,979.5,0.21
2561.124,982.5,0.21
2567.152,985.5,0.21
2573.171,988.5,0.21
2579.173,991.5,0.21
2585.195,994.5,0.209
2591.2,997.5,0.209
2597.192,1000.5,0.209
2603.202,1003.5,0.209
2609.22,1006.5,0.209
2615.22,1009.5,0.208
2621.23,1012.5,0.208
2627.239,1015.5,0.208
2633.23,1018.5,0.208
2639.255,1021.5,0.208
2645.252,1024.5,0.208
2651.272,1027.5,0.207
2657.27,1030.5,0.207
2663.274,1033.5,0.207
2669.269,1036.5,0.207
2675.303,1039.5,0.207
2681.296,1042.5,0.207
2687.31,1045.5,0.207
2693.311,1048.5,0.206
2699.328,1051.5,0.206
2705.34,1054.5,0.206
2711.338,1057.5,0.206
2717.356,1060.5,0.206
2725.439,1063.5,0.205
2740.0,1067.067,0.205
2800.0,1071.42,0.204
2860.0,1072.127,0.203
2920.0,1072.386,0.203
2980.0,1072.511,0.202
3040.0,1072.576,0.202