Folder: matl-db/Wood/Calibration_Data/TUBS (part 9)

File: TUBS_Wood_TGA_N2_40K_R2.csv
Time (s),Temperature (K),Mass (mg)
0.0,304.968,0.98
51.0,304.779,0.974
165.0,304.565,0.968
390.0,304.406,0.964
964.0,304.397,0.962
1210.15,307.5,0.96
1215.478,310.5,0.963
1220.268,313.5,0.965
1224.9,316.5,0.965
1229.504,319.5,0.964
1234.078,322.5,0.963
1238.62,325.5,0.962
1243.16,328.5,0.962
1247.708,331.5,0.961
1252.263,334.5,0.96
1256.798,337.5,0.96
1261.342,340.5,0.959
1265.853,343.5,0.958
1270.407,346.5,0.958
1274.944,349.5,0.957
1279.48,352.5,0.956
1284.015,355.5,0.956
1288.565,358.5,0.955
1293.075,361.5,0.955
1297.607,364.5,0.954
1302.133,367.5,0.954
1306.653,370.5,0.953
1311.168,373.5,0.953
1315.684,376.5,0.953
1320.174,379.5,0.953
1324.696,382.5,0.953
1329.182,385.5,0.953
1333.67,388.5,0.952
1338.176,391.5,0.952
1342.648,394.5,0.952
1347.127,397.5,0.952
1351.597,400.5,0.952
1356.073,403.5,0.952
1360.542,406.5,0.952
1364.991,409.5,0.952
1369.442,412.5,0.952
1373.882,415.5,0.952
1378.335,418.5,0.952
1382.782,421.5,0.952
1387.207,424.5,0.952
1391.641,427.5,0.952
1396.067,430.5,0.952
1400.493,433.5,0.952
1404.913,436.5,0.951
1409.339,439.5,0.951
1413.753,442.5,0.951
1418.139,445.5,0.951
1422.545,448.5,0.95
1426.944,451.5,0.95
1431.345,454.5,0.95
1435.748,457.5,0.949
1440.123,460.5,0.949
1444.509,463.5,0.948
1448.892,466.5,0.948
1453.266,469.5,0.947
1457.652,472.5,0.946
1462.031,475.5,0.945
1466.406,478.5,0.945
1470.796,481.5,0.944
1475.147,484.5,0.943
1479.52,487.5,0.942
1483.89,490.5,0.941
1488.269,493.5,0.94
1492.619,496.5,0.939
1496.994,499.5,0.939
1501.366,502.5,0.938
1505.746,505.5,0.937
1510.094,508.5,0.936
1514.475,511.5,0.935
1518.854,514.5,0.933
1523.231,517.5,0.932
1527.597,520.5,0.931
1531.98,523.5,0.929
1536.357,526.5,0.928
1540.734,529.5,0.926
1545.115,532.5,0.924
1549.495,535.5,0.922
1553.87,538.5,0.919
1558.264,541.5,0.917
1562.66,544.5,0.913
1567.05,547.5,0.911
1571.448,550.5,0.908
1575.847,553.5,0.904
1580.241,556.5,0.9
1584.633,559.5,0.896
1589.022,562.5,0.892
1593.426,565.5,0.888
1597.845,568.5,0.883
1602.253,571.5,0.878
1606.662,574.5,0.873
1611.091,577.5,0.868
1615.499,580.5,0.863
1619.926,583.5,0.856
1624.354,586.5,0.85
1628.777,589.5,0.843
1633.224,592.5,0.836
1637.654,595.5,0.828
1642.087,598.5,0.82
1646.525,601.5,0.811
1650.991,604.5,0.802
1655.433,607.5,0.792
1659.88,610.5,0.781
1664.335,613.5,0.77
1668.789,616.5,0.758
1673.249,619.5,0.745
1677.706,622.5,0.732
1682.182,625.5,0.718
1686.659,628.5,0.704
1691.13,631.5,0.689
1695.62,634.5,0.674
1700.104,637.5,0.658
1704.585,640.5,0.642
1709.061,643.5,0.625
1713.579,646.5,0.608
1718.062,649.5,0.59
1722.582,652.5,0.572
1727.085,655.5,0.553
1731.608,658.5,0.533
1736.114,661.5,0.512
1740.639,664.5,0.491
1745.172,667.5,0.468
1749.686,670.5,0.445
1754.229,673.5,0.421
1758.759,676.5,0.396
1763.289,679.5,0.373
1767.808,682.5,0.351
1772.337,685.5,0.332
1776.869,688.5,0.315
1781.389,691.5,0.303
1785.905,694.5,0.294
1790.444,697.5,0.289
1794.982,700.5,0.285
1799.496,703.5,0.282
1804.045,706.5,0.28
1808.574,709.5,0.278
1813.127,712.5,0.277
1817.658,715.5,0.275
1822.207,718.5,0.273
1826.753,721.5,0.272
1831.291,724.5,0.27
1835.841,727.5,0.268
1840.382,730.5,0.267
1844.945,733.5,0.266
1849.492,736.5,0.265
1854.024,739.5,0.263
1858.584,742.5,0.262
1863.146,745.5,0.261
1867.682,748.5,0.259
1872.239,751.5,0.258
1876.784,754.5,0.257
1881.334,757.5,0.256
1885.882,760.5,0.255
1890.439,763.5,0.254
1894.986,766.5,0.253
1899.537,769.5,0.252
1904.077,772.5,0.251
1908.633,775.5,0.25
1913.181,778.5,0.25
1917.722,781.5,0.249
1922.278,784.5,0.248
1926.825,787.5,0.247
1931.372,790.5,0.247
1935.915,793.5,0.246
1940.467,796.5,0.245
1945.008,799.5,0.245
1949.561,802.5,0.244
1954.118,805.5,0.244
1958.633,808.5,0.243
1963.187,811.5,0.243
1967.735,814.5,0.242
1972.286,817.5,0.241
1976.826,820.5,0.241
1981.387,823.5,0.24
1985.916,826.5,0.24
1990.46,829.5,0.239
1995.015,832.5,0.239
1999.557,835.5,0.238
2004.12,838.5,0.238
2008.686,841.5,0.238
2013.223,844.5,0.237
2017.775,847.5,0.237
2022.312,850.5,0.236
2026.857,853.5,0.236
2031.409,856.5,0.236
2035.945,859.5,0.235
2040.484,862.5,0.235
2045.006,865.5,0.234
2049.555,868.5,0.234
2054.092,871.5,0.233
2058.622,874.5,0.233
2063.158,877.5,0.233
2067.684,880.5,0.232
2072.241,883.5,0.232
2076.755,886.5,0.231
2081.283,889.5,0.231
2085.806,892.5,0.231
2090.342,895.5,0.23
2094.868,898.5,0.23
2099.392,901.5,0.23
2103.912,904.5,0.229
2108.442,907.5,0.229
2112.964,910.5,0.229
2117.481,913.5,0.229
2122.003,916.5,0.228
2126.533,919.5,0.228
2131.045,922.5,0.228
2135.572,925.5,0.227
2140.106,928.5,0.227
2144.617,931.5,0.227
2149.139,934.5,0.226
2153.665,937.5,0.226
2158.192,940.5,0.226
2162.694,943.5,0.225
2167.217,946.5,0.225
2171.75,949.5,0.225
2176.261,952.5,0.225
2180.78,955.5,0.224
2185.284,958.5,0.224
2189.796,961.5,0.224
2194.322,964.5,0.224
2198.834,967.5,0.224
2203.363,970.5,0.224
2207.864,973.5,0.223
2212.378,976.5,0.223
2216.888,979.5,0.223
2221.386,982.5,0.223
2225.9,985.5,0.223
2230.405,988.5,0.223
2234.901,991.5,0.222
2239.407,994.5,0.222
2243.909,997.5,0.222
2248.424,1000.5,0.222
2252.914,1003.5,0.222
2257.416,1006.5,0.221
2261.909,1009.5,0.221
2266.409,1012.5,0.221
2270.897,1015.5,0.221
2275.401,1018.5,0.221
2279.904,1021.5,0.221
2284.407,1024.5,0.221
2288.889,1027.5,0.22
2293.391,1030.5,0.22
2297.877,1033.5,0.22
2302.379,1036.5,0.22
2306.879,1039.5,0.22
2311.365,1042.5,0.22
2315.863,1045.5,0.219
2320.351,1048.5,0.219
2324.85,1051.5,0.219
2329.364,1054.5,0.219
2333.859,1057.5,0.219
2340.705,1060.5,0.218
2348.923,1063.5,0.218
2395.0,1070.15,0.217
2455.0,1071.754,0.217
2515.0,1072.2,0.216
2575.0,1072.403,0.215
2635.0,1072.497,0.215
2655.0,1072.517,0.215

File: TUBS_Wood_TGA_N2_50K_R3.csv
Time (s),Temperature (K),Mass (mg)
0.0,305.021,0.969
52.0,304.817,0.963
142.0,304.639,0.959
313.0,304.494,0.953
369.0,304.491,0.953
714.0,304.443,0.951
846.0,304.448,0.951
1180.0,304.461,0.949
1207.691,307.0,0.947
1212.431,310.0,0.949
1216.315,313.0,0.951
1220.008,316.0,0.952
1223.617,319.0,0.952
1227.213,322.0,0.952
1230.798,325.0,0.951
1234.384,328.0,0.95
1237.972,331.0,0.949
1241.573,334.0,0.948
1245.162,337.0,0.948
1248.745,340.0,0.948
1252.375,343.0,0.947
1255.987,346.0,0.946
1259.584,349.0,0.945
1263.2,352.0,0.945
1266.818,355.0,0.943
1270.408,358.0,0.943
1274.02,361.0,0.943
1277.633,364.0,0.943
1281.242,367.0,0.942
1284.843,370.0,0.942
1288.453,373.0,0.941
1292.067,376.0,0.941
1295.673,379.0,0.941
1299.275,382.0,0.941
1302.883,385.0,0.94
1306.475,388.0,0.94
1310.074,391.0,0.94
1313.665,394.0,0.939
1317.254,397.0,0.939
1320.853,400.0,0.939
1324.439,403.0,0.939
1328.018,406.0,0.939
1331.607,409.0,0.939
1335.18,412.0,0.939
1338.744,415.0,0.939
1342.308,418.0,0.939
1345.888,421.0,0.939
1349.438,424.0,0.939
1353.0,427.0,0.939
1356.553,430.0,0.939
1360.113,433.0,0.939
1363.661,436.0,0.939
1367.205,439.0,0.939
1370.755,442.0,0.938
1374.302,445.0,0.938
1377.823,448.0,0.938
1381.368,451.0,0.938
1384.906,454.0,0.937
1388.413,457.0,0.937
1391.942,460.0,0.937
1395.449,463.0,0.936
1398.968,466.0,0.936
1402.485,469.0,0.935
1405.997,472.0,0.934
1409.517,475.0,0.934
1413.022,478.0,0.933
1416.523,481.0,0.932
1420.027,484.0,0.931
1423.526,487.0,0.93
1427.03,490.0,0.929
1430.509,493.0,0.928
1434.023,496.0,0.927
1437.522,499.0,0.926
1441.015,502.0,0.925
1444.521,505.0,0.924
1448.016,508.0,0.923
1451.512,511.0,0.922
1455.011,514.0,0.921
1458.509,517.0,0.919
1462.005,520.0,0.918
1465.501,523.0,0.916
1469.008,526.0,0.915
1472.504,529.0,0.913
1476.002,532.0,0.912
1479.508,535.0,0.91
1483.018,538.0,0.908
1486.512,541.0,0.905
1490.022,544.0,0.903
1493.524,547.0,0.9
1497.031,550.0,0.897
1500.539,553.0,0.893
1504.038,556.0,0.89
1507.551,559.0,0.886
1511.066,562.0,0.883
1514.579,565.0,0.878
1518.093,568.0,0.874
1521.622,571.0,0.869
1525.134,574.0,0.865
1528.658,577.0,0.86
1532.181,580.0,0.855
1535.71,583.0,0.849
1539.229,586.0,0.843
1542.757,589.0,0.836
1546.292,592.0,0.829
1549.835,595.0,0.822
1553.384,598.0,0.814
1556.923,601.0,0.806
1560.453,604.0,0.798
1564.005,607.0,0.788
1567.558,610.0,0.778
1571.111,613.0,0.768
1574.664,616.0,0.757
1578.224,619.0,0.745
1581.789,622.0,0.732
1585.356,625.0,0.719
1588.928,628.0,0.705
1592.493,631.0,0.69
1596.065,634.0,0.675
1599.638,637.0,0.659
1603.215,640.0,0.644
1606.801,643.0,0.628
1610.398,646.0,0.611
1613.988,649.0,0.593
1617.592,652.0,0.576
1621.191,655.0,0.557
1624.798,658.0,0.538
1628.402,661.0,0.519
1632.016,664.0,0.498
1635.631,667.0,0.476
1639.257,670.0,0.453
1642.876,673.0,0.431
1646.502,676.0,0.406
1650.123,679.0,0.382
1653.752,682.0,0.357
1657.381,685.0,0.333
1661.004,688.0,0.311
1664.613,691.0,0.293
1668.235,694.0,0.277
1671.855,697.0,0.265
1675.477,700.0,0.256
1679.113,703.0,0.25
1682.743,706.0,0.246
1686.368,709.0,0.244
1689.999,712.0,0.242
1693.638,715.0,0.24
1697.275,718.0,0.238
1700.9,721.0,0.236
1704.53,724.0,0.234
1708.174,727.0,0.233
1711.804,730.0,0.231
1715.44,733.0,0.23
1719.076,736.0,0.229
1722.715,739.0,0.227
1726.358,742.0,0.226
1729.988,745.0,0.224
1733.628,748.0,0.223
1737.269,751.0,0.222
1740.914,754.0,0.221
1744.548,757.0,0.219
1748.195,760.0,0.219
1751.826,763.0,0.217
1755.466,766.0,0.217
1759.108,769.0,0.215
1762.746,772.0,0.214
1766.386,775.0,0.214
1770.018,778.0,0.213
1773.672,781.0,0.212
1777.314,784.0,0.211
1780.959,787.0,0.21
1784.594,790.0,0.209
1788.243,793.0,0.208
1791.886,796.0,0.208
1795.525,799.0,0.207
1799.178,802.0,0.207
1802.812,805.0,0.206
1806.452,808.0,0.206
1810.107,811.0,0.205
1813.738,814.0,0.204
1817.379,817.0,0.204
1821.019,820.0,0.203
1824.659,823.0,0.203
1828.302,826.0,0.202
1831.949,829.0,0.202
1835.592,832.0,0.201
1839.228,835.0,0.201
1842.873,838.0,0.2
1846.515,841.0,0.2
1850.146,844.0,0.199
1853.79,847.0,0.199
1857.422,850.0,0.199
1861.064,853.0,0.198
1864.73,856.0,0.198
1868.377,859.0,0.197
1872.035,862.0,0.196
1875.672,865.0,0.196
1879.308,868.0,0.195
1882.925,871.0,0.195
1886.563,874.0,0.195
1890.201,877.0,0.195
1893.828,880.0,0.194
1897.463,883.0,0.194
1901.095,886.0,0.193
1904.726,889.0,0.193
1908.351,892.0,0.193
1911.98,895.0,0.192
1915.603,898.0,0.192
1919.222,901.0,0.191
1922.844,904.0,0.191
1926.472,907.0,0.191
1930.079,910.0,0.19
1933.715,913.0,0.19
1937.336,916.0,0.19
1940.96,919.0,0.189
1944.578,922.0,0.189
1948.203,925.0,0.189
1951.83,928.0,0.189
1955.436,931.0,0.188
1959.053,934.0,0.188
1962.666,937.0,0.188
1966.281,940.0,0.187
1969.893,943.0,0.187
1973.512,946.0,0.187
1977.128,949.0,0.187
1980.726,952.0,0.187
1984.337,955.0,0.186
1987.941,958.0,0.186
1991.555,961.0,0.186
1995.158,964.0,0.186
1998.765,967.0,0.185
2002.36,970.0,0.185
2005.971,973.0,0.185
2009.569,976.0,0.184
2013.172,979.0,0.184
2016.767,982.0,0.184
2020.362,985.0,0.184
2023.962,988.0,0.184
2027.558,991.0,0.183
2031.159,994.0,0.183
2034.745,997.0,0.183
2038.329,1000.0,0.183
2041.913,1003.0,0.183
2045.515,1006.0,0.182
2049.109,1009.0,0.182
2052.695,1012.0,0.182
2056.283,1015.0,0.182
2059.869,1018.0,0.182
2063.453,1021.0,0.182
2067.031,1024.0,0.181
2070.621,1027.0,0.181
2074.2,1030.0,0.181
2077.785,1033.0,0.181
2081.373,1036.0,0.181
2084.958,1039.0,0.181
2088.54,1042.0,0.18
2092.131,1045.0,0.18
2095.704,1048.0,0.18
2099.286,1051.0,0.18
2102.887,1054.0,0.18
2108.143,1057.0,0.18
2114.161,1060.0,0.18
2122.158,1063.0,0.179
2174.0,1070.238,0.178
2234.0,1071.757,0.177
2294.0,1072.272,0.176
2354.0,1072.477,0.176
2414.0,1072.578,0.175
2424.0,1072.584,0.175

File: TUBS_Wood_TGA_N2_50K_R4.csv
Time (s),Temperature (K),Mass (mg)
0.0,303.875,4.02
15.0,304.873,4.014
33.0,304.817,4.008
52.0,304.736,4.002
73.0,304.699,3.996
97.0,304.664,3.99
124.0,304.6,3.984
153.0,304.572,3.978
187.0,304.534,3.972
225.0,304.51,3.966
269.0,304.468,3.96
319.0,304.443,3.954
381.0,304.426,3.948
452.0,304.422,3.942
545.0,304.409,3.936
664.0,304.432,3.93
824.0,304.422,3.924
1062.0,304.452,3.918
1206.455,306.5,3.914
1211.386,309.5,3.913
1215.436,312.5,3.915
1219.22,315.5,3.917
1222.876,318.5,3.916
1226.505,321.5,3.915
1230.117,324.5,3.914
1233.713,327.5,3.913
1237.313,330.5,3.912
1240.938,333.5,3.91
1244.554,336.5,3.909
1248.15,339.5,3.907
1251.768,342.5,3.905
1255.379,345.5,3.903
1259.012,348.5,3.901
1262.634,351.5,3.898
1266.272,354.5,3.895
1269.893,357.5,3.892
1273.498,360.5,3.889
1277.122,363.5,3.885
1280.729,366.5,3.881
1284.343,369.5,3.879
1287.955,372.5,3.875
1291.561,375.5,3.872
1295.161,378.5,3.87
1298.76,381.5,3.867
1302.357,384.5,3.866
1305.932,387.5,3.864
1309.514,390.5,3.863
1313.11,393.5,3.862
1316.668,396.5,3.861
1320.25,399.5,3.861
1323.818,402.5,3.86
1327.404,405.5,3.86
1330.983,408.5,3.86
1334.539,411.5,3.86
1338.111,414.5,3.859
1341.665,417.5,3.859
1345.24,420.5,3.859
1348.78,423.5,3.859
1352.34,426.5,3.858
1355.898,429.5,3.858
1359.442,432.5,3.858
1362.984,435.5,3.857
1366.53,438.5,3.857
1370.064,441.5,3.857
1373.608,444.5,3.856
1377.143,447.5,3.855
1380.664,450.5,3.855
1384.193,453.5,3.854
1387.712,456.5,3.853
1391.235,459.5,3.852
1394.733,462.5,3.851
1398.254,465.5,3.85
1401.772,468.5,3.848
1405.275,471.5,3.846
1408.789,474.5,3.844
1412.279,477.5,3.842
1415.789,480.5,3.839
1419.288,483.5,3.837
1422.795,486.5,3.833
1426.288,489.5,3.83
1429.786,492.5,3.825
1433.279,495.5,3.821
1436.763,498.5,3.815
1440.267,501.5,3.81
1443.757,504.5,3.804
1447.248,507.5,3.799
1450.751,510.5,3.792
1454.247,513.5,3.786
1457.725,516.5,3.779
1461.227,519.5,3.772
1464.71,522.5,3.764
1468.206,525.5,3.756
1471.696,528.5,3.748
1475.19,531.5,3.739
1478.678,534.5,3.729
1482.175,537.5,3.719
1485.666,540.5,3.708
1489.176,543.5,3.696
1492.671,546.5,3.683
1496.16,549.5,3.669
1499.664,552.5,3.654
1503.145,555.5,3.639
1506.633,558.5,3.622
1510.125,561.5,3.604
1513.614,564.5,3.586
1517.12,567.5,3.565
1520.615,570.5,3.544
1524.109,573.5,3.52
1527.602,576.5,3.496
1531.106,579.5,3.469
1534.625,582.5,3.441
1538.169,585.5,3.411
1541.709,588.5,3.381
1545.247,591.5,3.349
1548.787,594.5,3.315
1552.339,597.5,3.28
1555.88,600.5,3.243
1559.423,603.5,3.205
1562.969,606.5,3.165
1566.517,609.5,3.123
1570.063,612.5,3.078
1573.618,615.5,3.031
1577.183,618.5,2.981
1580.746,621.5,2.929
1584.303,624.5,2.875
1587.879,627.5,2.818
1591.46,630.5,2.759
1595.042,633.5,2.697
1598.622,636.5,2.634
1602.215,639.5,2.567
1605.799,642.5,2.5
1609.393,645.5,2.429
1612.987,648.5,2.357
1616.607,651.5,2.281
1620.214,654.5,2.203
1623.832,657.5,2.123
1627.465,660.5,2.037
1631.085,663.5,1.949
1634.726,666.5,1.854
1638.361,669.5,1.756
1642.007,672.5,1.653
1645.631,675.5,1.547
1649.244,678.5,1.44
1652.851,681.5,1.336
1656.437,684.5,1.239
1660.018,687.5,1.15
1663.587,690.5,1.074
1667.168,693.5,1.015
1670.738,696.5,0.972
1674.322,699.5,0.943
1677.927,702.5,0.923
1681.531,705.5,0.908
1685.135,708.5,0.896
1688.745,711.5,0.886
1692.364,714.5,0.876
1695.971,717.5,0.867
1699.593,720.5,0.859
1703.228,723.5,0.851
1706.846,726.5,0.842
1710.467,729.5,0.835
1714.104,732.5,0.827
1717.724,735.5,0.82
1721.362,738.5,0.812
1724.989,741.5,0.806
1728.621,744.5,0.799
1732.261,747.5,0.792
1735.901,750.5,0.786
1739.532,753.5,0.78
1743.176,756.5,0.774
1746.818,759.5,0.768
1750.45,762.5,0.763
1754.092,765.5,0.758
1757.736,768.5,0.753
1761.371,771.5,0.748
1765.011,774.5,0.743
1768.649,777.5,0.739
1772.291,780.5,0.735
1775.922,783.5,0.73
1779.557,786.5,0.726
1783.201,789.5,0.723
1786.836,792.5,0.718
1790.461,795.5,0.715
1794.095,798.5,0.711
1797.739,801.5,0.707
1801.353,804.5,0.704
1804.995,807.5,0.7
1808.609,810.5,0.696
1812.247,813.5,0.694
1815.868,816.5,0.69
1819.489,819.5,0.687
1823.121,822.5,0.684
1826.748,825.5,0.68
1830.369,828.5,0.678
1833.988,831.5,0.675
1837.609,834.5,0.672
1841.239,837.5,0.669
1844.861,840.5,0.666
1848.493,843.5,0.664
1852.119,846.5,0.661
1855.733,849.5,0.659
1859.361,852.5,0.657
1862.986,855.5,0.654
1866.607,858.5,0.652
1870.236,861.5,0.65
1873.86,864.5,0.648
1877.48,867.5,0.646
1881.112,870.5,0.643
1884.737,873.5,0.641
1888.36,876.5,0.639
1892.046,879.5,0.637
1895.687,882.5,0.635
1899.316,885.5,0.633
1902.948,888.5,0.631
1906.566,891.5,0.629
1910.19,894.5,0.627
1913.805,897.5,0.625
1917.443,900.5,0.624
1921.061,903.5,0.622
1924.679,906.5,0.62
1928.29,909.5,0.618
1931.916,912.5,0.616
1935.528,915.5,0.615
1939.146,918.5,0.613
1942.764,921.5,0.612
1946.369,924.5,0.61
1949.98,927.5,0.609
1953.595,930.5,0.607
1957.205,933.5,0.606
1960.828,936.5,0.604
1964.445,939.5,0.603
1968.062,942.5,0.601
1971.675,945.5,0.6
1975.29,948.5,0.598
1978.901,951.5,0.597
1982.513,954.5,0.595
1986.121,957.5,0.594
1989.742,960.5,0.593
1993.355,963.5,0.592
1996.97,966.5,0.591
2000.588,969.5,0.59
2004.199,972.5,0.589
2007.821,975.5,0.588
2011.434,978.5,0.587
2015.061,981.5,0.586
2018.667,984.5,0.585
2022.285,987.5,0.584
2025.902,990.5,0.583
2029.511,993.5,0.582
2033.134,996.5,0.581
2036.742,999.5,0.58
2040.353,1002.5,0.58
2043.961,1005.5,0.579
2047.573,1008.5,0.578
2051.179,1011.5,0.577
2054.793,1014.5,0.576
2058.41,1017.5,0.575
2062.01,1020.5,0.575
2065.615,1023.5,0.574
2069.218,1026.5,0.573
2072.828,1029.5,0.572
2076.428,1032.5,0.572
2080.041,1035.5,0.571
2083.651,1038.5,0.57
2087.24,1041.5,0.569
2090.847,1044.5,0.568
2094.456,1047.5,0.568
2098.066,1050.5,0.567
2101.677,1053.5,0.566
2106.541,1056.5,0.565
2112.59,1059.5,0.564
2120.579,1062.5,0.562
2164.0,1069.113,0.557
2224.0,1070.891,0.552
2284.0,1071.427,0.549
2344.0,1071.661,0.546
2404.0,1071.769,0.544
2424.0,1071.796,0.543

File: TUBS_Wood_TGA_N2_50K_R5.csv
Time (s),Temperature (K),Mass (mg)
0.0,304.936,4.009
16.0,304.847,4.003
31.0,304.796,3.997
48.0,304.737,3.991
66.0,304.693,3.985
86.0,304.665,3.979
107.0,304.623,3.973
131.0,304.572,3.967
158.0,304.544,3.961
188.0,304.508,3.955
221.0,304.483,3.949
258.0,304.458,3.943
299.0,304.43,3.937
346.0,304.428,3.931
404.0,304.398,3.925
469.0,304.411,3.919
551.0,304.441,3.913
654.0,304.395,3.907
789.0,304.412,3.901
956.0,304.424,3.895
1200.0,304.438,3.889
1208.385,307.5,3.887
1212.957,310.5,3.889
1216.797,313.5,3.89
1220.464,316.5,3.891
1224.053,319.5,3.89
1227.667,322.5,3.889
1231.26,325.5,3.888
1234.829,328.5,3.887
1238.411,331.5,3.885
1242.002,334.5,3.884
1245.591,337.5,3.882
1249.177,340.5,3.881
1252.785,343.5,3.878
1256.382,346.5,3.876
1259.969,349.5,3.873
1263.589,352.5,3.87
1267.2,355.5,3.867
1270.794,358.5,3.864
1274.417,361.5,3.861
1278.017,364.5,3.857
1281.624,367.5,3.853
1285.221,370.5,3.851
1288.807,373.5,3.847
1292.405,376.5,3.845
1295.984,379.5,3.842
1299.565,382.5,3.84
1303.152,385.5,3.838
1306.72,388.5,3.837
1310.295,391.5,3.836
1313.857,394.5,3.835
1317.432,397.5,3.834
1321.01,400.5,3.833
1324.577,403.5,3.833
1328.14,406.5,3.833
1331.708,409.5,3.832
1335.259,412.5,3.832
1338.828,415.5,3.832
1342.366,418.5,3.832
1345.923,421.5,3.832
1349.481,424.5,3.831
1353.025,427.5,3.831
1356.562,430.5,3.831
1360.106,433.5,3.83
1363.642,436.5,3.83
1367.166,439.5,3.83
1370.7,442.5,3.829
1374.23,445.5,3.828
1377.768,448.5,3.828
1381.287,451.5,3.827
1384.797,454.5,3.826
1388.307,457.5,3.825
1391.827,460.5,3.824
1395.333,463.5,3.823
1398.83,466.5,3.821
1402.34,469.5,3.82
1405.841,472.5,3.817
1409.337,475.5,3.816
1412.839,478.5,3.813
1416.348,481.5,3.81
1419.84,484.5,3.806
1423.338,487.5,3.803
1426.845,490.5,3.799
1430.331,493.5,3.794
1433.826,496.5,3.789
1437.318,499.5,3.783
1440.809,502.5,3.777
1444.292,505.5,3.771
1447.785,508.5,3.764
1451.281,511.5,3.757
1454.763,514.5,3.75
1458.258,517.5,3.743
1461.753,520.5,3.736
1465.239,523.5,3.729
1468.729,526.5,3.72
1472.224,529.5,3.712
1475.712,532.5,3.703
1479.201,535.5,3.692
1482.701,538.5,3.682
1486.186,541.5,3.67
1489.697,544.5,3.658
1493.184,547.5,3.645
1496.694,550.5,3.631
1500.188,553.5,3.616
1503.691,556.5,3.601
1507.196,559.5,3.584
1510.709,562.5,3.565
1514.204,565.5,3.547
1517.724,568.5,3.527
1521.226,571.5,3.506
1524.744,574.5,3.483
1528.264,577.5,3.459
1531.776,580.5,3.434
1535.306,583.5,3.408
1538.823,586.5,3.379
1542.348,589.5,3.35
1545.885,592.5,3.318
1549.413,595.5,3.285
1552.948,598.5,3.251
1556.485,601.5,3.214
1560.018,604.5,3.176
1563.56,607.5,3.135
1567.098,610.5,3.093
1570.65,613.5,3.048
1574.202,616.5,3.0
1577.757,619.5,2.95
1581.315,622.5,2.897
1584.882,625.5,2.843
1588.45,628.5,2.785
1592.019,631.5,2.726
1595.607,634.5,2.663
1599.164,637.5,2.6
1602.75,640.5,2.534
1606.332,643.5,2.466
1609.925,646.5,2.396
1613.527,649.5,2.323
1617.13,652.5,2.248
1620.731,655.5,2.17
1624.351,658.5,2.088
1627.979,661.5,2.003
1631.588,664.5,1.914
1635.227,667.5,1.819
1638.845,670.5,1.72
1642.476,673.5,1.618
1646.091,676.5,1.512
1649.713,679.5,1.407
1653.314,682.5,1.306
1656.892,685.5,1.211
1660.471,688.5,1.127
1664.04,691.5,1.057
1667.616,694.5,1.004
1671.196,697.5,0.965
1674.783,700.5,0.94
1678.388,703.5,0.922
1681.99,706.5,0.908
1685.603,709.5,0.897
1689.218,712.5,0.887
1692.83,715.5,0.878
1696.446,718.5,0.87
1700.074,721.5,0.862
1703.698,724.5,0.854
1707.326,727.5,0.846
1710.945,730.5,0.839
1714.587,733.5,0.832
1718.217,736.5,0.825
1721.841,739.5,0.817
1725.495,742.5,0.811
1729.122,745.5,0.805
1732.771,748.5,0.798
1736.409,751.5,0.792
1740.046,754.5,0.787
1743.703,757.5,0.781
1747.345,760.5,0.776
1750.982,763.5,0.771
1754.637,766.5,0.766
1758.28,769.5,0.762
1761.936,772.5,0.757
1765.573,775.5,0.753
1769.221,778.5,0.749
1772.871,781.5,0.745
1776.525,784.5,0.741
1780.175,787.5,0.738
1783.825,790.5,0.735
1787.469,793.5,0.732
1791.116,796.5,0.729
1794.758,799.5,0.725
1798.406,802.5,0.723
1802.059,805.5,0.72
1805.704,808.5,0.717
1809.345,811.5,0.714
1812.978,814.5,0.711
1816.625,817.5,0.708
1820.273,820.5,0.706
1823.912,823.5,0.703
1827.552,826.5,0.701
1831.195,829.5,0.699
1834.83,832.5,0.696
1838.484,835.5,0.694
1842.126,838.5,0.692
1845.774,841.5,0.689
1849.417,844.5,0.687
1853.061,847.5,0.685
1856.7,850.5,0.683
1860.341,853.5,0.681
1863.984,856.5,0.679
1867.624,859.5,0.676
1871.258,862.5,0.675
1874.898,865.5,0.673
1878.54,868.5,0.67
1882.172,871.5,0.669
1885.807,874.5,0.667
1889.435,877.5,0.665
1893.068,880.5,0.663
1896.694,883.5,0.661
1900.333,886.5,0.659
1903.96,889.5,0.657
1907.588,892.5,0.655
1911.213,895.5,0.654
1914.844,898.5,0.652
1918.48,901.5,0.651
1922.108,904.5,0.649
1925.725,907.5,0.647
1929.348,910.5,0.646
1932.965,913.5,0.644
1936.594,916.5,0.642
1940.203,919.5,0.641
1943.825,922.5,0.64
1947.448,925.5,0.638
1951.062,928.5,0.637
1954.678,931.5,0.635
1958.295,934.5,0.634
1961.906,937.5,0.633
1965.529,940.5,0.631
1969.13,943.5,0.63
1972.746,946.5,0.629
1976.354,949.5,0.628
1979.965,952.5,0.627
1983.579,955.5,0.625
1987.175,958.5,0.624
1990.791,961.5,0.623
1994.394,964.5,0.623
1998.008,967.5,0.621
2001.608,970.5,0.62
2005.226,973.5,0.62
2008.832,976.5,0.619
2012.435,979.5,0.618
2016.04,982.5,0.617
2019.651,985.5,0.616
2023.263,988.5,0.615
2026.867,991.5,0.614
2030.472,994.5,0.614
2034.079,997.5,0.613
2037.677,1000.5,0.612
2041.286,1003.5,0.611
2044.887,1006.5,0.61
2048.484,1009.5,0.61
2052.089,1012.5,0.609
2055.701,1015.5,0.608
2059.301,1018.5,0.607
2062.898,1021.5,0.607
2066.495,1024.5,0.606
2070.098,1027.5,0.605
2073.696,1030.5,0.604
2077.303,1033.5,0.604
2080.901,1036.5,0.603
2084.493,1039.5,0.603
2088.084,1042.5,0.602
2091.691,1045.5,0.601
2095.275,1048.5,0.6
2098.876,1051.5,0.599
2102.47,1054.5,0.599
2107.491,1057.5,0.598
2113.61,1060.5,0.597
2124.0,1064.08,0.595
2184.0,1070.466,0.59
2244.0,1071.525,0.586
2304.0,1071.894,0.583
2364.0,1072.048,0.581
2424.0,1072.104,0.579