Folder: matl-db/Wood/Calibration_Data/TUBS (part 7)

File: TUBS_Wood_MCC_N2_30K_R3.csv
Time (s),Temperature (K),HRR (W/g)
120.51,374.0,0.789
124.62,376.5,0.505
128.78,379.0,-0.083
132.73,381.5,-0.516
136.6,384.0,-0.543
140.45,386.5,-0.543
144.27,389.0,-0.446
147.97,391.5,-0.466
151.8,394.0,-0.284
155.41,396.5,-0.062
159.09,399.0,0.337
162.79,401.5,0.687
166.48,404.0,0.812
170.25,406.5,1.012
173.93,409.0,1.197
177.61,411.5,1.485
181.37,414.0,1.49
184.96,416.5,1.715
188.72,419.0,1.899
192.41,421.5,2.072
196.17,424.0,2.53
199.88,426.5,3.517
203.63,429.0,4.964
207.39,431.5,6.199
211.21,434.0,6.823
215.02,436.5,7.076
218.91,439.0,7.983
222.92,441.5,8.79
226.86,444.0,9.234
230.89,446.5,9.864
234.95,449.0,10.578
239.19,451.5,10.513
243.56,454.0,9.829
247.64,456.5,9.642
252.01,459.0,9.926
256.55,461.5,10.609
260.88,464.0,11.249
265.52,466.5,11.366
269.98,469.0,11.58
274.81,471.5,11.65
279.61,474.0,12.02
284.43,476.5,12.135
289.44,479.0,12.111
294.56,481.5,12.83
299.57,484.0,13.557
304.63,486.5,14.675
309.66,489.0,15.843
314.67,491.5,16.803
319.77,494.0,17.155
324.93,496.5,17.874
329.99,499.0,19.179
335.04,501.5,20.143
340.18,504.0,20.889
345.17,506.5,21.78
350.17,509.0,22.478
355.11,511.5,22.73
360.12,514.0,23.529
364.85,516.5,24.926
369.88,519.0,26.344
374.71,521.5,27.217
379.62,524.0,27.729
384.63,526.5,28.077
389.62,529.0,28.253
394.49,531.5,28.762
399.42,534.0,29.485
404.38,536.5,30.231
409.38,539.0,31.03
414.21,541.5,31.877
419.18,544.0,33.165
424.15,546.5,33.736
429.06,549.0,34.235
433.94,551.5,35.541
438.86,554.0,36.711
443.86,556.5,37.925
448.77,559.0,39.296
453.78,561.5,40.667
458.66,564.0,41.864
463.68,566.5,43.11
468.64,569.0,44.119
473.76,571.5,44.94
478.74,574.0,46.131
483.78,576.5,48.235
488.87,579.0,49.644
493.88,581.5,50.201
498.96,584.0,52.234
504.03,586.5,54.437
508.97,589.0,55.703
514.07,591.5,57.438
518.98,594.0,59.462
523.85,596.5,60.597
528.96,599.0,61.567
534.03,601.5,63.592
538.93,604.0,65.119
543.9,606.5,66.848
548.82,609.0,68.384
553.77,611.5,69.488
558.73,614.0,70.965
563.74,616.5,72.37
568.76,619.0,73.868
573.74,621.5,75.04
578.6,624.0,75.678
583.72,626.5,76.097
588.64,629.0,77.875
593.68,631.5,80.15
598.57,634.0,81.207
603.69,636.5,82.35
608.88,639.0,83.519
613.93,641.5,84.885
619.01,644.0,87.645
623.95,646.5,90.03
629.08,649.0,91.599
634.23,651.5,92.129
639.18,654.0,90.781
644.27,656.5,88.778
649.36,659.0,85.83
654.4,661.5,81.243
659.46,664.0,74.226
664.5,666.5,66.195
669.42,669.0,58.679
674.33,671.5,50.861
679.33,674.0,43.444
684.54,676.5,37.296
689.69,679.0,32.452
694.74,681.5,28.681
699.78,684.0,26.448
704.88,686.5,25.557
709.94,689.0,25.478
714.83,691.5,25.287
719.82,694.0,25.097
724.79,696.5,25.12
729.7,699.0,24.573
734.52,701.5,23.548
739.43,704.0,22.668
744.41,706.5,21.629
749.39,709.0,20.927
754.58,711.5,20.622
759.49,714.0,20.308
764.46,716.5,19.873
769.51,719.0,19.128
774.55,721.5,18.564
779.64,724.0,18.333
784.7,726.5,17.634
789.81,729.0,16.847
794.88,731.5,16.555
800.0,734.0,15.961
805.04,736.5,14.793
810.18,739.0,14.609
815.25,741.5,14.717
820.24,744.0,13.326
825.36,746.5,12.511
830.46,749.0,12.664
835.48,751.5,11.966
840.43,754.0,11.056
845.6,756.5,10.893
850.61,759.0,10.568
855.68,761.5,9.338
860.8,764.0,7.938
865.9,766.5,7.992
871.02,769.0,8.506
876.08,771.5,8.173
880.96,774.0,7.001
885.91,776.5,5.451
890.99,779.0,4.754
896.17,781.5,4.902
901.22,784.0,5.454
906.43,786.5,5.941
911.43,789.0,5.331
916.44,791.5,4.568
921.41,794.0,4.687
926.41,796.5,4.988
931.45,799.0,4.438
936.41,801.5,4.277
941.37,804.0,4.947
946.31,806.5,4.81
951.37,809.0,4.184
956.2,811.5,3.765
961.13,814.0,3.376
966.22,816.5,3.284
971.16,819.0,2.979
976.21,821.5,2.876
981.18,824.0,2.787
986.26,826.5,2.196
991.3,829.0,1.942
996.3,831.5,1.263
1001.22,834.0,1.306
1006.19,836.5,1.796
1011.17,839.0,1.526
1016.19,841.5,0.981
1021.21,844.0,0.988
1026.11,846.5,0.865
1031.12,849.0,-0.545
1036.21,851.5,-1.216
1041.28,854.0,-1.192
1046.36,856.5,-1.047
1051.47,859.0,-0.213
1056.65,861.5,0.003
1061.84,864.0,-0.401
1067.01,866.5,-0.445
1072.26,869.0,-0.775
1077.36,871.5,-1.137
1082.41,874.0,-0.916
1087.31,876.5,-0.389
1092.25,879.0,0.052
1097.2,881.5,0.482
1102.02,884.0,0.703
1106.81,886.5,-0.106
1111.64,889.0,-0.384
1116.56,891.5,0.397
1121.43,894.0,0.563
1126.23,896.5,0.719
1130.93,899.0,0.727
1135.66,901.5,0.146
1140.66,904.0,0.051
1145.63,906.5,0.082
1150.68,909.0,-0.033
1155.85,911.5,-0.287
1160.97,914.0,-0.68
1165.99,916.5,-1.046
1170.97,919.0,-1.072
1176.12,921.5,-1.56
1181.23,924.0,-1.271
1186.22,926.5,-0.44
1191.07,929.0,-0.288
1195.94,931.5,0.296
1200.93,934.0,1.255
1205.61,936.5,1.16
1210.46,939.0,0.545
1215.32,941.5,0.291
1220.36,944.0,0.382
1225.27,946.5,0.568
1230.18,949.0,0.243
1235.28,951.5,0.501
1240.21,954.0,0.889
1245.13,956.5,1.023
1249.96,959.0,0.687
1254.95,961.5,0.103
1259.85,964.0,0.214
1264.84,966.5,0.519
1269.8,969.0,0.11
1274.74,971.5,-0.478
1279.82,974.0,-0.883
1284.9,976.5,-1.053
1289.91,979.0,-0.404
1294.92,981.5,0.391
1299.92,984.0,0.278
1304.96,986.5,0.178
1309.99,989.0,-0.725
1314.84,991.5,-1.314
1319.85,994.0,-0.151
1324.82,996.5,0.151
1329.81,999.0,-0.489
1334.73,1001.5,-0.46
1339.61,1004.0,-0.097
1344.56,1006.5,0.24
1349.41,1009.0,0.38
1354.24,1011.5,0.199
1359.26,1014.0,-0.47
1364.23,1016.5,-1.036
1369.19,1019.0,-1.622
1374.22,1021.5,-1.401
1379.22,1024.0,-0.502
1384.01,1026.5,0.221
1388.72,1029.0,0.349
1393.56,1031.5,0.513
1398.35,1034.0,1.166
1403.05,1036.5,1.065
1407.88,1039.0,0.769
1412.75,1041.5,1.032
1417.64,1044.0,1.454
1422.58,1046.5,0.961
1427.57,1049.0,0.152
1432.54,1051.5,0.225
1437.58,1054.0,-0.01
1442.46,1056.5,-0.585
1447.44,1059.0,-0.795
1452.25,1061.5,-0.916
1457.16,1064.0,-0.633
1461.16,1066.0,0.182

File: TUBS_Wood_TGA_N2_5K_R1.csv
Time (s),Temperature (K),Mass (mg)
0.0,304.84,0.98
39.0,304.68,0.974
114.0,304.564,0.968
293.0,304.416,0.962
582.0,304.38,0.96
649.0,304.356,0.956
896.0,304.348,0.956
1024.0,304.354,0.956
1150.0,304.342,0.956
1251.116,307.0,0.955
1290.622,310.0,0.955
1327.699,313.0,0.954
1363.618,316.0,0.953
1399.698,319.0,0.953
1435.471,322.0,0.952
1471.541,325.0,0.951
1507.719,328.0,0.95
1543.78,331.0,0.949
1579.805,334.0,0.948
1615.824,337.0,0.948
1651.831,340.0,0.947
1687.785,343.0,0.946
1724.012,346.0,0.946
1759.869,349.0,0.946
1795.911,352.0,0.945
1831.881,355.0,0.946
1867.81,358.0,0.945
1903.748,361.0,0.945
1939.739,364.0,0.945
1975.802,367.0,0.945
2011.692,370.0,0.945
2047.667,373.0,0.945
2083.443,376.0,0.945
2119.122,379.0,0.945
2154.95,382.0,0.944
2190.813,385.0,0.944
2226.708,388.0,0.945
2262.041,391.0,0.944
2298.108,394.0,0.944
2333.898,397.0,0.944
2369.875,400.0,0.944
2405.536,403.0,0.944
2441.069,406.0,0.944
2477.0,409.0,0.944
2512.728,412.0,0.944
2548.329,415.0,0.943
2584.085,418.0,0.943
2619.843,421.0,0.943
2655.488,424.0,0.942
2691.168,427.0,0.942
2727.031,430.0,0.941
2762.56,433.0,0.94
2798.232,436.0,0.939
2833.977,439.0,0.939
2869.702,442.0,0.938
2905.277,445.0,0.937
2941.012,448.0,0.936
2976.506,451.0,0.935
3012.165,454.0,0.935
3047.87,457.0,0.934
3083.41,460.0,0.933
3119.093,463.0,0.933
3154.66,466.0,0.932
3190.393,469.0,0.931
3225.977,472.0,0.931
3261.492,475.0,0.93
3297.424,478.0,0.929
3332.864,481.0,0.928
3368.629,484.0,0.927
3404.325,487.0,0.926
3439.957,490.0,0.924
3475.616,493.0,0.923
3511.333,496.0,0.922
3547.082,499.0,0.92
3582.675,502.0,0.918
3618.425,505.0,0.916
3654.067,508.0,0.914
3689.962,511.0,0.911
3725.524,514.0,0.909
3761.2,517.0,0.905
3797.085,520.0,0.902
3832.877,523.0,0.898
3868.618,526.0,0.894
3904.367,529.0,0.89
3940.136,532.0,0.886
3975.908,535.0,0.88
4011.753,538.0,0.875
4047.406,541.0,0.87
4083.269,544.0,0.864
4119.167,547.0,0.857
4154.903,550.0,0.851
4190.667,553.0,0.843
4226.47,556.0,0.835
4262.231,559.0,0.827
4298.0,562.0,0.818
4333.795,565.0,0.808
4369.7,568.0,0.797
4405.5,571.0,0.786
4441.472,574.0,0.774
4477.329,577.0,0.761
4513.149,580.0,0.748
4548.987,583.0,0.733
4584.767,586.0,0.718
4620.632,589.0,0.702
4656.44,592.0,0.686
4692.4,595.0,0.669
4728.247,598.0,0.651
4764.225,601.0,0.632
4800.025,604.0,0.613
4836.127,607.0,0.594
4871.978,610.0,0.573
4907.894,613.0,0.552
4943.827,616.0,0.53
4979.832,619.0,0.507
5015.776,622.0,0.483
5051.741,625.0,0.457
5087.791,628.0,0.431
5123.57,631.0,0.403
5159.685,634.0,0.376
5195.5,637.0,0.35
5231.468,640.0,0.325
5267.44,643.0,0.303
5303.453,646.0,0.287
5339.346,649.0,0.276
5375.261,652.0,0.269
5411.364,655.0,0.265
5447.31,658.0,0.263
5483.406,661.0,0.261
5519.37,664.0,0.258
5555.376,667.0,0.256
5591.549,670.0,0.254
5627.655,673.0,0.253
5663.663,676.0,0.251
5699.734,679.0,0.249
5735.882,682.0,0.247
5772.055,685.0,0.245
5808.037,688.0,0.244
5844.131,691.0,0.242
5880.337,694.0,0.24
5916.389,697.0,0.239
5952.628,700.0,0.237
5988.667,703.0,0.235
6024.857,706.0,0.234
6061.089,709.0,0.233
6097.387,712.0,0.231
6133.422,715.0,0.23
6169.648,718.0,0.229
6205.962,721.0,0.228
6242.148,724.0,0.226
6278.468,727.0,0.225
6314.612,730.0,0.224
6350.75,733.0,0.224
6386.864,736.0,0.223
6423.045,739.0,0.222
6459.393,742.0,0.221
6495.482,745.0,0.22
6531.762,748.0,0.219
6568.0,751.0,0.219
6604.169,754.0,0.218
6640.349,757.0,0.217
6676.54,760.0,0.217
6712.719,763.0,0.216
6748.94,766.0,0.215
6785.171,769.0,0.215
6821.163,772.0,0.214
6857.378,775.0,0.214
6893.516,778.0,0.213
6929.613,781.0,0.212
6965.732,784.0,0.212
7001.86,787.0,0.211
7037.976,790.0,0.211
7074.091,793.0,0.211
7110.304,796.0,0.21
7146.354,799.0,0.209
7182.391,802.0,0.209
7218.518,805.0,0.208
7254.648,808.0,0.208
7290.788,811.0,0.207
7326.772,814.0,0.207
7362.976,817.0,0.206
7399.235,820.0,0.206
7435.221,823.0,0.205
7471.378,826.0,0.205
7507.528,829.0,0.204
7543.571,832.0,0.204
7579.85,835.0,0.204
7616.059,838.0,0.203
7652.198,841.0,0.203
7688.172,844.0,0.202
7724.376,847.0,0.202
7760.455,850.0,0.201
7796.593,853.0,0.201
7832.632,856.0,0.2
7868.747,859.0,0.2
7905.021,862.0,0.2
7941.138,865.0,0.199
7977.121,868.0,0.199
8012.877,871.0,0.199
8048.924,874.0,0.198
8085.08,877.0,0.198
8121.291,880.0,0.198
8157.213,883.0,0.198
8193.561,886.0,0.197
8229.696,889.0,0.197
8266.0,892.0,0.196
8302.125,895.0,0.196
8338.353,898.0,0.196
8374.701,901.0,0.195
8410.782,904.0,0.195
8446.893,907.0,0.195
8483.167,910.0,0.195
8519.301,913.0,0.194
8555.456,916.0,0.194
8591.687,919.0,0.194
8627.852,922.0,0.194
8663.978,925.0,0.193
8700.091,928.0,0.193
8736.302,931.0,0.193
8772.376,934.0,0.193
8808.647,937.0,0.193
8844.721,940.0,0.192
8880.774,943.0,0.192
8917.036,946.0,0.192
8953.207,949.0,0.191
8989.393,952.0,0.191
9025.447,955.0,0.191
9061.583,958.0,0.191
9097.771,961.0,0.191
9133.903,964.0,0.19
9170.0,967.0,0.19
9206.118,970.0,0.19
9242.263,973.0,0.19
9278.465,976.0,0.19
9314.662,979.0,0.189
9350.987,982.0,0.189
9387.099,985.0,0.188
9423.396,988.0,0.188
9459.525,991.0,0.188
9495.675,994.0,0.188
9531.823,997.0,0.187
9567.911,1000.0,0.187
9604.025,1003.0,0.187
9640.046,1006.0,0.186
9676.16,1009.0,0.186
9712.208,1012.0,0.186
9748.271,1015.0,0.186
9784.275,1018.0,0.185
9820.247,1021.0,0.185
9856.395,1024.0,0.185
9892.494,1027.0,0.184
9928.519,1030.0,0.184
9964.586,1033.0,0.184
10000.506,1036.0,0.184
10036.55,1039.0,0.183
10072.607,1042.0,0.183
10108.608,1045.0,0.183
10144.591,1048.0,0.183
10180.593,1051.0,0.183
10216.524,1054.0,0.182
10252.57,1057.0,0.182
10288.571,1060.0,0.182
10324.977,1063.0,0.177
10360.634,1066.0,0.182
10396.441,1069.0,0.181
10450.0,1072.2,0.181
10510.0,1072.765,0.181
10570.0,1072.873,0.18
10630.0,1072.905,0.18
10690.0,1072.93,0.18
10740.0,1072.938,0.18

File: TUBS_Wood_TGA_N2_10K_R2.csv
Time (s),Temperature (K),Mass (mg)
0.0,304.896,1.03
41.0,304.728,1.024
112.0,304.591,1.018
289.0,304.412,1.012
660.0,304.352,1.008
1145.0,304.329,1.008
1227.951,307.0,1.008
1248.993,310.0,1.007
1268.993,313.0,1.007
1288.237,316.0,1.007
1306.911,319.0,1.006
1325.262,322.0,1.005
1343.392,325.0,1.005
1361.471,328.0,1.003
1379.36,331.0,1.003
1397.352,334.0,1.002
1415.261,337.0,1.001
1433.16,340.0,0.999
1450.967,343.0,0.999
1468.838,346.0,0.998
1486.706,349.0,0.998
1504.59,352.0,0.997
1522.415,355.0,0.997
1540.309,358.0,0.997
1558.07,361.0,0.996
1575.966,364.0,0.996
1593.866,367.0,0.996
1611.583,370.0,0.996
1629.365,373.0,0.996
1647.222,376.0,0.996
1665.012,379.0,0.996
1682.78,382.0,0.996
1700.607,385.0,0.996
1718.383,388.0,0.996
1736.133,391.0,0.996
1753.871,394.0,0.996
1771.659,397.0,0.996
1789.476,400.0,0.996
1807.205,403.0,0.996
1824.906,406.0,0.996
1842.64,409.0,0.995
1860.376,412.0,0.995
1878.16,415.0,0.995
1895.859,418.0,0.995
1913.597,421.0,0.995
1931.336,424.0,0.994
1949.051,427.0,0.994
1966.842,430.0,0.994
1984.568,433.0,0.993
2002.277,436.0,0.993
2020.068,439.0,0.992
2037.739,442.0,0.992
2055.399,445.0,0.991
2073.114,448.0,0.99
2090.862,451.0,0.989
2108.548,454.0,0.988
2126.295,457.0,0.988
2143.958,460.0,0.987
2161.609,463.0,0.986
2179.351,466.0,0.985
2197.097,469.0,0.984
2214.858,472.0,0.984
2232.627,475.0,0.983
2250.324,478.0,0.982
2268.045,481.0,0.981
2285.775,484.0,0.98
2303.561,487.0,0.979
2321.303,490.0,0.978
2339.013,493.0,0.977
2356.749,496.0,0.975
2374.509,499.0,0.974
2392.264,502.0,0.972
2410.098,505.0,0.97
2427.815,508.0,0.968
2445.615,511.0,0.966
2463.381,514.0,0.964
2481.212,517.0,0.961
2499.036,520.0,0.958
2516.785,523.0,0.955
2534.584,526.0,0.951
2552.448,529.0,0.948
2570.252,532.0,0.944
2588.119,535.0,0.939
2605.921,538.0,0.935
2623.729,541.0,0.929
2641.605,544.0,0.924
2659.467,547.0,0.919
2677.278,550.0,0.913
2695.156,553.0,0.907
2713.017,556.0,0.9
2730.859,559.0,0.893
2748.695,562.0,0.885
2766.637,565.0,0.877
2784.518,568.0,0.868
2802.385,571.0,0.859
2820.291,574.0,0.85
2838.152,577.0,0.839
2856.061,580.0,0.828
2873.988,583.0,0.815
2891.874,586.0,0.802
2909.793,589.0,0.789
2927.76,592.0,0.774
2945.618,595.0,0.759
2963.61,598.0,0.743
2981.497,601.0,0.727
2999.466,604.0,0.709
3017.429,607.0,0.691
3035.343,610.0,0.672
3053.315,613.0,0.653
3071.284,616.0,0.633
3089.206,619.0,0.613
3107.201,622.0,0.592
3125.165,625.0,0.57
3143.216,628.0,0.547
3161.171,631.0,0.523
3179.158,634.0,0.498
3197.172,637.0,0.471
3215.222,640.0,0.444
3233.17,643.0,0.415
3251.207,646.0,0.386
3269.188,649.0,0.356
3287.248,652.0,0.329
3305.295,655.0,0.303
3323.258,658.0,0.283
3341.297,661.0,0.267
3359.226,664.0,0.257
3377.256,667.0,0.251
3395.274,670.0,0.248
3413.366,673.0,0.245
3431.398,676.0,0.243
3449.442,679.0,0.241
3467.541,682.0,0.239
3485.57,685.0,0.236
3503.673,688.0,0.235
3521.789,691.0,0.233
3539.807,694.0,0.231
3557.903,697.0,0.229
3575.905,700.0,0.227
3594.024,703.0,0.225
3612.15,706.0,0.223
3630.243,709.0,0.222
3648.331,712.0,0.22
3666.438,715.0,0.218
3684.538,718.0,0.216
3702.649,721.0,0.215
3720.691,724.0,0.213
3738.866,727.0,0.212
3756.976,730.0,0.211
3775.108,733.0,0.209
3793.205,736.0,0.208
3811.376,739.0,0.207
3829.558,742.0,0.206
3847.688,745.0,0.205
3865.801,748.0,0.204
3883.965,751.0,0.203
3902.151,754.0,0.202
3920.267,757.0,0.201
3938.345,760.0,0.2
3956.482,763.0,0.199
3974.544,766.0,0.199
3992.676,769.0,0.198
4010.804,772.0,0.197
4028.957,775.0,0.196
4046.972,778.0,0.196
4065.048,781.0,0.195
4083.156,784.0,0.194
4101.256,787.0,0.194
4119.337,790.0,0.193
4137.415,793.0,0.193
4155.55,796.0,0.192
4173.614,799.0,0.191
4191.702,802.0,0.191
4209.774,805.0,0.19
4227.842,808.0,0.189
4245.952,811.0,0.189
4264.048,814.0,0.188
4282.16,817.0,0.188
4300.208,820.0,0.187
4318.276,823.0,0.187
4336.384,826.0,0.186
4354.382,829.0,0.186
4372.452,832.0,0.185
4390.478,835.0,0.185
4408.543,838.0,0.184
4426.638,841.0,0.184
4444.648,844.0,0.183
4462.727,847.0,0.183
4480.72,850.0,0.182
4498.772,853.0,0.182
4516.833,856.0,0.181
4534.914,859.0,0.181
4552.981,862.0,0.18
4571.067,865.0,0.18
4589.145,868.0,0.18
4607.196,871.0,0.18
4625.327,874.0,0.179
4643.4,877.0,0.179
4661.392,880.0,0.178
4679.482,883.0,0.177
4697.606,886.0,0.177
4715.671,889.0,0.177
4733.759,892.0,0.177
4751.841,895.0,0.176
4769.952,898.0,0.176
4788.056,901.0,0.176
4806.173,904.0,0.175
4824.301,907.0,0.175
4842.382,910.0,0.175
4860.472,913.0,0.175
4878.565,916.0,0.174
4896.647,919.0,0.174
4914.778,922.0,0.174
4932.837,925.0,0.173
4950.862,928.0,0.173
4969.0,931.0,0.173
4987.112,934.0,0.172
5005.186,937.0,0.172
5023.291,940.0,0.172
5041.424,943.0,0.171
5059.494,946.0,0.171
5077.645,949.0,0.171
5095.677,952.0,0.171
5113.787,955.0,0.171
5131.892,958.0,0.17
5149.982,961.0,0.17
5168.121,964.0,0.17
5186.158,967.0,0.17
5204.314,970.0,0.169
5222.416,973.0,0.169
5240.561,976.0,0.169
5258.656,979.0,0.169
5276.71,982.0,0.169
5294.803,985.0,0.169
5312.952,988.0,0.169
5331.019,991.0,0.168
5349.146,994.0,0.168
5367.16,997.0,0.168
5385.245,1000.0,0.168
5403.401,1003.0,0.167
5421.405,1006.0,0.167
5439.488,1009.0,0.167
5457.572,1012.0,0.167
5475.729,1015.0,0.166
5493.771,1018.0,0.166
5511.803,1021.0,0.166
5529.89,1024.0,0.166
5547.971,1027.0,0.166
5566.006,1030.0,0.166
5584.115,1033.0,0.165
5602.222,1036.0,0.165
5620.277,1039.0,0.165
5638.321,1042.0,0.165
5656.36,1045.0,0.164
5674.337,1048.0,0.164
5692.39,1051.0,0.164
5710.424,1054.0,0.164
5728.482,1057.0,0.164
5746.512,1060.0,0.163
5764.538,1063.0,0.163
5782.661,1066.0,0.163
5801.104,1069.0,0.163
5850.0,1071.866,0.162
5910.0,1072.427,0.162
5970.0,1072.551,0.161
6030.0,1072.622,0.16
6090.0,1072.661,0.16
6120.0,1072.678,0.16

File: TUBS_Wood_TGA_N2_20K_R1.csv
Time (s),Temperature (K),Mass (mg)
0.0,304.913,1.03
40.0,304.73,1.024
109.0,304.585,1.018
255.0,304.43,1.012
468.0,304.358,1.01
562.0,304.342,1.008
1208.615,305.5,1.004
1219.913,308.5,1.009
1230.03,311.5,1.007
1239.822,314.5,1.006
1249.436,317.5,1.006
1258.974,320.5,1.005
1268.376,323.5,1.005
1277.746,326.5,1.004
1287.006,329.5,1.004
1296.149,332.5,1.003
1305.351,335.5,1.002
1314.464,338.5,1.001
1323.549,341.5,1.0
1332.594,344.5,0.999
1341.669,347.5,0.999
1350.666,350.5,0.998
1359.683,353.5,0.997
1368.687,356.5,0.997
1377.65,359.5,0.996
1386.596,362.5,0.996
1395.591,365.5,0.995
1404.508,368.5,0.995
1413.427,371.5,0.995
1422.332,374.5,0.995
1431.261,377.5,0.995
1440.182,380.5,0.994
1449.069,383.5,0.994
1457.929,386.5,0.994
1466.808,389.5,0.994
1475.672,392.5,0.994
1484.529,395.5,0.994
1493.375,398.5,0.994
1502.188,401.5,0.994
1511.038,404.5,0.994
1519.874,407.5,0.994
1528.703,410.5,0.994
1537.545,413.5,0.994
1546.327,416.5,0.993
1555.143,419.5,0.993
1563.997,422.5,0.993
1572.764,425.5,0.993
1581.565,428.5,0.993
1590.385,431.5,0.993
1599.178,434.5,0.993
1608.006,437.5,0.992
1616.777,440.5,0.992
1625.562,443.5,0.992
1634.355,446.5,0.991
1643.173,449.5,0.99
1651.953,452.5,0.99
1660.733,455.5,0.989
1669.499,458.5,0.989
1678.288,461.5,0.988
1687.08,464.5,0.987
1695.837,467.5,0.986
1704.626,470.5,0.985
1713.426,473.5,0.984
1722.203,476.5,0.983
1730.957,479.5,0.982
1739.784,482.5,0.982
1748.551,485.5,0.981
1757.358,488.5,0.98
1766.13,491.5,0.979
1774.939,494.5,0.978
1783.74,497.5,0.977
1792.528,500.5,0.975
1801.353,503.5,0.974
1810.201,506.5,0.973
1819.018,509.5,0.971
1827.829,512.5,0.97
1836.689,515.5,0.968
1845.493,518.5,0.966
1854.32,521.5,0.964
1863.199,524.5,0.961
1872.035,527.5,0.959
1880.864,530.5,0.956
1889.731,533.5,0.953
1898.549,536.5,0.949
1907.412,539.5,0.946
1916.302,542.5,0.942
1925.159,545.5,0.937
1934.021,548.5,0.933
1942.898,551.5,0.928
1951.755,554.5,0.923
1960.692,557.5,0.918
1969.554,560.5,0.913
1978.449,563.5,0.907
1987.366,566.5,0.901
1996.258,569.5,0.894
2005.172,572.5,0.887
2014.077,575.5,0.88
2023.009,578.5,0.872
2031.918,581.5,0.863
2040.81,584.5,0.854
2049.73,587.5,0.844
2058.668,590.5,0.834
2067.616,593.5,0.822
2076.537,596.5,0.81
2085.491,599.5,0.798
2094.448,602.5,0.785
2103.389,605.5,0.771
2112.367,608.5,0.756
2121.321,611.5,0.74
2130.26,614.5,0.723
2139.258,617.5,0.707
2148.211,620.5,0.69
2157.212,623.5,0.672
2166.221,626.5,0.654
2175.165,629.5,0.635
2184.167,632.5,0.615
2193.147,635.5,0.595
2202.178,638.5,0.574
2211.208,641.5,0.552
2220.203,644.5,0.53
2229.23,647.5,0.506
2238.248,650.5,0.481
2247.277,653.5,0.454
2256.318,656.5,0.428
2265.36,659.5,0.4
2274.402,662.5,0.372
2283.455,665.5,0.345
2292.466,668.5,0.321
2301.508,671.5,0.3
2310.547,674.5,0.283
2319.553,677.5,0.272
2328.572,680.5,0.265
2337.618,683.5,0.261
2346.656,686.5,0.258
2355.695,689.5,0.256
2364.739,692.5,0.254
2373.778,695.5,0.252
2382.832,698.5,0.25
2391.883,701.5,0.248
2400.948,704.5,0.246
2409.994,707.5,0.244
2419.059,710.5,0.243
2428.119,713.5,0.241
2437.19,716.5,0.239
2446.264,719.5,0.238
2455.337,722.5,0.236
2464.429,725.5,0.234
2473.483,728.5,0.233
2482.574,731.5,0.231
2491.657,734.5,0.23
2500.726,737.5,0.228
2509.798,740.5,0.227
2518.893,743.5,0.226
2527.994,746.5,0.225
2537.075,749.5,0.224
2546.175,752.5,0.222
2555.258,755.5,0.221
2564.327,758.5,0.22
2573.413,761.5,0.219
2582.526,764.5,0.218
2591.574,767.5,0.218
2600.679,770.5,0.217
2609.755,773.5,0.216
2618.847,776.5,0.215
2627.919,779.5,0.214
2636.994,782.5,0.214
2646.064,785.5,0.213
2655.14,788.5,0.212
2664.196,791.5,0.212
2673.256,794.5,0.211
2682.35,797.5,0.21
2691.403,800.5,0.21
2700.461,803.5,0.209
2709.517,806.5,0.208
2718.57,809.5,0.208
2727.638,812.5,0.207
2736.684,815.5,0.207
2745.754,818.5,0.206
2754.793,821.5,0.205
2763.845,824.5,0.205
2772.913,827.5,0.204
2781.976,830.5,0.204
2791.039,833.5,0.204
2800.122,836.5,0.203
2809.154,839.5,0.202
2818.201,842.5,0.202
2827.279,845.5,0.201
2836.319,848.5,0.201
2845.386,851.5,0.2
2854.438,854.5,0.2
2863.503,857.5,0.199
2872.545,860.5,0.199
2881.597,863.5,0.199
2890.641,866.5,0.198
2899.722,869.5,0.198
2908.73,872.5,0.197
2917.791,875.5,0.197
2926.834,878.5,0.196
2935.864,881.5,0.196
2944.917,884.5,0.196
2953.962,887.5,0.195
2963.021,890.5,0.195
2972.083,893.5,0.194
2981.122,896.5,0.194
2990.154,899.5,0.194
2999.204,902.5,0.193
3008.217,905.5,0.193
3017.261,908.5,0.193
3026.302,911.5,0.192
3035.361,914.5,0.192
3044.408,917.5,0.192
3053.434,920.5,0.191
3062.465,923.5,0.191
3071.514,926.5,0.191
3080.548,929.5,0.19
3089.585,932.5,0.19
3098.605,935.5,0.19
3107.658,938.5,0.189
3116.66,941.5,0.189
3125.713,944.5,0.189
3134.751,947.5,0.189
3143.792,950.5,0.188
3152.839,953.5,0.188
3161.906,956.5,0.188
3170.961,959.5,0.188
3180.006,962.5,0.187
3189.059,965.5,0.187
3198.106,968.5,0.187
3207.139,971.5,0.187
3216.166,974.5,0.186
3225.205,977.5,0.186
3234.224,980.5,0.186
3243.276,983.5,0.185
3252.306,986.5,0.186
3261.373,989.5,0.185
3270.382,992.5,0.185
3279.433,995.5,0.185
3288.466,998.5,0.185
3297.5,1001.5,0.184
3306.584,1004.5,0.184
3315.615,1007.5,0.184
3324.634,1010.5,0.184
3333.642,1013.5,0.183
3342.667,1016.5,0.183
3351.701,1019.5,0.183
3360.727,1022.5,0.182
3369.769,1025.5,0.182
3378.804,1028.5,0.182
3387.806,1031.5,0.182
3396.86,1034.5,0.181
3405.843,1037.5,0.181
3414.892,1040.5,0.181
3423.895,1043.5,0.181
3432.913,1046.5,0.181
3441.961,1049.5,0.18
3450.954,1052.5,0.18
3459.982,1055.5,0.18
3469.003,1058.5,0.18
3478.041,1061.5,0.179
3487.056,1064.5,0.179
3500.089,1067.5,0.179
3550.0,1071.514,0.178
3610.0,1072.31,0.177
3670.0,1072.541,0.176
3730.0,1072.649,0.176
3790.0,1072.713,0.175
3810.0,1072.728,0.175