Folder: matl-db/Wood/Calibration_Data/TUBS

Note: Wood/Calibration_Data/TUBS/README.md
# Technische Universit√§t Braunschweig (TUBS)

### Experimental Conditions: TGA/DSC
A Mettler Toledo TGA/DSC3+ was used to simultaneously conduct Thermogravimetric Analysis (TGA) and Differential Scanning Calorimetry (DSC) experiments. 

* Heating Rates: 5, 10, 20, 30, 40, 50 K/min
* Temperature program
  - Initial Temperature: 304 K
  - Initial Isotherm: 1200 s (hold at 304 K for 1200 s)  
  - Maximum Temperature: 1074 K
  - Final Isotherm: 300 s (hold 1074 K for 300 s)
* Sample mass: 1 mg +/- 0.09 mg
* Sample geometry: Powdered
* Calibration type: Results are baselinde-corrected. Temperature and heat flow calibration were performed before the experimental campaign with aluminum, indium and zinc.
* Crucible
  - Type: alumina
  - Volume: 70 uL
  - Diameter: 6 mm
  - Mass: 158-182 mg
  - Lid: No lid.
* Carrier Gas
  - Type: Nitrogen
  - Flow rate: 100 ml/min
  - Note: Ultra High Purity (UHP) Nitrogen
* Instrument
  - Type: Mettler Toledo TGA/DSC3+
  - Sensor: TGA DTA platinum-rhodium

| Test Name | O2 volume % |  Initial Sample Mass (mg) | 
| --------- | :---------: | :------------------------: |
|TUBS\_TGA\_N2\_5K\_R1 | 0 | 0.94|
|TUBS\_TGA\_N2\_5K\_R2 | 0 | 0.99| 
|TUBS\_TGA\_N2\_5K\_R3 | 0 | 0.98| 
|TUBS\_TGA\_N2\_10K\_R1 | 0 | 1.03| 
|TUBS\_TGA\_N2\_10K\_R2 | 0 | 1.02| 
|TUBS\_TGA\_N2\_10K\_R3 | 0 | 0.98|
|TUBS\_TGA\_N2\_20K\_R1 | 0 | 1.09| 
|TUBS\_TGA\_N2\_20K\_R2 | 0 | 1.01| 
|TUBS\_TGA\_N2\_20K\_R3 | 0 | 0.98|
|TUBS\_TGA\_N2\_30K\_R1 | 0 | 0.93| 
|TUBS\_TGA\_N2\_30K\_R2 | 0 | 1.04| 
|TUBS\_TGA\_N2\_30K\_R3 | 0 | 1.02|
|TUBS\_TGA\_N2\_40K\_R1 | 0 | 0.92| 
|TUBS\_TGA\_N2\_40K\_R2 | 0 | 0.94| 
|TUBS\_TGA\_N2\_40K\_R3 | 0 | 0.95|
|TUBS\_TGA\_N2\_50K\_R1 | 0 | 1.02| 
|TUBS\_TGA\_N2\_50K\_R2 | 0 | 1.00| 
|TUBS\_TGA\_N2\_50K\_R3 | 0 | 1.03|

File: TUBS_Cone_30kW_hor_R2.csv
Time (s),Mass (g),HRR (kW/m2)
0.0,85.97,0.9
10.0,85.83,0.0
20.0,85.73,0.0
30.0,85.35,8.5
40.0,84.2,155.0
50.0,83.37,145.9
60.0,82.75,100.0
70.0,82.2,84.5
80.0,81.65,73.6
90.0,81.15,69.9
100.0,80.64,68.1
110.0,80.15,63.0
120.0,79.7,63.7
130.0,79.27,61.0
140.0,78.8,62.2
150.0,78.37,59.2
160.0,77.95,56.1
170.0,77.54,59.4
180.0,77.09,57.2
190.0,76.7,54.1
200.0,76.26,50.9
210.0,75.86,54.2
220.0,75.44,52.9
230.0,75.0,55.5
240.0,74.56,56.6
250.0,74.15,56.4
260.0,73.74,51.5
270.0,73.28,52.5
280.0,72.85,58.9
290.0,72.37,59.3
300.0,71.94,56.0
310.0,71.52,55.9
320.0,71.07,58.4
330.0,70.61,54.8
340.0,70.2,57.5
350.0,69.74,57.7
360.0,69.3,57.4
370.0,68.88,56.8
380.0,68.44,59.0
390.0,67.97,55.8
400.0,67.57,56.7
410.0,67.12,56.9
420.0,66.67,54.7
430.0,66.25,55.5
440.0,65.81,55.8
450.0,65.35,57.9
460.0,64.94,59.3
470.0,64.5,54.5
480.0,64.04,54.5
490.0,63.63,56.1
500.0,63.19,55.0
510.0,62.73,58.5
520.0,62.33,54.3
530.0,61.88,57.6
540.0,61.43,52.7
550.0,61.01,58.5
560.0,60.57,55.1
570.0,60.14,54.9
580.0,59.7,55.5
590.0,59.24,55.9
600.0,58.84,56.8
610.0,58.39,56.4
620.0,57.97,54.9
630.0,57.52,53.4
640.0,57.08,56.6
650.0,56.64,51.4
660.0,56.23,54.9
670.0,55.78,54.3
680.0,55.38,56.1
690.0,54.93,48.6
700.0,54.51,52.2
710.0,54.11,52.5
720.0,53.66,51.7
730.0,53.24,49.0
740.0,52.85,53.4
750.0,52.43,52.6
760.0,52.04,46.7
770.0,51.63,51.6
780.0,51.24,51.4
790.0,50.83,50.7
800.0,50.41,49.2
810.0,50.01,48.2
820.0,49.59,50.2
830.0,49.21,47.2
840.0,48.8,49.7
850.0,48.37,50.4
860.0,48.02,47.4
870.0,47.62,49.9
880.0,47.21,47.4
890.0,46.81,50.5
900.0,46.43,48.0
910.0,46.01,48.4
920.0,45.66,47.3
930.0,45.24,50.2
940.0,44.87,46.5
950.0,44.48,48.6
960.0,44.1,49.9
970.0,43.69,50.1
980.0,43.34,49.5
990.0,42.91,48.8
1000.0,42.54,48.6
1010.0,42.14,48.4
1020.0,41.77,52.3
1030.0,41.34,50.4
1040.0,41.0,46.6
1050.0,40.57,49.1
1060.0,40.19,53.1
1070.0,39.79,51.3
1080.0,39.4,48.8
1090.0,38.98,51.9
1100.0,38.59,54.4
1110.0,38.18,54.8
1120.0,37.76,51.4
1130.0,37.35,53.4
1140.0,36.92,51.4
1150.0,36.48,51.4
1160.0,36.07,54.2
1170.0,35.65,56.4
1180.0,35.16,55.5
1190.0,34.75,51.8
1200.0,34.31,57.2
1210.0,33.86,57.3
1220.0,33.38,58.4
1230.0,32.94,57.6
1240.0,32.46,62.2
1250.0,31.99,60.9
1260.0,31.52,60.0
1270.0,31.02,61.9
1280.0,30.53,63.7
1290.0,30.03,64.5
1300.0,29.53,63.5
1310.0,28.97,63.5
1320.0,28.48,69.1
1330.0,27.95,67.6
1340.0,27.41,66.1
1350.0,26.9,66.7
1360.0,26.38,68.6
1370.0,25.86,67.6
1380.0,25.35,67.6
1390.0,24.82,68.9
1400.0,24.29,67.6
1410.0,23.78,68.8
1420.0,23.27,68.6
1430.0,22.74,66.3
1440.0,22.24,65.2
1450.0,21.74,64.8
1460.0,21.27,61.8
1470.0,20.86,58.7
1480.0,20.4,59.6
1490.0,19.98,57.6
1500.0,19.61,54.7
1510.0,19.25,50.1
1520.0,18.89,48.2
1530.0,18.59,42.7
1540.0,18.3,44.5
1550.0,18.01,41.3
1560.0,17.77,40.9
1570.0,17.52,38.7
1580.0,17.26,38.3
1590.0,17.04,35.4
1600.0,16.82,35.0
1610.0,16.61,35.2
1620.0,16.43,33.0
1630.0,16.25,31.7
1640.0,16.05,29.0
1650.0,15.86,26.8
1660.0,15.69,26.1
1670.0,15.52,24.6
1680.0,15.36,27.2
1690.0,15.19,24.6
1700.0,15.03,23.9
1710.0,14.87,23.5
1720.0,14.72,21.5
1730.0,14.56,20.5
1740.0,14.45,20.7
1750.0,14.29,20.7
1760.0,14.16,19.6
1770.0,14.02,17.4
1780.0,13.9,16.3
1790.0,13.76,16.0
1800.0,13.63,18.0
1810.0,13.54,15.5
1820.0,13.4,14.3
1830.0,13.29,16.6
1840.0,13.18,15.5
1850.0,13.04,15.8
1860.0,12.94,14.6
1870.0,12.86,15.8
1880.0,12.75,12.3
1890.0,12.65,13.1
1900.0,12.53,12.8
1910.0,12.43,13.4
1920.0,12.34,14.1
1930.0,12.25,14.5
1940.0,12.14,10.9
1950.0,12.05,10.0
1960.0,11.96,13.4
1970.0,11.87,12.9
1980.0,11.79,13.5
1990.0,11.69,11.3
2000.0,11.6,12.2
2010.0,11.51,9.4
2020.0,11.42,13.5
2030.0,11.34,10.9
2040.0,11.25,10.4
2050.0,11.17,11.8
2060.0,11.09,9.4
2070.0,11.0,12.7
2080.0,10.92,9.7
2090.0,10.85,6.0
2100.0,10.78,10.9
2110.0,10.7,9.4
2120.0,10.62,10.6
2130.0,10.54,8.3
2140.0,10.47,7.7
2150.0,10.4,10.2
2160.0,10.32,8.4
2170.0,10.24,9.1
2180.0,10.16,8.9
2190.0,10.09,10.6
2200.0,10.02,9.2
2210.0,9.93,8.5
2220.0,9.87,8.6
2230.0,9.79,7.8
2240.0,9.72,9.8
2250.0,9.64,10.0
2260.0,9.58,7.4
2270.0,9.51,7.9
2280.0,9.44,5.0
2290.0,9.37,7.2
2300.0,9.3,7.5
2310.0,9.23,6.1
2320.0,9.15,7.6
2330.0,9.08,6.1
2340.0,9.02,7.4
2350.0,8.96,9.8
2360.0,8.88,7.0
2370.0,8.81,3.8
2380.0,8.74,6.6
2390.0,8.67,9.2
2400.0,8.6,8.3
2410.0,8.53,7.6
2420.0,8.46,6.6
2430.0,8.41,6.6
2440.0,8.34,8.5
2450.0,8.26,4.6
2460.0,8.19,10.0
2470.0,8.14,7.1
2480.0,8.07,8.8
2490.0,8.0,6.6
2500.0,7.94,6.8
2510.0,7.87,3.6
2520.0,7.8,5.8
2530.0,7.73,3.7
2540.0,7.68,5.4
2550.0,7.61,3.6
2560.0,7.54,5.5
2570.0,7.49,8.4
2580.0,7.43,5.3
2590.0,7.37,6.8
2600.0,7.29,7.7
2610.0,7.23,7.5
2620.0,7.16,7.1
2630.0,7.09,7.2
2640.0,7.04,3.5
2650.0,6.98,3.5
2660.0,6.91,4.5
2670.0,6.84,5.9
2680.0,6.76,4.1
2690.0,6.71,4.0
2700.0,6.66,3.1

File: TUBS_TGA_N2_5K_R1.csv
Time (s),Temperature (K),Mass (mg)
0.0,304.008,0.94
9.0,305.057,0.939
18.0,304.987,0.939
27.0,304.953,0.937
36.0,304.897,0.937
45.0,304.862,0.936
54.0,304.833,0.935
63.0,304.825,0.935
72.0,304.794,0.934
81.0,304.782,0.934
90.0,304.752,0.933
99.0,304.744,0.933
108.0,304.711,0.933
117.0,304.702,0.932
126.0,304.69,0.932
135.0,304.683,0.931
144.0,304.674,0.931
153.0,304.666,0.931
162.0,304.658,0.931
171.0,304.643,0.931
180.0,304.613,0.93
189.0,304.603,0.93
198.0,304.595,0.929
207.0,304.6,0.93
216.0,304.569,0.929
225.0,304.566,0.929
234.0,304.57,0.929
243.0,304.555,0.929
252.0,304.558,0.929
261.0,304.54,0.929
270.0,304.532,0.929
279.0,304.557,0.928
288.0,304.537,0.928
297.0,304.532,0.928
306.0,304.529,0.928
315.0,304.535,0.928
324.0,304.519,0.928
333.0,304.513,0.928
342.0,304.508,0.928
351.0,304.505,0.927
360.0,304.483,0.927
369.0,304.491,0.927
378.0,304.491,0.927
387.0,304.49,0.927
396.0,304.487,0.927
405.0,304.491,0.927
414.0,304.468,0.927
423.0,304.484,0.927
432.0,304.486,0.927
441.0,304.488,0.927
450.0,304.494,0.927
459.0,304.482,0.927
468.0,304.479,0.927
477.0,304.482,0.927
486.0,304.472,0.927
495.0,304.475,0.927
504.0,304.47,0.927
513.0,304.478,0.927
522.0,304.465,0.927
531.0,304.473,0.926
540.0,304.467,0.926
549.0,304.47,0.926
558.0,304.474,0.926
567.0,304.482,0.926
576.0,304.468,0.926
585.0,304.472,0.926
594.0,304.453,0.926
603.0,304.461,0.926
612.0,304.468,0.926
621.0,304.461,0.926
630.0,304.448,0.926
639.0,304.456,0.926
648.0,304.463,0.926
657.0,304.457,0.926
666.0,304.478,0.926
675.0,304.47,0.926
684.0,304.463,0.926
693.0,304.468,0.926
702.0,304.486,0.926
711.0,304.473,0.926
720.0,304.483,0.926
729.0,304.478,0.926
738.0,304.476,0.926
747.0,304.466,0.926
756.0,304.458,0.926
765.0,304.464,0.926
774.0,304.475,0.926
783.0,304.465,0.926
792.0,304.476,0.926
801.0,304.475,0.926
810.0,304.467,0.926
819.0,304.47,0.926
828.0,304.478,0.926
837.0,304.469,0.926
846.0,304.464,0.926
855.0,304.472,0.926
864.0,304.458,0.926
873.0,304.47,0.926
882.0,304.474,0.926
891.0,304.48,0.926
900.0,304.47,0.926
909.0,304.473,0.926
918.0,304.48,0.926
927.0,304.462,0.926
936.0,304.467,0.926
945.0,304.478,0.926
954.0,304.461,0.926
963.0,304.463,0.926
972.0,304.46,0.926
981.0,304.475,0.926
990.0,304.48,0.926
999.0,304.47,0.926
1008.0,304.472,0.926
1017.0,304.464,0.926
1026.0,304.478,0.925
1035.0,304.48,0.925
1044.0,304.464,0.925
1053.0,304.463,0.925
1062.0,304.472,0.925
1071.0,304.461,0.926
1080.0,304.477,0.925
1089.0,304.474,0.926
1098.0,304.462,0.926
1107.0,304.457,0.926
1116.0,304.479,0.926
1125.0,304.467,0.925
1134.0,304.464,0.925
1143.0,304.474,0.926
1152.0,304.469,0.926
1161.0,304.473,0.926
1170.0,304.471,0.926
1179.0,304.479,0.926
1188.0,304.466,0.925
1197.0,304.477,0.926
1206.0,305.961,0.923
1215.0,310.26,0.927
1224.0,315.99,0.929
1233.0,321.905,0.927
1242.0,327.825,0.926
1251.0,333.775,0.925
1260.0,339.713,0.924
1269.0,345.661,0.923
1278.0,351.615,0.921
1287.0,357.554,0.92
1296.0,363.516,0.919
1305.0,369.482,0.918
1314.0,375.452,0.918
1323.0,381.426,0.918
1332.0,387.405,0.917
1341.0,393.426,0.917
1350.0,399.46,0.917
1359.0,405.473,0.917
1368.0,411.53,0.917
1377.0,417.596,0.917
1386.0,423.663,0.917
1395.0,429.744,0.917
1404.0,435.851,0.916
1413.0,441.955,0.916
1422.0,448.081,0.915
1431.0,454.203,0.915
1440.0,460.352,0.914
1449.0,466.499,0.913
1458.0,472.657,0.911
1467.0,478.818,0.909
1476.0,484.989,0.907
1485.0,491.163,0.905
1494.0,497.33,0.903
1503.0,503.511,0.9
1512.0,509.681,0.897
1521.0,515.847,0.893
1530.0,522.003,0.889
1539.0,528.182,0.884
1548.0,534.321,0.878
1557.0,540.478,0.872
1566.0,546.626,0.864
1575.0,552.763,0.855
1584.0,558.9,0.846
1593.0,565.027,0.836
1602.0,571.153,0.825
1611.0,577.283,0.813
1620.0,583.447,0.799
1629.0,589.577,0.782
1638.0,595.67,0.764
1647.0,601.77,0.745
1656.0,607.846,0.723
1665.0,613.911,0.7
1674.0,619.959,0.674
1683.0,625.994,0.646
1692.0,632.007,0.616
1701.0,638.028,0.585
1710.0,644.033,0.551
1719.0,650.024,0.516
1728.0,656.012,0.479
1737.0,661.981,0.438
1746.0,667.95,0.394
1755.0,673.916,0.346
1764.0,679.864,0.298
1773.0,685.833,0.255
1782.0,691.795,0.225
1791.0,697.759,0.209
1800.0,703.72,0.203
1809.0,709.668,0.198
1818.0,715.612,0.195
1827.0,721.561,0.191
1836.0,727.495,0.188
1845.0,733.437,0.185
1854.0,739.365,0.182
1863.0,745.279,0.179
1872.0,751.213,0.176
1881.0,757.126,0.173
1890.0,763.046,0.17
1899.0,768.956,0.168
1908.0,774.866,0.166
1917.0,780.77,0.164
1926.0,786.687,0.163
1935.0,792.609,0.161
1944.0,798.523,0.159
1953.0,804.445,0.158
1962.0,810.365,0.157
1971.0,816.288,0.156
1980.0,822.209,0.155
1989.0,828.138,0.154
1998.0,834.066,0.153
2007.0,839.996,0.152
2016.0,845.936,0.151
2025.0,851.869,0.15
2034.0,857.806,0.149
2043.0,863.743,0.148
2052.0,869.676,0.147
2061.0,875.631,0.146
2070.0,881.574,0.146
2079.0,887.522,0.145
2088.0,893.475,0.144
2097.0,899.433,0.143
2106.0,905.389,0.143
2115.0,911.352,0.142
2124.0,917.3,0.142
2133.0,923.267,0.141
2142.0,929.236,0.14
2151.0,935.197,0.14
2160.0,941.171,0.139
2169.0,947.137,0.139
2178.0,953.113,0.138
2187.0,959.089,0.137
2196.0,965.049,0.137
2205.0,971.015,0.136
2214.0,976.991,0.136
2223.0,982.953,0.136
2232.0,988.921,0.135
2241.0,994.897,0.135
2250.0,1000.859,0.134
2259.0,1006.828,0.134
2268.0,1012.802,0.134
2277.0,1018.775,0.133
2286.0,1024.751,0.133
2295.0,1030.725,0.132
2304.0,1036.698,0.132
2313.0,1042.676,0.132
2322.0,1048.666,0.131
2331.0,1054.639,0.131
2340.0,1059.311,0.13
2349.0,1062.709,0.13
2358.0,1065.095,0.13
2367.0,1066.79,0.129
2376.0,1068.0,0.129
2385.0,1068.877,0.129
2394.0,1069.529,0.129
2403.0,1070.009,0.129
2412.0,1070.376,0.128
2421.0,1070.656,0.128
2430.0,1070.875,0.128
2439.0,1071.063,0.128
2448.0,1071.213,0.128
2457.0,1071.325,0.128
2466.0,1071.432,0.128
2475.0,1071.522,0.127
2484.0,1071.597,0.127
2493.0,1071.669,0.127
2502.0,1071.729,0.127
2511.0,1071.797,0.127
2520.0,1071.842,0.127
2529.0,1071.879,0.127
2538.0,1071.927,0.127
2547.0,1071.968,0.127
2556.0,1071.998,0.126
2565.0,1072.033,0.126
2574.0,1072.056,0.126
2583.0,1072.08,0.126
2592.0,1072.106,0.126
2601.0,1072.124,0.126
2610.0,1072.141,0.126
2619.0,1072.166,0.126
2628.0,1072.172,0.126
2637.0,1072.198,0.126
2646.0,1072.212,0.126
2655.0,1072.224,0.126

File: TUBS_TGA_N2_5K_R2.csv
Time (s),Temperature (K),Mass (mg)
0.0,305.128,0.99
9.0,305.074,0.989
18.0,305.027,0.988
27.0,304.975,0.987
36.0,304.941,0.986
45.0,304.914,0.985
54.0,304.893,0.985
63.0,304.87,0.984
72.0,304.822,0.984
81.0,304.815,0.983
90.0,304.801,0.983
99.0,304.784,0.982
108.0,304.772,0.982
117.0,304.756,0.981
126.0,304.747,0.981
135.0,304.703,0.98
144.0,304.698,0.98
153.0,304.688,0.98
162.0,304.676,0.98
171.0,304.657,0.98
180.0,304.662,0.979
189.0,304.646,0.979
198.0,304.623,0.979
207.0,304.613,0.979
216.0,304.603,0.978
225.0,304.594,0.978
234.0,304.602,0.978
243.0,304.579,0.978
252.0,304.591,0.978
261.0,304.564,0.977
270.0,304.568,0.977
279.0,304.565,0.977
288.0,304.551,0.977
297.0,304.546,0.977
306.0,304.542,0.977
315.0,304.546,0.977
324.0,304.534,0.977
333.0,304.533,0.977
342.0,304.537,0.976
351.0,304.51,0.976
360.0,304.54,0.976
369.0,304.525,0.976
378.0,304.522,0.976
387.0,304.522,0.976
396.0,304.519,0.975
405.0,304.522,0.975
414.0,304.509,0.975
423.0,304.522,0.975
432.0,304.511,0.975
441.0,304.512,0.975
450.0,304.497,0.975
459.0,304.515,0.975
468.0,304.508,0.975
477.0,304.51,0.975
486.0,304.505,0.975
495.0,304.487,0.975
504.0,304.499,0.975
513.0,304.499,0.975
522.0,304.503,0.975
531.0,304.488,0.975
540.0,304.5,0.975
549.0,304.486,0.974
558.0,304.484,0.974
567.0,304.499,0.974
576.0,304.489,0.974
585.0,304.513,0.974
594.0,304.508,0.974
603.0,304.494,0.974
612.0,304.499,0.974
621.0,304.489,0.974
630.0,304.49,0.974
639.0,304.484,0.974
648.0,304.49,0.974
657.0,304.482,0.974
666.0,304.483,0.973
675.0,304.48,0.974
684.0,304.5,0.974
693.0,304.481,0.974
702.0,304.487,0.973
711.0,304.472,0.973
720.0,304.483,0.973
729.0,304.478,0.973
738.0,304.475,0.973
747.0,304.456,0.973
756.0,304.471,0.973
765.0,304.462,0.973
774.0,304.47,0.973
783.0,304.469,0.973
792.0,304.466,0.973
801.0,304.467,0.973
810.0,304.487,0.973
819.0,304.475,0.973
828.0,304.467,0.973
837.0,304.472,0.973
846.0,304.464,0.973
855.0,304.464,0.973
864.0,304.483,0.973
873.0,304.462,0.973
882.0,304.472,0.973
891.0,304.477,0.973
900.0,304.466,0.973
909.0,304.473,0.973
918.0,304.475,0.973
927.0,304.472,0.973
936.0,304.485,0.973
945.0,304.48,0.973
954.0,304.465,0.973
963.0,304.471,0.973
972.0,304.478,0.973
981.0,304.473,0.973
990.0,304.473,0.973
999.0,304.474,0.973
1008.0,304.468,0.973
1017.0,304.489,0.973
1026.0,304.487,0.973
1035.0,304.491,0.973
1044.0,304.473,0.973
1053.0,304.477,0.973
1062.0,304.474,0.973
1071.0,304.499,0.973
1080.0,304.496,0.972
1089.0,304.458,0.972
1098.0,304.483,0.973
1107.0,304.475,0.973
1116.0,304.491,0.973
1125.0,304.489,0.973
1134.0,304.475,0.973
1143.0,304.477,0.973
1152.0,304.483,0.973
1161.0,304.47,0.973
1170.0,304.477,0.973
1179.0,304.48,0.973
1188.0,304.487,0.973
1197.0,304.49,0.973
1206.0,305.941,0.97
1215.0,310.629,0.974
1224.0,316.445,0.975
1233.0,322.388,0.973
1242.0,328.343,0.972
1251.0,334.298,0.971
1260.0,340.228,0.97
1269.0,346.175,0.969
1278.0,352.118,0.967
1287.0,358.068,0.966
1296.0,364.026,0.965
1305.0,370.015,0.964
1314.0,375.983,0.963
1323.0,381.963,0.963
1332.0,387.968,0.962
1341.0,393.968,0.962
1350.0,400.0,0.962
1359.0,406.044,0.962
1368.0,412.1,0.962
1377.0,418.146,0.962
1386.0,424.224,0.961
1395.0,430.302,0.961
1404.0,436.402,0.961
1413.0,442.522,0.96
1422.0,448.64,0.96
1431.0,454.78,0.959
1440.0,460.907,0.958
1449.0,467.068,0.957
1458.0,473.212,0.955
1467.0,479.366,0.953
1476.0,485.533,0.951
1485.0,491.704,0.949
1494.0,497.858,0.946
1503.0,504.025,0.943
1512.0,510.201,0.94
1521.0,516.346,0.936
1530.0,522.504,0.931
1539.0,528.648,0.926
1548.0,534.801,0.92
1557.0,540.944,0.913
1566.0,547.089,0.905
1575.0,553.213,0.895
1584.0,559.341,0.886
1593.0,565.464,0.875
1602.0,571.575,0.863
1611.0,577.686,0.851
1620.0,583.778,0.838
1629.0,589.867,0.823
1638.0,595.94,0.806
1647.0,602.01,0.787
1656.0,608.065,0.766
1665.0,614.109,0.743
1674.0,620.147,0.717
1683.0,626.176,0.688
1692.0,632.196,0.657
1701.0,638.207,0.625
1710.0,644.203,0.59
1719.0,650.198,0.553
1728.0,656.168,0.514
1737.0,662.13,0.471
1746.0,668.077,0.423
1755.0,674.029,0.373
1764.0,679.966,0.322
1773.0,685.93,0.278
1782.0,691.889,0.247
1791.0,697.849,0.232
1800.0,703.788,0.225
1809.0,709.731,0.221
1818.0,715.674,0.217
1827.0,721.61,0.213
1836.0,727.531,0.21
1845.0,733.461,0.207
1854.0,739.392,0.203
1863.0,745.304,0.2
1872.0,751.245,0.198
1881.0,757.149,0.195
1890.0,763.083,0.193
1899.0,768.996,0.191
1908.0,774.927,0.188
1917.0,780.851,0.187
1926.0,786.787,0.185
1935.0,792.711,0.184
1944.0,798.64,0.182
1953.0,804.583,0.181
1962.0,810.505,0.18
1971.0,816.436,0.178
1980.0,822.375,0.177
1989.0,828.308,0.176
1998.0,834.256,0.175
2007.0,840.194,0.174
2016.0,846.129,0.173
2025.0,852.076,0.172
2034.0,858.01,0.171
2043.0,863.962,0.17
2052.0,869.911,0.169
2061.0,875.855,0.168
2070.0,881.814,0.167
2079.0,887.764,0.166
2088.0,893.721,0.166
2097.0,899.676,0.165
2106.0,905.631,0.165
2115.0,911.6,0.163
2124.0,917.554,0.163
2133.0,923.525,0.162
2142.0,929.488,0.161
2151.0,935.455,0.161
2160.0,941.421,0.16
2169.0,947.39,0.16
2178.0,953.346,0.159
2187.0,959.321,0.159
2196.0,965.272,0.158
2205.0,971.241,0.158
2214.0,977.215,0.157
2223.0,983.175,0.157
2232.0,989.137,0.156
2241.0,995.111,0.156
2250.0,1001.077,0.156
2259.0,1007.048,0.155
2268.0,1013.02,0.155
2277.0,1018.994,0.154
2286.0,1024.979,0.154
2295.0,1030.959,0.154
2304.0,1036.955,0.153
2313.0,1042.926,0.153
2322.0,1048.92,0.152
2331.0,1054.921,0.152
2340.0,1059.59,0.152
2349.0,1062.954,0.151
2358.0,1065.295,0.151
2367.0,1066.962,0.151
2376.0,1068.135,0.15
2385.0,1068.983,0.15
2394.0,1069.616,0.15
2403.0,1070.073,0.15
2412.0,1070.429,0.15
2421.0,1070.687,0.15
2430.0,1070.902,0.15
2439.0,1071.075,0.149
2448.0,1071.212,0.149
2457.0,1071.323,0.149
2466.0,1071.415,0.149
2475.0,1071.499,0.149
2484.0,1071.577,0.149
2493.0,1071.638,0.149
2502.0,1071.692,0.149
2511.0,1071.738,0.148
2520.0,1071.78,0.148
2529.0,1071.811,0.148
2538.0,1071.845,0.148
2547.0,1071.879,0.148
2556.0,1071.912,0.148
2565.0,1071.933,0.147
2574.0,1071.967,0.147
2583.0,1071.974,0.147
2592.0,1071.999,0.147
2601.0,1072.023,0.147
2610.0,1072.04,0.147
2619.0,1072.043,0.147
2628.0,1072.071,0.147
2637.0,1072.078,0.147
2646.0,1072.087,0.147
2655.0,1072.096,0.147

File: TUBS_TGA_N2_5K_R3.csv
Time (s),Temperature (K),Mass (mg)
0.0,304.917,0.95
45.0,304.741,0.944
141.0,304.546,0.938
480.0,304.374,0.932
983.0,304.354,0.93
1236.123,306.0,0.931
1278.011,309.0,0.93
1315.577,312.0,0.93
1352.111,315.0,0.929
1387.737,318.0,0.931
1423.5,321.0,0.93
1459.795,324.0,0.929
1495.826,327.0,0.928
1531.822,330.0,0.928
1567.903,333.0,0.927
1603.953,336.0,0.926
1639.908,339.0,0.925
1675.899,342.0,0.925
1711.976,345.0,0.924
1748.022,348.0,0.924
1783.812,351.0,0.924
1820.048,354.0,0.924
1856.0,357.0,0.924
1891.805,360.0,0.924
1927.634,363.0,0.924
1963.756,366.0,0.923
1999.533,369.0,0.923
2035.608,372.0,0.923
2071.313,375.0,0.923
2107.186,378.0,0.923
2143.0,381.0,0.923
2178.988,384.0,0.923
2214.813,387.0,0.923
2250.561,390.0,0.923
2286.119,393.0,0.923
2321.949,396.0,0.923
2357.69,399.0,0.923
2393.649,402.0,0.923
2429.229,405.0,0.923
2465.038,408.0,0.922
2500.763,411.0,0.922
2536.493,414.0,0.922
2572.179,417.0,0.922
2607.88,420.0,0.921
2643.459,423.0,0.921
2679.346,426.0,0.921
2714.951,429.0,0.92
2750.622,432.0,0.919
2786.231,435.0,0.919
2821.969,438.0,0.919
2857.635,441.0,0.918
2893.388,444.0,0.918
2928.955,447.0,0.917
2964.552,450.0,0.916
3000.086,453.0,0.916
3035.732,456.0,0.916
3071.513,459.0,0.915
3107.108,462.0,0.915
3142.729,465.0,0.914
3178.515,468.0,0.914
3214.038,471.0,0.913
3249.732,474.0,0.912
3285.342,477.0,0.911
3321.013,480.0,0.91
3356.764,483.0,0.909
3392.316,486.0,0.908
3427.988,489.0,0.907
3463.727,492.0,0.905
3499.417,495.0,0.904
3535.245,498.0,0.902
3570.888,501.0,0.9
3606.635,504.0,0.898
3642.355,507.0,0.896
3677.874,510.0,0.893
3713.724,513.0,0.89
3749.487,516.0,0.887
3785.213,519.0,0.884
3820.854,522.0,0.88
3856.821,525.0,0.876
3892.646,528.0,0.872
3928.162,531.0,0.867
3964.022,534.0,0.863
3999.783,537.0,0.858
4035.542,540.0,0.852
4071.357,543.0,0.846
4107.198,546.0,0.84
4142.97,549.0,0.833
4178.593,552.0,0.826
4214.481,555.0,0.819
4250.389,558.0,0.811
4286.159,561.0,0.802
4322.114,564.0,0.793
4357.84,567.0,0.783
4393.663,570.0,0.772
4429.566,573.0,0.761
4465.333,576.0,0.749
4501.244,579.0,0.737
4537.045,582.0,0.723
4572.986,585.0,0.709
4608.807,588.0,0.694
4644.714,591.0,0.678
4680.688,594.0,0.662
4716.375,597.0,0.646
4752.429,600.0,0.628
4788.195,603.0,0.61
4824.151,606.0,0.592
4860.023,609.0,0.573
4895.987,612.0,0.553
4931.869,615.0,0.532
4967.884,618.0,0.511
5003.9,621.0,0.488
5039.726,624.0,0.464
5075.677,627.0,0.438
5111.706,630.0,0.412
5147.67,633.0,0.385
5183.559,636.0,0.358
5219.544,639.0,0.332
5255.654,642.0,0.309
5291.473,645.0,0.29
5327.364,648.0,0.276
5363.422,651.0,0.266
5399.385,654.0,0.261
5435.376,657.0,0.258
5471.529,660.0,0.256
5507.474,663.0,0.254
5543.5,666.0,0.252
5579.617,669.0,0.25
5615.683,672.0,0.248
5651.773,675.0,0.246
5687.977,678.0,0.244
5724.103,681.0,0.243
5760.222,684.0,0.241
5796.31,687.0,0.239
5832.418,690.0,0.237
5868.5,693.0,0.235
5904.724,696.0,0.233
5940.732,699.0,0.232
5976.862,702.0,0.23
6013.111,705.0,0.229
6049.345,708.0,0.227
6085.56,711.0,0.226
6121.663,714.0,0.224
6157.878,717.0,0.223
6193.964,720.0,0.222
6230.211,723.0,0.22
6266.374,726.0,0.219
6302.712,729.0,0.218
6338.912,732.0,0.217
6375.112,735.0,0.217
6411.282,738.0,0.215
6447.553,741.0,0.215
6483.697,744.0,0.214
6520.023,747.0,0.213
6556.146,750.0,0.212
6592.301,753.0,0.212
6628.609,756.0,0.211
6664.837,759.0,0.21
6700.948,762.0,0.209
6737.143,765.0,0.209
6773.244,768.0,0.208
6809.454,771.0,0.208
6845.74,774.0,0.207
6881.953,777.0,0.206
6917.89,780.0,0.206
6954.06,783.0,0.205
6990.225,786.0,0.205
7026.429,789.0,0.204
7062.565,792.0,0.203
7098.533,795.0,0.203
7134.639,798.0,0.202
7170.756,801.0,0.202
7207.089,804.0,0.201
7243.215,807.0,0.201
7279.333,810.0,0.2
7315.444,813.0,0.2
7351.581,816.0,0.199
7387.638,819.0,0.199
7423.761,822.0,0.199
7460.021,825.0,0.198
7496.218,828.0,0.198
7532.221,831.0,0.197
7568.291,834.0,0.197
7604.51,837.0,0.196
7640.675,840.0,0.195
7676.767,843.0,0.195
7712.931,846.0,0.194
7748.893,849.0,0.194
7784.9,852.0,0.194
7821.094,855.0,0.193
7857.143,858.0,0.193
7893.289,861.0,0.192
7929.488,864.0,0.192
7965.547,867.0,0.191
8001.633,870.0,0.191
8037.791,873.0,0.191
8073.949,876.0,0.19
8110.073,879.0,0.19
8146.13,882.0,0.189
8182.309,885.0,0.189
8218.522,888.0,0.189
8254.744,891.0,0.188
8291.068,894.0,0.188
8327.085,897.0,0.188
8363.333,900.0,0.187
8399.569,903.0,0.187
8435.734,906.0,0.187
8471.898,909.0,0.186
8508.128,912.0,0.186
8544.301,915.0,0.185
8580.466,918.0,0.185
8616.632,921.0,0.185
8652.729,924.0,0.185
8688.911,927.0,0.184
8725.0,930.0,0.184
8761.261,933.0,0.184
8797.307,936.0,0.184
8833.653,939.0,0.183
8869.711,942.0,0.183
8905.89,945.0,0.183
8942.167,948.0,0.183
8978.41,951.0,0.183
9014.383,954.0,0.182
9050.542,957.0,0.182
9086.729,960.0,0.182
9122.859,963.0,0.182
9159.103,966.0,0.181
9195.293,969.0,0.181
9231.411,972.0,0.181
9267.405,975.0,0.181
9303.689,978.0,0.18
9340.062,981.0,0.18
9376.293,984.0,0.18
9412.429,987.0,0.18
9448.483,990.0,0.18
9484.627,993.0,0.179
9520.844,996.0,0.179
9556.882,999.0,0.179
9592.957,1002.0,0.178
9629.026,1005.0,0.178
9665.225,1008.0,0.178
9701.386,1011.0,0.178
9737.235,1014.0,0.178
9773.333,1017.0,0.177
9809.524,1020.0,0.177
9845.605,1023.0,0.177
9881.605,1026.0,0.176
9917.674,1029.0,0.176
9953.729,1032.0,0.176
9989.792,1035.0,0.176
10025.988,1038.0,0.176
10062.0,1041.0,0.176
10098.012,1044.0,0.175
10133.964,1047.0,0.175
10170.036,1050.0,0.175
10206.037,1053.0,0.175
10242.183,1056.0,0.174
10278.118,1059.0,0.174
10314.053,1062.0,0.174
10350.023,1065.0,0.174
10386.027,1068.0,0.174
10423.517,1071.0,0.173
10490.0,1072.543,0.173
10550.0,1072.706,0.172
10610.0,1072.763,0.172
10670.0,1072.784,0.172
10730.0,1072.797,0.172
10740.0,1072.794,0.172