Folder: matl-db/Wood/Calibration_Data/TUT (part 3)

File: TUT_Wood_TGA_N2_10K_40Pa_R3.csv
Time (s),Temperature (K),Mass (mg)
0,299.5,4.9264
150,302.0,4.9294
191,304.5,4.9295
222,307.0,4.9296
249,309.5,4.9291
273,312.0,4.9289
295,314.5,4.9286
316,317.0,4.9282
336,319.5,4.9276
356,322.0,4.9272
375,324.5,4.9265
393,327.0,4.9259
411,329.5,4.9251
429,332.0,4.9246
447,334.5,4.9237
464,337.0,4.9234
481,339.5,4.9228
498,342.0,4.9222
515,344.5,4.9218
532,347.0,4.921
548,349.5,4.9203
565,352.0,4.9197
581,354.5,4.9192
598,357.0,4.9183
614,359.5,4.9177
631,362.0,4.9166
647,364.5,4.9157
663,367.0,4.9143
680,369.5,4.9129
696,372.0,4.9112
712,374.5,4.9092
728,377.0,4.907
744,379.5,4.9045
760,382.0,4.9018
777,384.5,4.8984
793,387.0,4.8949
809,389.5,4.8906
825,392.0,4.8861
841,394.5,4.8815
857,397.0,4.8762
873,399.5,4.8711
889,402.0,4.8658
905,404.5,4.8608
921,407.0,4.8561
937,409.5,4.852
953,412.0,4.8482
968,414.5,4.8452
984,417.0,4.842
1000,419.5,4.8393
1016,422.0,4.8367
1032,424.5,4.8337
1048,427.0,4.8313
1064,429.5,4.8289
1079,432.0,4.8268
1095,434.5,4.8239
1111,437.0,4.8209
1127,439.5,4.8177
1143,442.0,4.8144
1158,444.5,4.8115
1174,447.0,4.8082
1190,449.5,4.8043
1205,452.0,4.8005
1221,454.5,4.7961
1237,457.0,4.7918
1253,459.5,4.7867
1268,462.0,4.7815
1284,464.5,4.7757
1300,467.0,4.7694
1315,469.5,4.7629
1331,472.0,4.7554
1347,474.5,4.7475
1362,477.0,4.7395
1378,479.5,4.7304
1394,482.0,4.7205
1409,484.5,4.7109
1425,487.0,4.6999
1441,489.5,4.6882
1456,492.0,4.6766
1472,494.5,4.6635
1488,497.0,4.6498
1503,499.5,4.6362
1519,502.0,4.6209
1534,504.5,4.6055
1550,507.0,4.5882
1566,509.5,4.5704
1581,512.0,4.5525
1597,514.5,4.5325
1613,517.0,4.5115
1628,519.5,4.4908
1644,522.0,4.4679
1659,524.5,4.4459
1675,527.0,4.4217
1691,529.5,4.3968
1706,532.0,4.3728
1722,534.5,4.3465
1738,537.0,4.3194
1753,539.5,4.293
1769,542.0,4.2638
1785,544.5,4.2334
1800,547.0,4.2038
1816,549.5,4.1708
1832,552.0,4.1364
1847,554.5,4.1025
1863,557.0,4.0646
1879,559.5,4.0249
1895,562.0,3.9831
1910,564.5,3.942
1926,567.0,3.8961
1942,569.5,3.8478
1958,572.0,3.7972
1973,574.5,3.7474
1989,577.0,3.6918
2005,579.5,3.6338
2021,582.0,3.5728
2036,584.5,3.5133
2052,587.0,3.4475
2068,589.5,3.3791
2084,592.0,3.3078
2100,594.5,3.2339
2116,597.0,3.1579
2131,599.5,3.0846
2147,602.0,3.0038
2163,604.5,2.9208
2179,607.0,2.8358
2195,609.5,2.7486
2210,612.0,2.665
2226,614.5,2.5738
2242,617.0,2.4801
2258,619.5,2.384
2274,622.0,2.2851
2290,624.5,2.1829
2306,627.0,2.0771
2322,629.5,1.9677
2338,632.0,1.8549
2354,634.5,1.7382
2370,637.0,1.6188
2386,639.5,1.4969
2402,642.0,1.3744
2417,644.5,1.2614
2433,647.0,1.1442
2449,649.5,1.0351
2465,652.0,0.9374
2480,654.5,0.86
2495,657.0,0.7987
2511,659.5,0.752
2526,662.0,0.7237
2541,664.5,0.7055
2557,667.0,0.6925
2572,669.5,0.6824
2588,672.0,0.6727
2604,674.5,0.6634
2620,677.0,0.6544
2636,679.5,0.6458
2652,682.0,0.6373
2668,684.5,0.6292
2684,687.0,0.6212
2700,689.5,0.6132
2716,692.0,0.6054
2732,694.5,0.5976
2748,697.0,0.59
2764,699.5,0.583
2780,702.0,0.5755
2797,704.5,0.5682
2813,707.0,0.561
2829,709.5,0.5542
2845,712.0,0.5477
2861,714.5,0.5412
2877,717.0,0.5349
2893,719.5,0.5284
2909,722.0,0.5224
2926,724.5,0.5164
2942,727.0,0.5106
2958,729.5,0.5046
2974,732.0,0.4991
2991,734.5,0.4932
3007,737.0,0.4881
3023,739.5,0.4833
3040,742.0,0.4782
3056,744.5,0.4742
3072,747.0,0.4702
3089,749.5,0.4662
3105,752.0,0.4632
3122,754.5,0.4598
3138,757.0,0.457
3154,759.5,0.4539
3171,762.0,0.4514
3187,764.5,0.4488
3204,767.0,0.4456
3220,769.5,0.443
3237,772.0,0.4405
3253,774.5,0.4379
3270,777.0,0.4354
3286,779.5,0.4332
3303,782.0,0.4305
3319,784.5,0.4281
3336,787.0,0.4255
3352,789.5,0.4232
3369,792.0,0.4202
3385,794.5,0.4178
3402,797.0,0.4152
3419,799.5,0.4128
3435,802.0,0.4103
3452,804.5,0.4078
3469,807.0,0.4051
3485,809.5,0.4026
3502,812.0,0.3999
3518,814.5,0.3974
3535,817.0,0.3947
3551,819.5,0.3922
3568,822.0,0.3894
3585,824.5,0.3864
3601,827.0,0.3838
3618,829.5,0.3809
3635,832.0,0.378
3651,834.5,0.3753
3668,837.0,0.3723
3685,839.5,0.3692
3702,842.0,0.3661
3718,844.5,0.3632
3735,847.0,0.36
3752,849.5,0.357
3769,852.0,0.3543
3786,854.5,0.3512
3803,857.0,0.3481
3819,859.5,0.3451
3836,862.0,0.3419
3853,864.5,0.3388
3870,867.0,0.3361
3887,869.5,0.3329
3904,872.0,0.3301
3921,874.5,0.3273
3938,877.0,0.3243
3955,879.5,0.3213
3971,882.0,0.3183
3988,884.5,0.3153
4005,887.0,0.3126
4022,889.5,0.3097
4039,892.0,0.3066
4055,894.5,0.3042
4072,897.0,0.3013
4089,899.5,0.2983
4106,902.0,0.2956
4123,904.5,0.2926
4140,907.0,0.2899
4157,909.5,0.2871
4174,912.0,0.2844
4191,914.5,0.2817
4208,917.0,0.2791
4225,919.5,0.2764
4242,922.0,0.2735
4259,924.5,0.2708
4276,927.0,0.2684
4293,929.5,0.2657
4310,932.0,0.2629
4327,934.5,0.2607
4344,937.0,0.2577
4361,939.5,0.2552
4378,942.0,0.2526
4395,944.5,0.2502
4412,947.0,0.2478
4429,949.5,0.245
4446,952.0,0.2426
4463,954.5,0.2399
4480,957.0,0.2372
4497,959.5,0.2348
4514,962.0,0.232
4532,964.5,0.2292
4549,967.0,0.2267
4566,969.5,0.2242
4583,972.0,0.2218
4600,974.5,0.2192
4618,977.0,0.2162
4635,979.5,0.2138
4652,982.0,0.2113
4669,984.5,0.209
4686,987.0,0.2067
4703,989.5,0.2041
4720,992.0,0.2017
4738,994.5,0.199
4755,997.0,0.1967
4773,999.5,0.194
4776,1000.0,0.1935