Folder: matl-db/Wood/Calibration_Data/TUT

Note: Wood/Calibration_Data/TUT/README.md
# Template README File for Toyohashi Institute of Technology

### Experimental Conditions: TGA
A TG-DTA was used to simultaneously conduct Thermogravimetric Analysis (TGA) experiments. 

* Heating Rate: 10 K/min
* Temperature program
  - Initial Temperature: 300 K
  - Initial Isotherm: 1500 s (hold at 300 K for 1500 s)  
  - Maximum Temperature: 1000 K
  - Final Isotherm: None
* Sample mass: 5 mg +/- 0.1 mg
* Sample geometry: Powdered
* Calibration type: Before each experiment, a baseline test was performed using an empty crucible. Temperature/Heat flow calibration were performed every 12 months (or 100 tests, whichever is sooner) using a set of 6 reference materials with melting temperatures between 60-820 C
* Crucible
  - Type: Al2O3
  - Volume: 25.1 uL
  - Diameter: 5.00 mm
  - Mass: 87.3 mg +/- 0.6 mg
  - Lid: False
  - Note: Al2O3 crucibles (outer diameter 5mm / volume 25.13 uL) without a lid.
* Carrier Gas
  - Type: Nitrogen
  - Flow rate: 50 ml/min
  - Note: High Purity Nitrogen (99.9% or more)
* Pressure
  - Measurement were conducted while varying the pressure inside the experimental apparatus.
  - The pressure conditions were set to 100 kPa and 40 Pa.
  - Each pressure condition is indicated in the file name (e.g., filename_100kPa_R1).
* Instrument
  - Type: Rigaku/TG-DTA8122
  - Furnace Type: Platinum
  - Notes: None

| Test Name | O2 volume % |  Initial Sample Mass (mg) | Pressure (Pa) |
| --------- | :---------: | :------------------------: | :------: |
|TUT_TGA_N2_10K_100kPa_R1 | 0 | 5.065| 100000 |  
|TUT_TGA_N2_10K_100kPa_R2 | 0 | 4.997| 100000 |  
|TUT_TGA_N2_10K_100kPa_R3 | 0 | 4.980| 100000 |  
|TUT_TGA_N2_10K_40Pa_R1 | 0 | 5.028| 40 |
|TUT_TGA_N2_10K_40Pa_R2 | 0 | 5.031| 40 |
|TUT_TGA_N2_10K_40Pa_R3 | 0 | 4.926| 40 |

File: TUT_TGA_N2_10K_40Pa_R1.csv
Time (s),Temperature (K),Mass (mg)
0.0,299.663,5.028187
16.0,299.68,5.028469
32.0,299.675,5.028969
48.0,299.693,5.029531
64.0,299.75,5.029719
80.0,299.866,5.029406
96.0,300.089,5.029594
112.0,300.442,5.029562
128.0,300.94,5.029687
144.0,301.59,5.029562
160.0,302.393,5.029469
176.0,303.337,5.029625
192.0,304.455,5.029438
208.0,305.697,5.029094
224.0,307.065,5.029062
240.0,308.54,5.0285
256.0,310.148,5.028344
272.0,311.837,5.027812
288.0,313.62,5.026844
304.0,315.48,5.02625
320.0,317.417,5.025562
336.0,319.424,5.024781
352.0,321.492,5.024562
368.0,323.6,5.023687
384.0,325.759,5.022844
400.0,327.964,5.022031
416.0,330.199,5.020844
432.0,332.452,5.020094
448.0,334.748,5.019563
464.0,337.07,5.018344
480.0,339.423,5.017719
496.0,341.779,5.016875
512.0,344.149,5.016
528.0,346.548,5.015187
544.0,348.954,5.014406
560.0,351.367,5.013688
576.0,353.798,5.012656
592.0,356.233,5.012063
608.0,358.678,5.011188
624.0,361.12,5.009906
640.0,363.572,5.008906
656.0,366.047,5.007781
672.0,368.515,5.006281
688.0,370.987,5.004625
704.0,373.447,5.00225
720.0,375.917,5.000312
736.0,378.407,4.997625
752.0,380.882,4.994594
768.0,383.365,4.991625
784.0,385.852,4.988062
800.0,388.347,4.983875
816.0,390.84,4.979562
832.0,393.335,4.97475
848.0,395.827,4.969594
864.0,398.323,4.96425
880.0,400.825,4.958531
896.0,403.332,4.953281
912.0,405.831,4.947969
928.0,408.346,4.943219
944.0,410.873,4.938938
960.0,413.394,4.935062
976.0,415.906,4.931812
992.0,418.437,4.928937
1008.0,420.967,4.925938
1024.0,423.497,4.92325
1040.0,426.021,4.920594
1056.0,428.55,4.918188
1072.0,431.085,4.915344
1088.0,433.62,4.912469
1104.0,436.166,4.909313
1120.0,438.707,4.906406
1136.0,441.248,4.903031
1152.0,443.796,4.899719
1168.0,446.341,4.896094
1184.0,448.893,4.891938
1200.0,451.433,4.888156
1216.0,453.979,4.883563
1232.0,456.537,4.878906
1248.0,459.079,4.873844
1264.0,461.628,4.868156
1280.0,464.177,4.861906
1296.0,466.727,4.855625
1312.0,469.275,4.848469
1328.0,471.835,4.840844
1344.0,474.378,4.832656
1360.0,476.933,4.823969
1376.0,479.489,4.814469
1392.0,482.043,4.804062
1408.0,484.603,4.793219
1424.0,487.151,4.781875
1440.0,489.705,4.769781
1456.0,492.261,4.756906
1472.0,494.812,4.743437
1488.0,497.374,4.729063
1504.0,499.923,4.713594
1520.0,502.483,4.697625
1536.0,505.041,4.680719
1552.0,507.597,4.662437
1568.0,510.166,4.643312
1584.0,512.729,4.6235
1600.0,515.292,4.602437
1616.0,517.845,4.580187
1632.0,520.406,4.5575
1648.0,522.965,4.5335
1664.0,525.524,4.508906
1680.0,528.083,4.483875
1696.0,530.635,4.458
1712.0,533.193,4.431344
1728.0,535.751,4.403906
1744.0,538.303,4.375625
1760.0,540.853,4.346094
1776.0,543.4,4.315781
1792.0,545.956,4.28375
1808.0,548.508,4.250406
1824.0,551.059,4.215281
1840.0,553.61,4.178719
1856.0,556.158,4.140406
1872.0,558.709,4.100062
1888.0,561.254,4.057625
1904.0,563.802,4.013375
1920.0,566.344,3.966594
1936.0,568.881,3.917719
1952.0,571.425,3.8665
1968.0,573.958,3.8125
1984.0,576.498,3.756
2000.0,579.032,3.696625
2016.0,581.574,3.634719
2032.0,584.11,3.570406
2048.0,586.64,3.502938
2064.0,589.172,3.433063
2080.0,591.699,3.360812
2096.0,594.236,3.285813
2112.0,596.762,3.207937
2128.0,599.286,3.128219
2144.0,601.824,3.045469
2160.0,604.362,2.961125
2176.0,606.877,2.874469
2192.0,609.402,2.785875
2208.0,611.924,2.694625
2224.0,614.45,2.601656
2240.0,616.967,2.506219
2256.0,619.483,2.408031
2272.0,621.998,2.307031
2288.0,624.509,2.202875
2304.0,627.018,2.095062
2320.0,629.517,1.983031
2336.0,632.025,1.868031
2352.0,634.53,1.748781
2368.0,637.034,1.626781
2384.0,639.537,1.502687
2400.0,642.054,1.377687
2416.0,644.567,1.254531
2432.0,647.103,1.136188
2448.0,649.652,1.026188
2464.0,652.231,0.928187
2480.0,654.826,0.8465
2496.0,657.439,0.784375
2512.0,660.062,0.741313
2528.0,662.669,0.714063
2544.0,665.258,0.697125
2560.0,667.821,0.685
2576.0,670.363,0.674156
2592.0,672.882,0.664375
2608.0,675.402,0.654688
2624.0,677.905,0.645719
2640.0,680.411,0.637031
2656.0,682.916,0.628469
2672.0,685.411,0.61975
2688.0,687.9,0.611531
2704.0,690.39,0.603594
2720.0,692.874,0.595531
2736.0,695.355,0.588
2752.0,697.84,0.5805
2768.0,700.317,0.573094
2784.0,702.792,0.565219
2800.0,705.266,0.558406
2816.0,707.746,0.551469
2832.0,710.216,0.545375
2848.0,712.693,0.538938
2864.0,715.158,0.532594
2880.0,717.619,0.526969
2896.0,720.08,0.521625
2912.0,722.543,0.516125
2928.0,725.002,0.511
2944.0,727.459,0.506281
2960.0,729.917,0.501406
2976.0,732.378,0.497187
2992.0,734.825,0.492813
3008.0,737.272,0.488687
3024.0,739.73,0.485094
3040.0,742.177,0.48125
3056.0,744.624,0.477469
3072.0,747.063,0.474375
3088.0,749.504,0.471
3104.0,751.936,0.467906
3120.0,754.369,0.464812
3136.0,756.8,0.461563
3152.0,759.229,0.458375
3168.0,761.655,0.455813
3184.0,764.077,0.453094
3200.0,766.496,0.450281
3216.0,768.92,0.4475
3232.0,771.331,0.44475
3248.0,773.742,0.442219
3264.0,776.161,0.439844
3280.0,778.578,0.437156
3296.0,780.981,0.434812
3312.0,783.395,0.432375
3328.0,785.795,0.429719
3344.0,788.201,0.427781
3360.0,790.607,0.425187
3376.0,793.008,0.423344
3392.0,795.399,0.420969
3408.0,797.783,0.418656
3424.0,800.17,0.416594
3440.0,802.55,0.414031
3456.0,804.916,0.412
3472.0,807.282,0.410156
3488.0,809.657,0.408062
3504.0,812.044,0.405813
3520.0,814.408,0.403656
3536.0,816.785,0.401625
3552.0,819.15,0.399656
3568.0,821.518,0.397469
3584.0,823.881,0.395594
3600.0,826.241,0.393375
3616.0,828.598,0.391625
3632.0,830.962,0.389625
3648.0,833.33,0.38775
3664.0,835.68,0.385812
3680.0,838.029,0.383906
3696.0,840.375,0.382156
3712.0,842.729,0.380188
3728.0,845.083,0.378094
3744.0,847.435,0.376469
3760.0,849.777,0.374531
3776.0,852.14,0.372562
3792.0,854.482,0.370531
3808.0,856.819,0.368469
3824.0,859.176,0.366344
3840.0,861.525,0.364312
3856.0,863.872,0.362625
3872.0,866.224,0.360938
3888.0,868.563,0.358906
3904.0,870.9,0.357031
3920.0,873.231,0.355156
3936.0,875.572,0.3535
3952.0,877.918,0.351563
3968.0,880.259,0.349781
3984.0,882.602,0.348062
4000.0,884.939,0.346219
4016.0,887.275,0.344656
4032.0,889.615,0.342813
4048.0,891.938,0.341
4064.0,894.271,0.339469
4080.0,896.601,0.337906
4096.0,898.939,0.33625
4112.0,901.268,0.334531
4128.0,903.602,0.332938
4144.0,905.929,0.331437
4160.0,908.259,0.330094
4176.0,910.587,0.32875
4192.0,912.918,0.327031
4208.0,915.258,0.325563
4224.0,917.59,0.324125
4240.0,919.919,0.32275
4256.0,922.254,0.321312
4272.0,924.582,0.319719
4288.0,926.915,0.318312
4304.0,929.257,0.317094
4320.0,931.589,0.315844
4336.0,933.935,0.314531
4352.0,936.278,0.313125
4368.0,938.601,0.311531
4384.0,940.93,0.31025
4400.0,943.236,0.309156
4416.0,945.551,0.308125
4432.0,947.86,0.307063
4448.0,950.171,0.305781
4464.0,952.497,0.30475
4480.0,954.813,0.303688
4496.0,957.135,0.302625
4512.0,959.461,0.301344
4528.0,961.782,0.300156
4544.0,964.1,0.298781
4560.0,966.408,0.297563
4576.0,968.72,0.296219
4592.0,971.032,0.295281
4608.0,973.357,0.294094
4624.0,975.687,0.293531
4640.0,978.008,0.292
4656.0,980.339,0.291312
4672.0,982.677,0.289969
4688.0,984.999,0.288906
4704.0,987.32,0.288125
4720.0,989.643,0.286813
4736,991.962,0.28575
4752,994.288,0.284687
4768,996.61,0.283781
4784,998.924,0.28275
4792,999.99,0.282406

File: TUT_TGA_N2_10K_40Pa_R2.csv
Time (s),Temperature (K),Mass (mg)
0,299.0,5.0306
145,301.5,5.0297
187,304.0,5.0292
219,306.5,5.0291
246,309.0,5.0284
270,311.5,5.0278
293,314.0,5.027
314,316.5,5.0288
334,319.0,5.0279
354,321.5,5.0268
372,324.0,5.0258
391,326.5,5.0248
409,329.0,5.0238
427,331.5,5.0229
444,334.0,5.0216
462,336.5,5.021
479,339.0,5.0201
496,341.5,5.0192
513,344.0,5.018
530,346.5,5.0174
547,349.0,5.0167
563,351.5,5.0158
580,354.0,5.0149
596,356.5,5.0139
613,359.0,5.0128
629,361.5,5.0117
645,364.0,5.0112
662,366.5,5.0098
678,369.0,5.0081
694,371.5,5.0067
710,374.0,5.0045
726,376.5,5.002
742,379.0,4.9993
759,381.5,4.9958
775,384.0,4.9926
791,386.5,4.9887
807,389.0,4.9848
823,391.5,4.9801
839,394.0,4.9754
855,396.5,4.9703
871,399.0,4.9651
887,401.5,4.9605
903,404.0,4.9557
919,406.5,4.9513
935,409.0,4.9473
951,411.5,4.9438
967,414.0,4.9408
982,416.5,4.9381
998,419.0,4.9355
1014,421.5,4.9331
1030,424.0,4.9302
1045,426.5,4.928
1061,429.0,4.9253
1077,431.5,4.9228
1093,434.0,4.92
1109,436.5,4.9174
1124,439.0,4.9147
1140,441.5,4.9114
1156,444.0,4.9086
1172,446.5,4.9053
1187,449.0,4.902
1203,451.5,4.8982
1219,454.0,4.8943
1235,456.5,4.8902
1250,459.0,4.8859
1266,461.5,4.8807
1282,464.0,4.8755
1297,466.5,4.8702
1313,469.0,4.8639
1329,471.5,4.8574
1344,474.0,4.8505
1360,476.5,4.8429
1376,479.0,4.8347
1391,481.5,4.8265
1407,484.0,4.8173
1422,486.5,4.8076
1438,489.0,4.7971
1454,491.5,4.7857
1469,494.0,4.7749
1485,496.5,4.7623
1501,499.0,4.7491
1516,501.5,4.7361
1532,504.0,4.7214
1548,506.5,4.7055
1563,509.0,4.6899
1579,511.5,4.6721
1594,514.0,4.6549
1610,516.5,4.6357
1626,519.0,4.6159
1641,521.5,4.5963
1657,524.0,4.5748
1672,526.5,4.5539
1688,529.0,4.5314
1704,531.5,4.5082
1719,534.0,4.4858
1735,536.5,4.4612
1751,539.0,4.4358
1766,541.5,4.4108
1782,544.0,4.3829
1798,546.5,4.354
1814,549.0,4.3239
1829,551.5,4.2943
1845,554.0,4.2612
1861,556.5,4.2265
1876,559.0,4.1924
1892,561.5,4.1542
1908,564.0,4.1143
1923,566.5,4.0746
1939,569.0,4.0306
1955,571.5,3.9842
1970,574.0,3.9386
1986,576.5,3.8877
2002,579.0,3.8344
2018,581.5,3.7786
2033,584.0,3.7239
2049,586.5,3.6636
2065,589.0,3.6005
2081,591.5,3.5353
2097,594.0,3.4677
2113,596.5,3.3981
2128,599.0,3.3309
2144,601.5,3.2567
2160,604.0,3.1807
2176,606.5,3.1027
2192,609.0,3.0228
2208,611.5,2.9408
2223,614.0,2.8621
2239,616.5,2.7759
2255,619.0,2.6878
2271,621.5,2.5968
2287,624.0,2.5029
2303,626.5,2.4065
2319,629.0,2.3063
2335,631.5,2.2028
2351,634.0,2.0962
2367,636.5,1.9866
2383,639.0,1.8751
2399,641.5,1.7629
2415,644.0,1.6518
2431,646.5,1.5443
2446,649.0,1.4494
2462,651.5,1.3581
2478,654.0,1.2804
2493,656.5,1.2225
2508,659.0,1.1802
2524,661.5,1.151
2539,664.0,1.1339
2555,666.5,1.1215
2570,669.0,1.1123
2586,671.5,1.1033
2602,674.0,1.0946
2618,676.5,1.0866
2634,679.0,1.0786
2650,681.5,1.0713
2666,684.0,1.0636
2682,686.5,1.0564
2698,689.0,1.0492
2714,691.5,1.0422
2730,694.0,1.0356
2746,696.5,1.0289
2762,699.0,1.0224
2779,701.5,1.0155
2795,704.0,1.0092
2811,706.5,1.0034
2827,709.0,0.9978
2843,711.5,0.9923
2859,714.0,0.9866
2875,716.5,0.9815
2892,719.0,0.9763
2908,721.5,0.9717
2924,724.0,0.9674
2941,726.5,0.9626
2957,729.0,0.9587
2973,731.5,0.9548
2990,734.0,0.9509
3006,736.5,0.9473
3022,739.0,0.9439
3038,741.5,0.9408
3055,744.0,0.9374
3071,746.5,0.9347
3088,749.0,0.9318
3104,751.5,0.929
3121,754.0,0.9263
3137,756.5,0.9236
3154,759.0,0.9209
3170,761.5,0.9186
3187,764.0,0.9161
3203,766.5,0.9136
3220,769.0,0.9115
3237,771.5,0.9092
3253,774.0,0.907
3270,776.5,0.9049
3287,779.0,0.9025
3303,781.5,0.9002
3320,784.0,0.898
3337,786.5,0.8958
3353,789.0,0.8938
3370,791.5,0.8914
3387,794.0,0.8892
3403,796.5,0.887
3419,799.0,0.8848
3436,801.5,0.882
3452,804.0,0.8797
3468,806.5,0.8772
3485,809.0,0.8749
3501,811.5,0.8721
3517,814.0,0.8696
3534,816.5,0.8669
3550,819.0,0.8644
3567,821.5,0.8616
3584,824.0,0.8589
3600,826.5,0.8567
3617,829.0,0.8539
3634,831.5,0.851
3650,834.0,0.8486
3667,836.5,0.8458
3684,839.0,0.8432
3700,841.5,0.8405
3717,844.0,0.8376
3734,846.5,0.8345
3750,849.0,0.8319
3767,851.5,0.8289
3784,854.0,0.8262
3800,856.5,0.8235
3817,859.0,0.8206
3834,861.5,0.8176
3851,864.0,0.8149
3868,866.5,0.8121
3884,869.0,0.8093
3901,871.5,0.8066
3918,874.0,0.8037
3935,876.5,0.8008
3952,879.0,0.7981
3969,881.5,0.7954
3985,884.0,0.7928
4002,886.5,0.7901
4019,889.0,0.7874
4036,891.5,0.7845
4053,894.0,0.7819
4069,896.5,0.7791
4086,899.0,0.7763
4103,901.5,0.7734
4120,904.0,0.7706
4137,906.5,0.7678
4154,909.0,0.7649
4171,911.5,0.7621
4188,914.0,0.7597
4205,916.5,0.7569
4222,919.0,0.7542
4239,921.5,0.7513
4256,924.0,0.7485
4273,926.5,0.746
4290,929.0,0.7435
4307,931.5,0.7411
4324,934.0,0.7382
4341,936.5,0.7355
4358,939.0,0.7328
4375,941.5,0.7306
4392,944.0,0.7278
4409,946.5,0.7255
4426,949.0,0.7228
4443,951.5,0.7204
4460,954.0,0.7176
4477,956.5,0.7148
4494,959.0,0.7124
4512,961.5,0.7097
4529,964.0,0.7072
4546,966.5,0.7045
4563,969.0,0.7018
4580,971.5,0.6996
4597,974.0,0.6968
4614,976.5,0.6946
4632,979.0,0.692
4649,981.5,0.6894
4666,984.0,0.6868
4683,986.5,0.6842
4701,989.0,0.6817
4718,991.5,0.6792
4735,994.0,0.677
4753,996.5,0.6741
4770,999.0,0.6717
4777,1000.0,0.6708

File: TUT_TGA_N2_10K_40Pa_R3.csv
Time (s),Temperature (K),Mass (mg)
0.0,299.573,4.926406
16.0,299.57,4.927125
32.0,299.579,4.928406
48.0,299.59,4.928531
64.0,299.649,4.928906
80.0,299.784,4.928906
96.0,300.002,4.929
112.0,300.356,4.929313
128.0,300.849,4.929625
144.0,301.501,4.9295
160.0,302.295,4.9295
176.0,303.248,4.92975
192.0,304.338,4.9295
208.0,305.588,4.929594
224.0,306.961,4.929656
240.0,308.443,4.929187
256.0,310.025,4.929062
272.0,311.713,4.928969
288.0,313.48,4.928469
304.0,315.35,4.928625
320.0,317.276,4.928062
336.0,319.282,4.927625
352.0,321.328,4.927344
368.0,323.425,4.9265
384.0,325.564,4.926188
400.0,327.748,4.925594
416.0,329.979,4.924812
432.0,332.235,4.924406
448.0,334.524,4.923719
464.0,336.832,4.923406
480.0,339.167,4.922812
496.0,341.509,4.922281
512.0,343.88,4.921875
528.0,346.274,4.921094
544.0,348.673,4.920656
560.0,351.09,4.920031
576.0,353.5,4.919406
592.0,355.924,4.918656
608.0,358.358,4.917969
624.0,360.802,4.917031
640.0,363.248,4.916156
656.0,365.699,4.914906
672.0,368.158,4.913688
688.0,370.632,4.912094
704.0,373.098,4.910188
720.0,375.565,4.908156
736.0,378.036,4.905844
752.0,380.536,4.902969
768.0,383.002,4.900063
784.0,385.482,4.896781
800.0,387.978,4.893031
816.0,390.467,4.888875
832.0,392.95,4.884219
848.0,395.437,4.87925
864.0,397.932,4.874
880.0,400.433,4.86875
896.0,402.944,4.8635
912.0,405.449,4.858812
928.0,407.955,4.854469
944.0,410.473,4.850406
960.0,412.99,4.846562
976.0,415.496,4.843438
992.0,418.023,4.840531
1008.0,420.549,4.838
1024.0,423.077,4.83525
1040.0,425.605,4.832625
1056.0,428.135,4.83025
1072.0,430.663,4.827719
1088.0,433.198,4.824937
1104.0,435.709,4.822281
1120.0,438.253,4.81925
1136.0,440.787,4.815938
1152.0,443.318,4.812594
1168.0,445.865,4.80925
1184.0,448.418,4.805719
1200.0,450.967,4.801719
1216.0,453.5,4.7975
1232.0,456.044,4.793125
1248.0,458.599,4.788063
1264.0,461.142,4.782875
1280.0,463.698,4.777281
1296.0,466.239,4.771
1312.0,468.794,4.764281
1328.0,471.345,4.756719
1344.0,473.9,4.749
1360.0,476.447,4.740562
1376.0,479.002,4.73175
1392.0,481.551,4.72175
1408.0,484.106,4.711563
1424.0,486.667,4.700687
1440.0,489.219,4.689
1456.0,491.777,4.676625
1472.0,494.332,4.663531
1488.0,496.887,4.649813
1504.0,499.447,4.635188
1520.0,502.007,4.619844
1536.0,504.573,4.603312
1552.0,507.131,4.586031
1568.0,509.693,4.568219
1584.0,512.254,4.548844
1600.0,514.803,4.528531
1616.0,517.37,4.507406
1632.0,519.922,4.485219
1648.0,522.486,4.462094
1664.0,525.046,4.438625
1680.0,527.599,4.413844
1696.0,530.153,4.388969
1712.0,532.714,4.363031
1728.0,535.272,4.336594
1744.0,537.832,4.308969
1760.0,540.388,4.280375
1776.0,542.938,4.250688
1792.0,545.484,4.22
1808.0,548.05,4.187531
1824.0,550.592,4.154062
1840.0,553.136,4.118406
1856.0,555.684,4.081469
1872.0,558.226,4.042687
1888.0,560.767,4.001719
1904.0,563.31,3.958625
1920.0,565.846,3.913844
1936.0,568.383,3.866281
1952.0,570.929,3.816469
1968.0,573.471,3.764031
1984.0,576.01,3.709625
2000.0,578.547,3.652281
2016.0,581.094,3.591938
2032.0,583.622,3.5295
2048.0,586.157,3.464313
2064.0,588.687,3.396344
2080.0,591.224,3.325875
2096.0,593.752,3.252531
2112.0,596.271,3.177156
2128.0,598.807,3.099437
2144.0,601.342,3.019156
2160.0,603.863,2.936375
2176.0,606.402,2.851813
2192.0,608.916,2.765031
2208.0,611.439,2.676344
2224.0,613.966,2.585219
2240.0,616.492,2.491969
2256.0,619.012,2.396219
2272.0,621.529,2.297625
2288.0,624.038,2.195875
2304.0,626.55,2.090406
2320.0,629.049,1.981531
2336.0,631.545,1.869125
2352.0,634.049,1.752938
2368.0,636.557,1.633906
2384.0,639.06,1.512219
2400.0,641.583,1.389781
2416.0,644.097,1.268781
2432.0,646.633,1.151312
2448.0,649.183,1.041563
2464.0,651.746,0.943156
2480.0,654.339,0.86
2496.0,656.948,0.79525
2512.0,659.57,0.749625
2528.0,662.179,0.720688
2544.0,664.771,0.702688
2560.0,667.337,0.690281
2576.0,669.883,0.679875
2592.0,672.411,0.670344
2608.0,674.924,0.661156
2624.0,677.449,0.652156
2640.0,679.961,0.643656
2656.0,682.458,0.635344
2672.0,684.965,0.627187
2688.0,687.461,0.619313
2704.0,689.966,0.611406
2720.0,692.457,0.603375
2736.0,694.941,0.595719
2752.0,697.423,0.588375
2768.0,699.906,0.581125
2784.0,702.385,0.57375
2800.0,704.867,0.566781
2816.0,707.354,0.559875
2832.0,709.835,0.553062
2848.0,712.316,0.546375
2864.0,714.79,0.539937
2880.0,717.274,0.533594
2896.0,719.739,0.527375
2912.0,722.214,0.521344
2928.0,724.678,0.515562
2944.0,727.149,0.509687
2960.0,729.618,0.503812
2976.0,732.088,0.49825
2992.0,734.54,0.492875
3008.0,736.988,0.487781
3024.0,739.448,0.483031
3040.0,741.884,0.478156
3056.0,744.329,0.474219
3072.0,746.764,0.47025
3088.0,749.204,0.466437
3104.0,751.643,0.463281
3120.0,754.083,0.460063
3136.0,756.517,0.457344
3152.0,758.97,0.454281
3168.0,761.413,0.451813
3184.0,763.85,0.449219
3200.0,766.284,0.446406
3216.0,768.714,0.443375
3232.0,771.14,0.441219
3248.0,773.555,0.438656
3264.0,775.976,0.436406
3280.0,778.401,0.434
3296.0,780.826,0.431625
3312.0,783.243,0.429094
3328.0,785.659,0.426781
3344.0,788.073,0.424406
3360.0,790.497,0.421813
3376.0,792.914,0.419375
3392.0,795.324,0.416906
3408.0,797.721,0.414438
3424.0,800.122,0.412031
3440.0,802.526,0.409875
3456.0,804.929,0.407313
3472.0,807.345,0.404656
3488.0,809.763,0.402125
3504.0,812.183,0.3995
3520.0,814.597,0.397094
3536.0,817.006,0.394625
3552.0,819.415,0.391969
3568.0,821.823,0.389375
3584.0,824.221,0.386656
3600.0,826.635,0.383938
3616.0,829.035,0.381219
3632.0,831.442,0.378469
3648.0,833.835,0.375625
3664.0,836.225,0.372969
3680.0,838.611,0.370125
3696.0,840.986,0.367063
3712.0,843.362,0.36425
3728.0,845.729,0.361406
3744.0,848.109,0.358594
3760.0,850.482,0.355781
3776.0,852.867,0.352906
3792.0,855.244,0.350125
3808.0,857.621,0.347313
3824.0,860.009,0.34425
3840.0,862.397,0.341219
3856.0,864.771,0.338375
3872.0,867.15,0.335781
3888.0,869.525,0.332719
3904.0,871.882,0.330063
3920.0,874.236,0.327469
3936.0,876.589,0.3245
3952.0,878.947,0.32175
3968.0,881.322,0.318781
3984.0,883.7,0.316125
4000.0,886.084,0.313625
4016.0,888.465,0.310781
4032.0,890.845,0.307906
4048.0,893.222,0.305344
4064.0,895.614,0.302625
4080.0,897.978,0.299969
4096.0,900.353,0.297188
4112.0,902.721,0.294594
4128.0,905.08,0.291875
4144.0,907.437,0.289406
4160.0,909.785,0.286656
4176.0,912.144,0.284031
4192.0,914.502,0.281594
4208.0,916.847,0.279094
4224.0,919.198,0.276563
4240.0,921.548,0.273781
4256.0,923.903,0.271219
4272.0,926.269,0.268844
4288.0,928.627,0.266438
4304.0,930.977,0.263844
4320.0,933.341,0.261219
4336.0,935.695,0.258906
4352.0,938.049,0.256687
4368.0,940.414,0.253969
4384.0,942.773,0.251812
4400.0,945.121,0.249406
4416.0,947.466,0.247187
4432.0,949.806,0.244594
4448.0,952.147,0.242281
4464.0,954.473,0.239719
4480.0,956.806,0.237219
4496.0,959.139,0.234844
4512.0,961.465,0.232344
4528.0,963.797,0.22975
4544.0,966.127,0.227531
4560.0,968.451,0.225187
4576.0,970.775,0.22275
4592.0,973.095,0.22025
4608.0,975.423,0.217906
4624.0,977.749,0.215687
4640.0,980.078,0.213125
4656.0,982.426,0.210594
4672.0,984.762,0.2085
4688.0,987.105,0.206437
4704.0,989.443,0.203969
4720.0,991.764,0.201687
4736,994.077,0.199281
4752,996.372,0.197094
4768,998.659,0.194875
4778,999.996,0.193312