Folder: matl-db/Wood/Calibration_Data/TUT (part 2)

File: TUT_TGA_N2_10K_100kPa_R1.csv
Time (s),Temperature (K),Mass (mg)
0,299.5,5.0652
158,302.0,5.0662
197,304.5,5.0646
227,307.0,5.0626
252,309.5,5.0603
276,312.0,5.0571
298,314.5,5.054
319,317.0,5.0504
339,319.5,5.0461
358,322.0,5.0418
377,324.5,5.0372
395,327.0,5.0321
413,329.5,5.0268
431,332.0,5.0214
449,334.5,5.0158
466,337.0,5.0105
484,339.5,5.0044
501,342.0,4.999
518,344.5,4.9933
535,347.0,4.9881
551,349.5,4.9836
568,352.0,4.9792
585,354.5,4.975
601,357.0,4.9721
618,359.5,4.9692
634,362.0,4.9667
651,364.5,4.9646
667,367.0,4.9632
684,369.5,4.9619
700,372.0,4.9606
717,374.5,4.9599
733,377.0,4.9593
749,379.5,4.9585
766,382.0,4.9577
782,384.5,4.9572
798,387.0,4.9566
815,389.5,4.956
831,392.0,4.9556
848,394.5,4.955
864,397.0,4.9546
880,399.5,4.9539
897,402.0,4.9535
913,404.5,4.9525
929,407.0,4.9518
946,409.5,4.951
962,412.0,4.9504
978,414.5,4.9492
994,417.0,4.9483
1011,419.5,4.947
1027,422.0,4.9455
1043,424.5,4.9444
1059,427.0,4.943
1075,429.5,4.9414
1091,432.0,4.9397
1107,434.5,4.9375
1123,437.0,4.9352
1139,439.5,4.9331
1155,442.0,4.9303
1172,444.5,4.927
1188,447.0,4.924
1204,449.5,4.9205
1219,452.0,4.917
1235,454.5,4.9129
1251,457.0,4.9082
1267,459.5,4.9032
1283,462.0,4.898
1299,464.5,4.8924
1315,467.0,4.8861
1331,469.5,4.8797
1347,472.0,4.8728
1362,474.5,4.8663
1378,477.0,4.8591
1394,479.5,4.8515
1410,482.0,4.8439
1426,484.5,4.836
1441,487.0,4.8282
1457,489.5,4.8198
1473,492.0,4.8109
1489,494.5,4.8014
1504,497.0,4.7924
1520,499.5,4.782
1536,502.0,4.7712
1552,504.5,4.7591
1567,507.0,4.7472
1583,509.5,4.7338
1599,512.0,4.7189
1614,514.5,4.7038
1630,517.0,4.6871
1646,519.5,4.6688
1661,522.0,4.6507
1677,524.5,4.6302
1693,527.0,4.6087
1708,529.5,4.5874
1724,532.0,4.5638
1740,534.5,4.539
1755,537.0,4.5141
1771,539.5,4.4865
1786,542.0,4.4592
1802,544.5,4.4289
1817,547.0,4.3993
1833,549.5,4.366
1849,552.0,4.3312
1864,554.5,4.2975
1880,557.0,4.26
1895,559.5,4.2234
1911,562.0,4.1834
1926,564.5,4.144
1942,567.0,4.1009
1958,569.5,4.0556
1973,572.0,4.011
1989,574.5,3.9617
2004,577.0,3.9136
2020,579.5,3.8596
2035,582.0,3.8062
2051,584.5,3.7469
2066,587.0,3.6885
2082,589.5,3.6237
2097,592.0,3.5598
2113,594.5,3.489
2128,597.0,3.4201
2144,599.5,3.344
2159,602.0,3.2703
2175,604.5,3.1892
2190,607.0,3.1111
2206,609.5,3.0259
2222,612.0,2.9381
2237,614.5,2.8534
2253,617.0,2.7603
2268,619.5,2.6697
2284,622.0,2.569
2299,624.5,2.4701
2315,627.0,2.359
2330,629.5,2.2496
2346,632.0,2.1266
2361,634.5,2.0063
2376,637.0,1.8829
2392,639.5,1.7514
2407,642.0,1.6336
2422,644.5,1.5274
2437,647.0,1.439
2452,649.5,1.3733
2467,652.0,1.3292
2482,654.5,1.3017
2497,657.0,1.2841
2512,659.5,1.2718
2527,662.0,1.261
2542,664.5,1.2512
2558,667.0,1.2414
2574,669.5,1.232
2589,672.0,1.2233
2605,674.5,1.2141
2621,677.0,1.2052
2637,679.5,1.1962
2653,682.0,1.1872
2669,684.5,1.1778
2685,687.0,1.1686
2701,689.5,1.1594
2717,692.0,1.1503
2733,694.5,1.1406
2749,697.0,1.1313
2765,699.5,1.1219
2781,702.0,1.1123
2797,704.5,1.1029
2813,707.0,1.0932
2829,709.5,1.0839
2845,712.0,1.0745
2861,714.5,1.065
2877,717.0,1.0555
2893,719.5,1.046
2909,722.0,1.0366
2925,724.5,1.0268
2941,727.0,1.0171
2957,729.5,1.0074
2973,732.0,0.9976
2989,734.5,0.988
3005,737.0,0.9782
3021,739.5,0.9683
3037,742.0,0.9583
3053,744.5,0.9482
3069,747.0,0.9383
3085,749.5,0.9283
3101,752.0,0.9178
3118,754.5,0.907
3134,757.0,0.8965
3150,759.5,0.8859
3166,762.0,0.8752
3182,764.5,0.8644
3198,767.0,0.8537
3215,769.5,0.8422
3231,772.0,0.8313
3247,774.5,0.8203
3263,777.0,0.8094
3280,779.5,0.7974
3296,782.0,0.7863
3312,784.5,0.7749
3329,787.0,0.7629
3345,789.5,0.7515
3361,792.0,0.7396
3377,794.5,0.7278
3394,797.0,0.7157
3410,799.5,0.704
3426,802.0,0.6922
3443,804.5,0.6797
3459,807.0,0.6676
3475,809.5,0.6555
3491,812.0,0.6433
3508,814.5,0.6302
3524,817.0,0.618
3540,819.5,0.6055
3557,822.0,0.5927
3573,824.5,0.5801
3589,827.0,0.5676
3606,829.5,0.5544
3622,832.0,0.5415
3638,834.5,0.5291
3655,837.0,0.5158
3671,839.5,0.5033
3687,842.0,0.4906
3704,844.5,0.4768
3720,847.0,0.4643
3736,849.5,0.4517
3753,852.0,0.4382
3769,854.5,0.4256
3786,857.0,0.4121
3802,859.5,0.3994
3818,862.0,0.3867
3835,864.5,0.3733
3851,867.0,0.3607
3867,869.5,0.3481
3883,872.0,0.3357
3900,874.5,0.3221
3916,877.0,0.3098
3932,879.5,0.2975
3949,882.0,0.2842
3965,884.5,0.2722
3981,887.0,0.2602
3998,889.5,0.2476
4014,892.0,0.2356
4030,894.5,0.2241
4046,897.0,0.2129
4063,899.5,0.2011
4079,902.0,0.19
4095,904.5,0.1793
4111,907.0,0.1687
4128,909.5,0.1577
4144,912.0,0.1474
4160,914.5,0.1372
4176,917.0,0.1276
4193,919.5,0.1172
4209,922.0,0.1076
4225,924.5,0.0983
4241,927.0,0.0893
4257,929.5,0.0803
4273,932.0,0.0711
4290,934.5,0.0619
4306,937.0,0.0534
4322,939.5,0.0455
4338,942.0,0.0373
4354,944.5,0.0292
4370,947.0,0.0217
4387,949.5,0.0139
4403,952.0,0.0066
4419,954.5,-0.0005
4435,957.0,-0.0073
4451,959.5,-0.0141
4467,962.0,-0.0202
4483,964.5,-0.026
4499,967.0,-0.0309
4515,969.5,-0.0354
4531,972.0,-0.0391
4548,974.5,-0.042
4566,977.0,-0.0429
4583,979.5,-0.0429
4600,982.0,-0.043
4616,984.5,-0.0434
4633,987.0,-0.0436
4650,989.5,-0.0435
4666,992.0,-0.0437
4683,994.5,-0.044
4700,997.0,-0.0442
4717,999.5,-0.0442
4720,1000.0,-0.0444

File: TUT_TGA_N2_10K_100kPa_R2.csv
Time (s),Temperature (K),Mass (mg)
0.0,299.199,4.996906
16.0,299.209,4.998375
32.0,299.194,4.999125
48.0,299.207,4.999781
64.0,299.28,4.999656
80.0,299.408,4.999813
96.0,299.656,4.999625
112.0,300.02,4.999406
128.0,300.541,4.999031
144.0,301.213,4.998406
160.0,302.03,4.998188
176.0,303.016,4.997594
192.0,304.137,4.996812
208.0,305.416,4.995937
224.0,306.804,4.99475
240.0,308.331,4.993312
256.0,309.953,4.991531
272.0,311.681,4.989719
288.0,313.487,4.987281
304.0,315.367,4.984281
320.0,317.308,4.981031
336.0,319.327,4.977594
352.0,321.384,4.973375
368.0,323.499,4.968844
384.0,325.655,4.964219
400.0,327.836,4.958844
416.0,330.042,4.953531
432.0,332.292,4.947969
448.0,334.569,4.942344
464.0,336.859,4.936469
480.0,339.181,4.930656
496.0,341.522,4.924812
512.0,343.87,4.919781
528.0,346.24,4.914906
544.0,348.625,4.910094
560.0,351.012,4.906156
576.0,353.422,4.902406
592.0,355.839,4.898938
608.0,358.265,4.896281
624.0,360.68,4.894281
640.0,363.107,4.892281
656.0,365.545,4.890563
672.0,367.976,4.889219
688.0,370.407,4.888062
704.0,372.824,4.887063
720.0,375.266,4.886406
736.0,377.705,4.885781
752.0,380.123,4.885094
768.0,382.563,4.884656
784.0,384.996,4.884188
800.0,387.42,4.883875
816.0,389.861,4.883344
832.0,392.302,4.882906
848.0,394.748,4.8825
864.0,397.177,4.881906
880.0,399.616,4.881312
896.0,402.062,4.880969
912.0,404.499,4.88025
928.0,406.951,4.879938
944.0,409.411,4.879281
960.0,411.881,4.878156
976.0,414.34,4.877469
992.0,416.806,4.876344
1008.0,419.275,4.875563
1024.0,421.74,4.874562
1040.0,424.212,4.873031
1056.0,426.694,4.871656
1072.0,429.179,4.870313
1088.0,431.66,4.868531
1104.0,434.158,4.866531
1120.0,436.647,4.864438
1136.0,439.131,4.862219
1152.0,441.62,4.859437
1168.0,444.122,4.856812
1184.0,446.626,4.853781
1200.0,449.13,4.850469
1216.0,451.637,4.846562
1232.0,454.14,4.842375
1248.0,456.647,4.837906
1264.0,459.157,4.833344
1280.0,461.674,4.82775
1296.0,464.192,4.822437
1312.0,466.713,4.816344
1328.0,469.225,4.809906
1344.0,471.745,4.8035
1360.0,474.273,4.796375
1376.0,476.794,4.789656
1392.0,479.329,4.781969
1408.0,481.851,4.774281
1424.0,484.389,4.766594
1440.0,486.92,4.758594
1456.0,489.46,4.75025
1472.0,492.011,4.741281
1488.0,494.54,4.732125
1504.0,497.093,4.722813
1520.0,499.638,4.712438
1536.0,502.168,4.701375
1552.0,504.724,4.689906
1568.0,507.261,4.677281
1584.0,509.803,4.663813
1600.0,512.364,4.649219
1616.0,514.911,4.633687
1632.0,517.46,4.616813
1648.0,520.02,4.598844
1664.0,522.569,4.579625
1680.0,525.127,4.559187
1696.0,527.676,4.538031
1712.0,530.239,4.515812
1728.0,532.796,4.492
1744.0,535.356,4.467156
1760.0,537.913,4.441312
1776.0,540.463,4.413969
1792.0,543.036,4.385156
1808.0,545.594,4.354688
1824.0,548.159,4.322719
1840.0,550.712,4.289906
1856.0,553.271,4.2555
1872.0,555.836,4.219656
1888.0,558.403,4.182375
1904.0,560.966,4.143719
1920.0,563.533,4.103594
1936.0,566.101,4.061781
1952.0,568.663,4.0185
1968.0,571.243,3.97325
1984.0,573.809,3.925781
2000.0,576.386,3.876312
2016.0,578.94,3.824188
2032.0,581.519,3.769906
2048.0,584.082,3.712875
2064.0,586.639,3.653125
2080.0,589.205,3.5905
2096.0,591.777,3.525156
2112.0,594.341,3.456938
2128.0,596.905,3.385844
2144.0,599.477,3.312406
2160.0,602.041,3.236406
2176.0,604.606,3.158219
2192.0,607.171,3.077844
2208.0,609.741,2.99525
2224.0,612.31,2.909812
2240.0,614.88,2.822531
2256.0,617.448,2.732063
2272.0,620.018,2.638562
2288.0,622.583,2.541
2304.0,625.151,2.439063
2320.0,627.721,2.331281
2336.0,630.278,2.218281
2352.0,632.844,2.099281
2368.0,635.416,1.975188
2384.0,637.995,1.847344
2400.0,640.592,1.719187
2416.0,643.194,1.595625
2432.0,645.821,1.483344
2448.0,648.467,1.390125
2464.0,651.142,1.320656
2480.0,653.823,1.275281
2496.0,656.491,1.24875
2512.0,659.133,1.232219
2528.0,661.767,1.220625
2544.0,664.405,1.2105
2560.0,667.009,1.201156
2576.0,669.575,1.192594
2592.0,672.147,1.184344
2608.0,674.702,1.176406
2624.0,677.261,1.168281
2640.0,679.801,1.160344
2656.0,682.333,1.152812
2672.0,684.852,1.145187
2688.0,687.369,1.137313
2704.0,689.887,1.129812
2720.0,692.395,1.122156
2736.0,694.901,1.11425
2752.0,697.412,1.106594
2768.0,699.918,1.098812
2784.0,702.414,1.091094
2800.0,704.915,1.083375
2816.0,707.405,1.075906
2832.0,709.912,1.068
2848.0,712.401,1.060656
2864.0,714.91,1.053
2880.0,717.405,1.045344
2896.0,719.903,1.03775
2912.0,722.398,1.030219
2928.0,724.894,1.022781
2944.0,727.392,1.015406
2960.0,729.891,1.007437
2976.0,732.39,1.000219
2992.0,734.882,0.992531
3008.0,737.377,0.984781
3024.0,739.875,0.977094
3040.0,742.378,0.969562
3056.0,744.867,0.961844
3072.0,747.349,0.954094
3088.0,749.842,0.946437
3104.0,752.333,0.938812
3120.0,754.819,0.931156
3136.0,757.305,0.923281
3152.0,759.785,0.9155
3168.0,762.265,0.9075
3184.0,764.74,0.899344
3200.0,767.215,0.891406
3216.0,769.694,0.88325
3232.0,772.17,0.875063
3248.0,774.652,0.866813
3264.0,777.123,0.858469
3280.0,779.589,0.850219
3296.0,782.061,0.841656
3312.0,784.524,0.83325
3328.0,786.992,0.824875
3344.0,789.465,0.816125
3360.0,791.927,0.807656
3376.0,794.381,0.798969
3392.0,796.847,0.79025
3408.0,799.305,0.781812
3424.0,801.77,0.773
3440.0,804.214,0.764094
3456.0,806.668,0.755156
3472.0,809.122,0.746156
3488.0,811.57,0.737437
3504.0,814.025,0.728219
3520.0,816.469,0.719344
3536.0,818.92,0.710281
3552.0,821.373,0.701281
3568.0,823.822,0.692125
3584.0,826.277,0.683031
3600.0,828.731,0.673937
3616.0,831.178,0.66475
3632.0,833.627,0.655688
3648.0,836.072,0.646719
3664.0,838.519,0.637531
3680.0,840.951,0.628125
3696.0,843.385,0.619187
3712.0,845.817,0.609812
3728.0,848.247,0.600406
3744.0,850.681,0.5915
3760.0,853.119,0.581906
3776.0,855.547,0.573219
3792.0,857.978,0.563812
3808.0,860.412,0.554781
3824.0,862.835,0.545531
3840.0,865.261,0.536125
3856.0,867.695,0.526969
3872.0,870.122,0.517844
3888.0,872.547,0.508781
3904.0,874.975,0.499781
3920.0,877.398,0.490719
3936.0,879.824,0.481969
3952.0,882.247,0.472594
3968.0,884.677,0.463656
3984.0,887.099,0.454875
4000.0,889.514,0.446031
4016.0,891.935,0.437125
4032.0,894.362,0.428594
4048.0,896.779,0.419719
4064.0,899.206,0.411219
4080.0,901.641,0.402844
4096.0,904.062,0.394625
4112.0,906.493,0.38625
4128.0,908.925,0.377844
4144.0,911.356,0.369625
4160.0,913.787,0.361156
4176.0,916.214,0.353094
4192.0,918.627,0.344969
4208.0,921.039,0.337469
4224.0,923.456,0.329625
4240.0,925.866,0.321781
4256.0,928.288,0.314156
4272.0,930.709,0.306656
4288.0,933.132,0.299156
4304.0,935.549,0.291469
4320.0,937.968,0.284063
4336.0,940.385,0.276656
4352.0,942.8,0.269062
4368.0,945.212,0.262094
4384.0,947.628,0.254937
4400.0,950.054,0.247688
4416.0,952.475,0.240094
4432.0,954.892,0.233281
4448.0,957.304,0.226125
4464.0,959.727,0.219094
4480.0,962.155,0.212469
4496.0,964.586,0.205812
4512.0,966.999,0.198844
4528.0,969.409,0.192406
4544.0,971.831,0.185937
4560.0,974.253,0.179719
4576.0,976.673,0.173187
4592.0,979.097,0.166594
4608.0,981.527,0.160125
4624.0,983.953,0.153906
4640.0,986.367,0.147781
4656.0,988.78,0.14175
4672.0,991.197,0.135625
4688.0,993.61,0.1295
4704.0,996.015,0.123594
4720.0,998.429,0.1175
4731.0,999.994,0.113906

File: TUT_TGA_N2_10K_100kPa_R3.csv
Time (s),Temperature (K),Mass (mg)
0.0,299.302,4.979625
16.0,299.3,4.980469
32.0,299.301,4.981469
48.0,299.32,4.981812
64.0,299.39,4.981781
80.0,299.513,4.981781
96.0,299.743,4.981625
112.0,300.104,4.98125
128.0,300.618,4.981094
144.0,301.29,4.980625
160.0,302.118,4.980062
176.0,303.071,4.979344
192.0,304.189,4.978281
208.0,305.459,4.976812
224.0,306.851,4.975
240.0,308.352,4.972875
256.0,309.944,4.970687
272.0,311.669,4.967563
288.0,313.448,4.964188
304.0,315.334,4.960281
320.0,317.272,4.955937
336.0,319.268,4.950812
352.0,321.332,4.945406
368.0,323.428,4.939719
384.0,325.578,4.933406
400.0,327.768,4.926625
416.0,329.979,4.919906
432.0,332.235,4.912813
448.0,334.507,4.905469
464.0,336.803,4.898375
480.0,339.136,4.891531
496.0,341.472,4.885375
512.0,343.829,4.878812
528.0,346.205,4.873063
544.0,348.586,4.867531
560.0,350.991,4.86225
576.0,353.4,4.857969
592.0,355.821,4.854031
608.0,358.254,4.850563
624.0,360.672,4.847656
640.0,363.11,4.845281
656.0,365.543,4.843094
672.0,367.964,4.841469
688.0,370.402,4.84
704.0,372.831,4.838375
720.0,375.275,4.837375
736.0,377.703,4.836594
752.0,380.138,4.835875
768.0,382.586,4.834875
784.0,385.013,4.834375
800.0,387.454,4.83375
816.0,389.904,4.83325
832.0,392.335,4.832656
848.0,394.769,4.831656
864.0,397.217,4.831438
880.0,399.652,4.830812
896.0,402.108,4.830281
912.0,404.56,4.8295
928.0,407.019,4.828688
944.0,409.479,4.828125
960.0,411.938,4.827312
976.0,414.402,4.826656
992.0,416.873,4.825406
1008.0,419.341,4.824438
1024.0,421.814,4.823125
1040.0,424.288,4.822
1056.0,426.764,4.820687
1072.0,429.242,4.819
1088.0,431.729,4.816969
1104.0,434.22,4.815406
1120.0,436.718,4.813281
1136.0,439.21,4.810906
1152.0,441.714,4.808312
1168.0,444.22,4.805719
1184.0,446.718,4.802594
1200.0,449.223,4.799219
1216.0,451.732,4.795813
1232.0,454.242,4.791781
1248.0,456.748,4.787281
1264.0,459.271,4.782469
1280.0,461.797,4.777281
1296.0,464.309,4.771688
1312.0,466.834,4.765563
1328.0,469.354,4.759156
1344.0,471.874,4.752625
1360.0,474.403,4.745406
1376.0,476.945,4.738313
1392.0,479.469,4.731125
1408.0,482.002,4.723344
1424.0,484.539,4.715562
1440.0,487.076,4.707219
1456.0,489.616,4.698688
1472.0,492.159,4.690063
1488.0,494.709,4.680937
1504.0,497.24,4.671219
1520.0,499.79,4.660687
1536.0,502.342,4.649813
1552.0,504.886,4.637813
1568.0,507.435,4.625156
1584.0,509.987,4.611625
1600.0,512.536,4.596719
1616.0,515.096,4.580688
1632.0,517.641,4.563625
1648.0,520.191,4.54525
1664.0,522.745,4.525719
1680.0,525.311,4.505156
1696.0,527.866,4.48375
1712.0,530.422,4.460719
1728.0,532.984,4.436875
1744.0,535.541,4.411344
1760.0,538.101,4.384781
1776.0,540.657,4.356656
1792.0,543.215,4.3275
1808.0,545.764,4.296625
1824.0,548.332,4.2645
1840.0,550.897,4.231094
1856.0,553.458,4.195687
1872.0,556.02,4.159125
1888.0,558.594,4.121094
1904.0,561.166,4.081937
1920.0,563.74,4.040625
1936.0,566.317,3.998
1952.0,568.876,3.953687
1968.0,571.441,3.907531
1984.0,574.021,3.859469
2000.0,576.589,3.808594
2016.0,579.151,3.755625
2032.0,581.726,3.699969
2048.0,584.294,3.641656
2064.0,586.865,3.580531
2080.0,589.427,3.516656
2096.0,591.992,3.449781
2112.0,594.562,3.379781
2128.0,597.136,3.307625
2144.0,599.709,3.232438
2160.0,602.274,3.155062
2176.0,604.837,3.07525
2192.0,607.417,2.992969
2208.0,609.986,2.908656
2224.0,612.557,2.821719
2240.0,615.126,2.73275
2256.0,617.702,2.640438
2272.0,620.277,2.544125
2288.0,622.852,2.4435
2304.0,625.419,2.337969
2320.0,627.991,2.2265
2336.0,630.564,2.108625
2352.0,633.137,1.985156
2368.0,635.73,1.856688
2384.0,638.317,1.725719
2400.0,640.929,1.597156
2416.0,643.565,1.477719
2432.0,646.218,1.37625
2448.0,648.896,1.29825
2464.0,651.595,1.245781
2480.0,654.278,1.214156
2496.0,656.999,1.195406
2512.0,659.664,1.182094
2528.0,662.277,1.171156
2544.0,664.867,1.161188
2560.0,667.443,1.151688
2576.0,669.997,1.1425
2592.0,672.543,1.133562
2608.0,675.073,1.124656
2624.0,677.608,1.116094
2640.0,680.128,1.107281
2656.0,682.65,1.098781
2672.0,685.161,1.089937
2688.0,687.67,1.080938
2704.0,690.179,1.072312
2720.0,692.679,1.063219
2736.0,695.184,1.054406
2752.0,697.693,1.04525
2768.0,700.202,1.03625
2784.0,702.704,1.027031
2800.0,705.212,1.017875
2816.0,707.702,1.008719
2832.0,710.197,0.999625
2848.0,712.702,0.990594
2864.0,715.193,0.9815
2880.0,717.682,0.972375
2896.0,720.189,0.963188
2912.0,722.685,0.954156
2928.0,725.183,0.944719
2944.0,727.676,0.935469
2960.0,730.159,0.926313
2976.0,732.659,0.917
2992.0,735.147,0.907594
3008.0,737.639,0.897937
3024.0,740.123,0.888531
3040.0,742.618,0.878906
3056.0,745.102,0.869187
3072.0,747.584,0.859406
3088.0,750.063,0.8495
3104.0,752.547,0.839781
3120.0,755.023,0.829844
3136.0,757.503,0.819687
3152.0,759.993,0.809531
3168.0,762.464,0.799375
3184.0,764.941,0.789031
3200.0,767.408,0.778531
3216.0,769.87,0.767844
3232.0,772.345,0.75725
3248.0,774.808,0.746562
3264.0,777.274,0.73575
3280.0,779.739,0.724844
3296.0,782.208,0.714031
3312.0,784.671,0.702875
3328.0,787.127,0.691813
3344.0,789.583,0.680687
3360.0,792.037,0.669656
3376.0,794.494,0.658531
3392.0,796.946,0.647
3408.0,799.396,0.635625
3424.0,801.841,0.623906
3440.0,804.291,0.612531
3456.0,806.74,0.60075
3472.0,809.195,0.588906
3488.0,811.64,0.577125
3504.0,814.086,0.565344
3520.0,816.531,0.553375
3536.0,818.984,0.5415
3552.0,821.423,0.529531
3568.0,823.869,0.517406
3584.0,826.327,0.505469
3600.0,828.772,0.493125
3616.0,831.208,0.480594
3632.0,833.655,0.468313
3648.0,836.079,0.4565
3664.0,838.529,0.444562
3680.0,840.96,0.432187
3696.0,843.395,0.419875
3712.0,845.828,0.407594
3728.0,848.25,0.395562
3744.0,850.684,0.383188
3760.0,853.116,0.371094
3776.0,855.541,0.358687
3792.0,857.985,0.346594
3808.0,860.408,0.33475
3824.0,862.843,0.322812
3840.0,865.277,0.310438
3856.0,867.71,0.298562
3872.0,870.149,0.286531
3888.0,872.597,0.274656
3904.0,875.037,0.262688
3920.0,877.482,0.25075
3936.0,879.936,0.239312
3952.0,882.397,0.227625
3968.0,884.847,0.216219
3984.0,887.301,0.204594
4000.0,889.754,0.193687
4016.0,892.206,0.1825
4032.0,894.655,0.171438
4048.0,897.111,0.160625
4064.0,899.566,0.149937
4080.0,902.018,0.139344
4096.0,904.468,0.129031
4112.0,906.913,0.118813
4128.0,909.371,0.108594
4144.0,911.826,0.098563
4160.0,914.295,0.088625
4176.0,916.752,0.079
4192.0,919.232,0.069531
4208.0,921.705,0.060156
4224.0,924.185,0.050813
4240.0,926.656,0.041531
4256.0,929.134,0.032406
4272.0,931.619,0.023531
4288.0,934.103,0.014719
4304.0,936.584,0.006219
4320.0,939.07,-0.002313
4336.0,941.551,-0.010719
4352.0,944.046,-0.019
4368.0,946.536,-0.02675
4384.0,949.031,-0.03475
4400.0,951.523,-0.042656
4416.0,954.017,-0.050125
4432.0,956.496,-0.057813
4448.0,958.979,-0.064375
4464.0,961.466,-0.0715
4480.0,963.966,-0.078094
4496.0,966.47,-0.084406
4512.0,968.971,-0.090094
4528.0,971.474,-0.095344
4544.0,973.97,-0.10025
4560.0,976.452,-0.104406
4576.0,978.901,-0.107719
4592.0,981.15,-0.109219
4608.0,983.484,-0.109469
4624.0,985.854,-0.109125
4640.0,988.241,-0.109281
4656.0,990.631,-0.109375
4672.0,993.032,-0.109625
4688.0,995.431,-0.109531
4704.0,997.829,-0.109563
4720.0,999.994,-0.109594

File: TUT_Wood_TGA_N2_10K_40Pa_R1.csv
Time (s),Temperature (K),Mass (mg)
0,299.5,5.0282
148,302.0,5.0296
190,304.5,5.0294
221,307.0,5.0291
248,309.5,5.0284
272,312.0,5.0278
294,314.5,5.0266
315,317.0,5.0258
335,319.5,5.0248
354,322.0,5.0243
373,324.5,5.0234
392,327.0,5.0223
410,329.5,5.0214
428,332.0,5.0204
445,334.5,5.0197
462,337.0,5.0185
479,339.5,5.0179
496,342.0,5.0169
513,344.5,5.016
530,347.0,5.0151
546,349.5,5.0143
563,352.0,5.0135
579,354.5,5.0126
596,357.0,5.0119
612,359.5,5.0108
629,362.0,5.0098
645,364.5,5.0086
661,367.0,5.0073
677,369.5,5.0059
693,372.0,5.0038
710,374.5,5.0017
726,377.0,4.9992
742,379.5,4.9965
758,382.0,4.9934
774,384.5,4.9903
790,387.0,4.9865
806,389.5,4.9823
822,392.0,4.9779
838,394.5,4.9727
854,397.0,4.9676
870,399.5,4.9622
886,402.0,4.9565
902,404.5,4.9512
918,407.0,4.9461
934,409.5,4.9414
950,412.0,4.9374
966,414.5,4.9338
982,417.0,4.9308
998,419.5,4.9279
1013,422.0,4.9251
1029,424.5,4.9226
1045,427.0,4.9198
1061,429.5,4.9172
1077,432.0,4.9142
1092,434.5,4.9115
1108,437.0,4.9087
1124,439.5,4.9056
1140,442.0,4.9023
1155,444.5,4.899
1171,447.0,4.8954
1187,449.5,4.8912
1202,452.0,4.8876
1218,454.5,4.8831
1234,457.0,4.8784
1250,459.5,4.8733
1265,462.0,4.8678
1281,464.5,4.8614
1297,467.0,4.8553
1312,469.5,4.8485
1328,472.0,4.8408
1344,474.5,4.8327
1359,477.0,4.8245
1375,479.5,4.815
1391,482.0,4.8047
1406,484.5,4.7947
1422,487.0,4.7833
1438,489.5,4.7715
1453,492.0,4.7594
1469,494.5,4.7459
1485,497.0,4.7317
1500,499.5,4.7175
1516,502.0,4.7018
1532,504.5,4.685
1547,507.0,4.6683
1563,509.5,4.6495
1578,512.0,4.631
1594,514.5,4.6105
1610,517.0,4.5886
1625,519.5,4.5677
1641,522.0,4.5439
1657,524.5,4.5198
1672,527.0,4.4965
1688,529.5,4.4711
1703,532.0,4.4463
1719,534.5,4.4194
1735,537.0,4.3918
1750,539.5,4.3648
1766,542.0,4.3348
1782,544.5,4.3038
1797,547.0,4.2734
1813,549.5,4.2396
1829,552.0,4.2041
1844,554.5,4.1694
1860,557.0,4.1306
1876,559.5,4.0896
1892,562.0,4.047
1907,564.5,4.0048
1923,567.0,3.9574
1939,569.5,3.9081
1955,572.0,3.8565
1970,574.5,3.8056
1986,577.0,3.7488
2002,579.5,3.689
2018,582.0,3.6268
2033,584.5,3.5662
2049,587.0,3.4987
2065,589.5,3.4285
2081,592.0,3.3562
2097,594.5,3.281
2112,597.0,3.2079
2128,599.5,3.1282
2144,602.0,3.0455
2160,604.5,2.9611
2176,607.0,2.8745
2192,609.5,2.7859
2207,612.0,2.7004
2223,614.5,2.6075
2239,617.0,2.5122
2255,619.5,2.4143
2271,622.0,2.3134
2287,624.5,2.2095
2303,627.0,2.102
2319,629.5,1.9901
2335,632.0,1.8754
2351,634.5,1.7564
2367,637.0,1.6345
2383,639.5,1.5105
2399,642.0,1.3855
2414,644.5,1.2698
2430,647.0,1.1505
2446,649.5,1.0393
2462,652.0,0.9397
2477,654.5,0.8605
2492,657.0,0.7981
2508,659.5,0.7504
2523,662.0,0.7212
2538,664.5,0.7025
2554,667.0,0.6893
2569,669.5,0.6788
2585,672.0,0.6687
2601,674.5,0.6589
2617,677.0,0.6498
2633,679.5,0.6409
2649,682.0,0.6319
2665,684.5,0.6237
2681,687.0,0.6152
2697,689.5,0.6071
2713,692.0,0.5992
2729,694.5,0.5915
2745,697.0,0.5837
2762,699.5,0.5759
2778,702.0,0.5679
2794,704.5,0.5608
2810,707.0,0.5542
2826,709.5,0.5475
2842,712.0,0.5413
2859,714.5,0.5346
2875,717.0,0.5287
2891,719.5,0.5233
2907,722.0,0.5177
2924,724.5,0.5123
2940,727.0,0.5073
2956,729.5,0.5026
2972,732.0,0.4983
2989,734.5,0.4936
3005,737.0,0.4894
3021,739.5,0.4857
3038,742.0,0.4817
3054,744.5,0.478
3070,747.0,0.4748
3087,749.5,0.4712
3103,752.0,0.4681
3120,754.5,0.4648
3136,757.0,0.4616
3153,759.5,0.4582
3169,762.0,0.4557
3186,764.5,0.4528
3202,767.0,0.45
3219,769.5,0.4472
3235,772.0,0.4444
3252,774.5,0.4418
3268,777.0,0.4392
3285,779.5,0.4364
3302,782.0,0.4339
3318,784.5,0.4313
3335,787.0,0.4289
3351,789.5,0.4267
3368,792.0,0.4243
3385,794.5,0.4219
3402,797.0,0.4196
3418,799.5,0.4171
3435,802.0,0.4148
3452,804.5,0.4128
3469,807.0,0.4105
3486,809.5,0.4082
3503,812.0,0.4059
3519,814.5,0.4038
3536,817.0,0.4016
3553,819.5,0.3994
3570,822.0,0.3971
3587,824.5,0.3953
3604,827.0,0.3933
3621,829.5,0.3911
3638,832.0,0.3887
3655,834.5,0.3868
3672,837.0,0.3849
3689,839.5,0.3829
3706,842.0,0.3811
3723,844.5,0.3787
3740,847.0,0.377
3757,849.5,0.3748
3774,852.0,0.3728
3791,854.5,0.3707
3808,857.0,0.3685
3825,859.5,0.3662
3842,862.0,0.3641
3859,864.5,0.3622
3876,867.0,0.3602
3893,869.5,0.3582
3910,872.0,0.3563
3927,874.5,0.3545
3945,877.0,0.3526
3962,879.5,0.3505
3979,882.0,0.3485
3996,884.5,0.3466
4013,887.0,0.3449
4030,889.5,0.3431
4047,892.0,0.3411
4064,894.5,0.3395
4082,897.0,0.3376
4099,899.5,0.336
4116,902.0,0.3341
4133,904.5,0.3325
4150,907.0,0.3309
4167,909.5,0.3294
4184,912.0,0.3277
4202,914.5,0.3262
4219,917.0,0.3244
4236,919.5,0.3231
4253,922.0,0.3217
4270,924.5,0.3199
4287,927.0,0.3184
4304,929.5,0.3171
4322,932.0,0.3157
4339,934.5,0.3142
4356,937.0,0.3128
4373,939.5,0.3111
4390,942.0,0.3099
4408,944.5,0.3087
4425,947.0,0.3076
4442,949.5,0.3062
4459,952.0,0.3051
4477,954.5,0.3037
4494,957.0,0.3028
4511,959.5,0.3014
4528,962.0,0.3002
4546,964.5,0.2987
4563,967.0,0.2973
4580,969.5,0.2962
4597,972.0,0.2948
4615,974.5,0.2938
4632,977.0,0.2927
4649,979.5,0.2916
4666,982.0,0.2903
4683,984.5,0.2891
4701,987.0,0.2882
4718,989.5,0.2869
4735,992.0,0.2858
4752,994.5,0.2847
4769,997.0,0.2837
4787,999.5,0.2828
4790,1000.0,0.2825