Folder: matl-db/Wood/Calibration_Data/UAI

Note: Wood/Calibration_Data/UAI/README.md
# README File for Universidad Adolfo Ibáñez (UAI)
    Universidad Adolfo Ibáñez; Santiago, Chile.
    Please contact **[Name] (email)** for more information.

# Experimental conditions: milligram-scale thermogravimetric test
A custom thermogravimetric test setup was used to conduct mass loss experiments on mg-scale samples. The setup consisted of a vertical tubular furnace and an analytical balance, allowing continuous mass measurements during heating.

The crucible containing the sample was placed inside the furnace by means of a brass rod passing through the lower section of the tube. The position of the crucible is approximately 140 mm from the furnace bottom edge, lying at the center of the tube (along the longitudinal axis). The rod was mechanically connected to the analytical balance via a 3D support resting on the balance pan, allowing continuous mass measurements during the test.

The furnace was equipped with a top cover with a 2 mm diameter hole that restricts the outlet of the nitrogen flow. At the bottom of the furnace, a custom cover made of ceramic fiber was fabricated to allow the brass rod to pass through, while a copper tube was used to inject the nitrogen flow into the furnace.


Prior to each test, the system was flooded with nitrogen for 30 minutes. The same gas flow was maintained throughout the entire experiment. The nitrogen flow was controlled using a Bronkhorst F-201CV-10K-AAD-22-V mass flow controller operated via an E-8000 analog controller. 

The crucible was mechanically connected to the analytical balance through the brass rod and connected to the 3D part. 


**Reference: More information is available at: [J. Smith, et al., Journal Na,e, 20xx]

* Heating rate: 20 K/min
* Temperature program
    - Initial temperature: 35 - 40°C
    - Initial Isotherm: 900 s
    - Maximum temperature: 800°C
    - Final Isotherm: None
* Sample geometry: Powdered
* Calibration type: Two calibration procedures were performed:
  - **Mass calibration**: The analytical balance exhibited a time-dependent drift characterized by a gradual decrease in the measured mass. To quantify this effect, a blank experiment (no sample) was conducted under identical experimental conditions. The resulting drift curve was subtracted from the mass measured during each experiment. The drift was fitter using a third-order polynomial function of time (in minutes).
  - **Temperature calibration**: Since the tubular furnace reports the furnace wall temperature rather than the crucible temperature, a Type-K thermocouple connected to a Labjack T7-Pro data acquisition system was placed directly at the crucible location. The recorded temperature evolution was used to establish the calibration function relating the crucible temperature to the furnace temperature. The calibration curve was fitted using a third-order polynomial function of the furnace wall temperature (in °C). 
* Crucible
  - Type: AISI 304 Stainless Steel
  - Volume: ???
  - Diameter: 7.3 mm (Inner)
  - 

File: UAI_TGA_N2_20K_R1.csv
Time (s),Temperature (K),Mass (mg)
0.0,299.8,14.89
11.1,302.3,14.9
22.2,304.8,14.92
33.2,307.3,14.94
44.2,309.8,14.97
55.0,312.3,14.99
65.8,314.8,15.03
76.5,317.3,15.07
87.2,319.8,15.1
97.8,322.3,15.15
108.4,324.8,15.18
118.8,327.3,15.23
129.3,329.8,15.26
139.6,332.3,15.31
149.9,334.8,15.34
160.2,337.3,15.38
170.4,339.8,15.42
180.6,342.3,15.44
190.7,344.8,15.47
200.7,347.3,15.49
210.7,349.8,15.51
220.7,352.3,15.52
230.6,354.8,15.53
240.5,357.3,15.54
250.3,359.8,15.54
260.1,362.3,15.54
269.9,364.8,15.53
279.6,367.3,15.53
289.2,369.8,15.52
298.9,372.3,15.51
308.4,374.8,15.51
318.0,377.3,15.5
327.5,379.8,15.49
337.0,382.3,15.49
346.4,384.8,15.48
355.8,387.3,15.47
365.2,389.8,15.46
374.5,392.3,15.45
383.8,394.8,15.44
393.1,397.3,15.43
402.3,399.8,15.43
411.5,402.3,15.42
420.7,404.8,15.41
429.9,407.3,15.4
439.0,409.8,15.39
448.1,412.3,15.38
457.1,414.8,15.38
466.2,417.3,15.37
475.2,419.8,15.36
484.2,422.3,15.35
493.1,424.8,15.34
502.0,427.3,15.33
510.9,429.8,15.32
519.8,432.3,15.31
528.7,434.8,15.3
537.5,437.3,15.29
546.3,439.8,15.28
555.1,442.3,15.27
563.8,444.8,15.26
572.6,447.3,15.25
581.3,449.8,15.24
590.0,452.3,15.23
598.7,454.8,15.22
607.3,457.3,15.21
616.0,459.8,15.2
624.6,462.3,15.19
633.2,464.8,15.18
641.7,467.3,15.16
650.3,469.8,15.15
658.8,472.3,15.14
667.3,474.8,15.13
675.8,477.3,15.12
684.3,479.8,15.11
692.8,482.3,15.09
701.2,484.8,15.08
709.7,487.3,15.07
718.1,489.8,15.06
726.5,492.3,15.04
734.8,494.8,15.03
743.2,497.3,15.01
751.6,499.8,14.99
759.9,502.3,14.98
768.2,504.8,14.96
776.5,507.3,14.94
784.8,509.8,14.92
793.1,512.3,14.91
801.4,514.8,14.89
809.6,517.3,14.87
817.8,519.8,14.85
826.1,522.3,14.83
834.3,524.8,14.81
842.5,527.3,14.77
850.7,529.8,14.74
858.8,532.3,14.71
867.0,534.8,14.67
875.1,537.3,14.63
883.3,539.8,14.58
891.4,542.3,14.54
899.5,544.8,14.48
907.6,547.3,14.43
915.7,549.8,14.38
923.8,552.3,14.31
931.9,554.8,14.25
940.0,557.3,14.18
948.0,559.8,14.12
956.1,562.3,14.05
964.1,564.8,13.97
972.1,567.3,13.89
980.1,569.8,13.8
988.1,572.3,13.71
996.1,574.8,13.62
1004.1,577.3,13.52
1012.1,579.8,13.43
1020.1,582.3,13.32
1028.1,584.8,13.21
1036.0,587.3,13.1
1044.0,589.8,12.98
1051.9,592.3,12.86
1059.8,594.8,12.74
1067.8,597.3,12.6
1075.7,599.8,12.46
1083.6,602.3,12.33
1091.5,604.8,12.18
1099.4,607.3,12.03
1107.3,609.8,11.87
1115.2,612.3,11.71
1123.1,614.8,11.54
1131.0,617.3,11.36
1138.9,619.8,11.18
1146.7,622.3,10.98
1154.6,624.8,10.77
1162.5,627.3,10.56
1170.3,629.8,10.33
1178.2,632.3,10.11
1186.0,634.8,9.86
1193.8,637.3,9.62
1201.7,639.8,9.37
1209.5,642.3,9.11
1217.3,644.8,8.85
1225.2,647.3,8.59
1233.0,649.8,8.33
1240.8,652.3,8.07
1248.6,654.8,7.81
1256.4,657.3,7.55
1264.2,659.8,7.29
1272.0,662.3,7.05
1279.8,664.8,6.81
1287.6,667.3,6.58
1295.4,669.8,6.37
1303.2,672.3,6.16
1311.0,674.8,5.97
1318.8,677.3,5.79
1326.6,679.8,5.62
1334.4,682.3,5.47
1342.2,684.8,5.33
1349.9,687.3,5.21
1357.7,689.8,5.1
1365.5,692.3,4.99
1373.3,694.8,4.91
1381.1,697.3,4.84
1388.8,699.8,4.78
1396.6,702.3,4.73
1404.4,704.8,4.69
1412.2,707.3,4.66
1419.9,709.8,4.63
1427.7,712.3,4.6
1435.5,714.8,4.58
1443.3,717.3,4.56
1451.1,719.8,4.54
1458.8,722.3,4.52
1466.6,724.8,4.5
1474.4,727.3,4.49
1482.2,729.8,4.46
1489.9,732.3,4.44
1497.7,734.8,4.42
1505.5,737.3,4.4
1513.3,739.8,4.38
1521.1,742.3,4.36
1528.9,744.8,4.33
1536.7,747.3,4.32
1544.5,749.8,4.29
1552.2,752.3,4.28
1560.0,754.8,4.25
1567.8,757.3,4.22
1575.6,759.8,4.2
1583.4,762.3,4.18
1591.3,764.8,4.16
1599.1,767.3,4.13
1606.9,769.8,4.1
1614.7,772.3,4.08
1622.5,774.8,4.06
1630.3,777.3,4.04
1638.2,779.8,4.01
1646.0,782.3,3.98
1653.8,784.8,3.95
1661.7,787.3,3.93
1669.5,789.8,3.9
1677.4,792.3,3.88
1685.2,794.8,3.86
1693.1,797.3,3.84
1701.0,799.8,3.81
1708.8,802.3,3.78
1716.7,804.8,3.76
1724.6,807.3,3.72
1732.5,809.8,3.7
1740.4,812.3,3.67
1748.3,814.8,3.63
1756.2,817.3,3.6
1764.1,819.8,3.57
1772.0,822.3,3.53
1779.9,824.8,3.5
1787.8,827.3,3.47
1795.8,829.8,3.43
1803.7,832.3,3.4
1811.7,834.8,3.37
1819.6,837.3,3.33
1827.6,839.8,3.31
1835.6,842.3,3.27
1843.6,844.8,3.24
1851.6,847.3,3.21
1859.6,849.8,3.17
1867.6,852.3,3.14
1875.6,854.8,3.11
1883.6,857.3,3.08
1891.7,859.8,3.05
1899.7,862.3,3.02
1907.8,864.8,2.99
1915.8,867.3,2.96
1923.9,869.8,2.94
1932.0,872.3,2.91
1940.1,874.8,2.87
1948.2,877.3,2.85
1956.3,879.8,2.82
1964.4,882.3,2.78
1972.6,884.8,2.75
1980.7,887.3,2.72
1988.9,889.8,2.68
1997.1,892.3,2.65
2005.3,894.8,2.61
2013.5,897.3,2.57
2021.7,899.8,2.52
2029.9,902.3,2.48
2038.1,904.8,2.44
2046.4,907.3,2.39
2054.7,909.8,2.34
2062.9,912.3,2.29
2071.2,914.8,2.23
2079.5,917.3,2.18
2087.9,919.8,2.12
2096.2,922.3,2.07
2104.6,924.8,2.01
2112.9,927.3,1.96
2121.3,929.8,1.91
2129.7,932.3,1.85
2138.1,934.8,1.8
2146.5,937.3,1.74
2155.0,939.8,1.68
2163.5,942.3,1.63
2171.9,944.8,1.58
2180.5,947.3,1.52
2189.0,949.8,1.47
2197.5,952.3,1.42
2206.1,954.8,1.37
2214.6,957.3,1.33
2223.2,959.8,1.28
2231.9,962.3,1.23
2240.5,964.8,1.19
2249.1,967.3,1.15
2257.8,969.8,1.11
2266.5,972.3,1.07
2275.2,974.8,1.05
2282.2,976.8,1.01

File: UAI_TGA_N2_20K_R2.csv
Time (s),Temperature (K),Mass (mg)
0,299.837,14.93
9,301.853,14.96
18,303.881,14.98
27,305.919,15.01
36,307.969,15.04
45,310.03,15.07
54,312.101,15.1
63,314.183,15.13
72,316.276,15.17
81,318.379,15.2
90,320.493,15.23
99,322.617,15.27
108,324.752,15.3
117,326.897,15.34
126,329.052,15.37
135,331.217,15.4
144,333.393,15.44
153,335.579,15.47
162,337.774,15.51
171,339.979,15.54
180,342.195,15.57
189,344.42,15.6
198,346.654,15.62
207,348.899,15.64
216,351.152,15.66
225,353.416,15.68
234,355.688,15.69
243,357.97,15.71
252,360.262,15.71
261,362.562,15.72
270,364.872,15.73
279,367.19,15.73
288,369.518,15.74
297,371.854,15.74
306,374.2,15.75
315,376.554,15.76
324,378.916,15.76
333,381.288,15.77
342,383.668,15.77
351,386.056,15.78
360,388.453,15.78
369,390.858,15.78
378,393.271,15.78
387,395.693,15.78
396,398.123,15.78
405,400.561,15.79
414,403.006,15.79
423,405.46,15.8
432,407.922,15.81
441,410.391,15.81
450,412.868,15.82
459,415.353,15.82
468,417.845,15.83
477,420.345,15.83
486,422.852,15.83
495,425.366,15.84
504,427.888,15.84
513,430.417,15.84
522,432.953,15.84
531,435.496,15.84
540,438.047,15.83
549,440.604,15.83
558,443.168,15.82
567,445.738,15.82
576,448.316,15.81
585,450.9,15.81
594,453.491,15.8
603,456.088,15.8
612,458.691,15.79
621,461.301,15.79
630,463.918,15.78
639,466.54,15.78
648,469.169,15.77
657,471.804,15.76
666,474.444,15.76
675,477.091,15.75
684,479.744,15.75
693,482.402,15.74
702,485.066,15.73
711,487.736,15.73
720,490.411,15.72
729,493.092,15.71
738,495.778,15.7
747,498.47,15.69
756,501.167,15.69
765,503.869,15.68
774,506.576,15.67
783,509.289,15.66
792,512.006,15.65
801,514.728,15.63
810,517.456,15.61
819,520.188,15.59
828,522.925,15.57
837,525.666,15.55
846,528.412,15.52
855,531.163,15.49
864,533.918,15.46
873,536.677,15.43
882,539.441,15.39
891,542.209,15.35
900,544.981,15.31
909,547.758,15.26
918,550.538,15.21
927,553.322,15.15
936,556.111,15.09
945,558.903,15.03
954,561.698,14.95
963,564.498,14.88
972,567.301,14.79
981,570.107,14.7
990,572.918,14.6
999,575.731,14.5
1008,578.548,14.39
1017,581.368,14.27
1026,584.191,14.15
1035,587.017,14.02
1044,589.847,13.88
1053,592.679,13.74
1062,595.514,13.58
1071,598.353,13.43
1080,601.193,13.26
1089,604.037,13.08
1098,606.883,12.9
1107,609.732,12.7
1116,612.583,12.5
1125,615.437,12.29
1134,618.293,12.06
1143,621.151,11.83
1152,624.011,11.58
1161,626.874,11.32
1170,629.738,11.05
1179,632.605,10.77
1188,635.474,10.48
1197,638.344,10.18
1206,641.216,9.880000
1215,644.09,9.570000
1224,646.965,9.260000
1233,649.842,8.950000
1242,652.721,8.660000
1251,655.601,8.360000
1260,658.482,8.080000
1269,661.365,7.810000
1278,664.249,7.550000
1287,667.133,7.310000
1296,670.019,7.090000
1305,672.906,6.880000
1314,675.794,6.700000
1323,678.683,6.530000
1332,681.573,6.390000
1341,684.463,6.270000
1350,687.354,6.170000
1359,690.245,6.080000
1368,693.137,6.010000
1377,696.03,5.960000
1386,698.923,5.920000
1395,701.816,5.890000
1404,704.709,5.870000
1413,707.602,5.860000
1422,710.496,5.850000
1431,713.389,5.850000
1440,716.283,5.840000
1449,719.176,5.830000
1458,722.069,5.820000
1467,724.962,5.810000
1476,727.855,5.800000
1485,730.747,5.780000
1494,733.639,5.770000
1503,736.53,5.740000
1512,739.42,5.720000
1521,742.31,5.690000
1530,745.199,5.660000
1539,748.087,5.630000
1548,750.974,5.600000
1557,753.861,5.570000
1566,756.746,5.540000
1575,759.63,5.510000
1584,762.513,5.480000
1593,765.395,5.450000
1602,768.275,5.420000
1611,771.154,5.380000
1620,774.031,5.350000
1629,776.907,5.320000
1638,779.781,5.290000
1647,782.654,5.250000
1656,785.525,5.220000
1665,788.394,5.180000
1674,791.261,5.150000
1683,794.126,5.120000
1692,796.989,5.080000
1701,799.85,5.050000
1710,802.709,5.020000
1719,805.566,4.990000
1728,808.42,4.960000
1737,811.272,4.920000
1746,814.121,4.890000
1755,816.968,4.860000
1764,819.813,4.820000
1773,822.654,4.790000
1782,825.493,4.750000
1791,828.329,4.720000
1800,831.162,4.680000
1809,833.992,4.640000
1818,836.82,4.600000
1827,839.644,4.560000
1836,842.465,4.530000
1845,845.282,4.490000
1854,848.097,4.450000
1863,850.908,4.420000
1872,853.715,4.380000
1881,856.519,4.340000
1890,859.32,4.300000
1899,862.117,4.250000
1908,864.91,4.210000
1917,867.699,4.170000
1926,870.484,4.130000
1935,873.266,4.080000
1944,876.043,4.040000
1953,878.817,4.000000
1962,881.586,3.950000
1971,884.351,3.900000
1980,887.111,3.860000
1989,889.868,3.810000
1998,892.62,3.760000
2007,895.367,3.720000
2016,898.11,3.680000
2025,900.848,3.640000
2034,903.581,3.590000
2043,906.31,3.550000
2052,909.034,3.500000
2061,911.752,3.460000
2070,914.466,3.410000
2079,917.175,3.370000
2088,919.879,3.330000
2097,922.577,3.280000
2106,925.27,3.240000
2115,927.958,3.190000
2124,930.64,3.150000
2133,933.317,3.110000
2142,935.988,3.070000
2151,938.654,3.020000
2160,941.314,2.980000
2169,943.968,2.940000
2178,946.616,2.890000
2187,949.259,2.850000
2196,951.895,2.810000
2205,954.525,2.760000
2214,957.15,2.710000
2223,959.768,2.670000
2232,962.379,2.620000
2241,964.985,2.570000
2250,967.584,2.520000
2259,970.176,2.470000
2268,972.762,2.420000
2277,975.341,2.370000
2283,977.057,2.330000

File: UAI_TGA_N2_20K_R3.csv
Time (s),Temperature (K),Mass (mg)
0,300.508,14.95
9,302.528,14.96
18,304.559,14.98
27,306.601,15
36,308.655,15.02
45,310.719,15.04
54,312.794,15.06
63,314.879,15.09
72,316.976,15.11
81,319.082,15.13
90,321.2,15.16
99,323.328,15.18
108,325.466,15.2
117,327.614,15.23
126,329.773,15.25
135,331.942,15.28
144,334.12,15.3
153,336.309,15.32
162,338.508,15.34
171,340.717,15.36
180,342.935,15.38
189,345.163,15.4
198,347.401,15.41
207,349.649,15.42
216,351.906,15.43
225,354.172,15.44
234,356.448,15.44
243,358.733,15.45
252,361.027,15.45
261,363.331,15.45
270,365.643,15.45
279,367.965,15.45
288,370.296,15.45
297,372.635,15.45
306,374.983,15.45
315,377.34,15.45
324,379.706,15.44
333,382.08,15.44
342,384.463,15.43
351,386.854,15.42
360,389.254,15.42
369,391.662,15.41
378,394.078,15.4
387,396.502,15.4
396,398.935,15.39
405,401.375,15.39
414,403.823,15.38
423,406.28,15.38
432,408.744,15.38
441,411.216,15.37
450,413.695,15.37
459,416.183,15.36
468,418.677,15.36
477,421.18,15.36
486,423.689,15.36
495,426.206,15.35
504,428.73,15.35
513,431.262,15.35
522,433.8,15.35
531,436.346,15.35
540,438.898,15.35
549,441.458,15.35
558,444.024,15.35
567,446.597,15.35
576,449.176,15.35
585,451.763,15.35
594,454.356,15.35
603,456.955,15.35
612,459.561,15.35
621,462.173,15.35
630,464.791,15.35
639,467.416,15.34
648,470.046,15.34
657,472.683,15.34
666,475.326,15.33
675,477.975,15.33
684,480.629,15.32
693,483.289,15.31
702,485.955,15.3
711,488.627,15.29
720,491.304,15.28
729,493.987,15.26
738,496.675,15.25
747,499.368,15.23
756,502.067,15.21
765,504.771,15.19
774,507.48,15.17
783,510.194,15.15
792,512.913,15.13
801,515.637,15.11
810,518.366,15.08
819,521.1,15.06
828,523.838,15.03
837,526.581,15
846,529.329,14.97
855,532.081,14.94
864,534.837,14.91
873,537.598,14.87
882,540.363,14.83
891,543.133,14.79
900,545.906,14.74
909,548.684,14.69
918,551.466,14.64
927,554.251,14.58
936,557.041,14.52
945,559.834,14.45
954,562.631,14.37
963,565.432,14.29
972,568.236,14.21
981,571.044,14.13
990,573.855,14.03
999,576.67,13.94
1008,579.487,13.84
1017,582.309,13.73
1026,585.133,13.61
1035,587.96,13.49
1044,590.791,13.36
1053,593.624,13.23
1062,596.46,13.09
1071,599.299,12.94
1080,602.141,12.78
1089,604.985,12.62
1098,607.832,12.44
1107,610.682,12.26
1116,613.534,12.06
1125,616.388,11.85
1134,619.245,11.64
1143,622.104,11.41
1152,624.965,11.17
1161,627.829,10.92
1170,630.694,10.65
1179,633.561,10.38
1188,636.43,10.09
1197,639.301,9.800000
1206,642.174,9.510000
1215,645.048,9.210000
1224,647.924,8.900000
1233,650.802,8.600000
1242,653.681,8.310000
1251,656.561,8.020000
1260,659.443,7.740000
1269,662.326,7.480000
1278,665.21,7.230000
1287,668.095,7.000000
1296,670.982,6.780000
1305,673.869,6.580000
1314,676.757,6.400000
1323,679.646,6.230000
1332,682.536,6.090000
1341,685.426,5.960000
1350,688.318,5.860000
1359,691.209,5.770000
1368,694.101,5.690000
1377,696.994,5.640000
1386,699.887,5.590000
1395,702.78,5.560000
1404,705.673,5.530000
1413,708.567,5.520000
1422,711.46,5.500000
1431,714.354,5.490000
1440,717.247,5.480000
1449,720.141,5.470000
1458,723.034,5.450000
1467,725.927,5.440000
1476,728.819,5.420000
1485,731.711,5.400000
1494,734.602,5.380000
1503,737.493,5.350000
1512,740.384,5.320000
1521,743.273,5.290000
1530,746.162,5.260000
1539,749.05,5.230000
1548,751.937,5.200000
1557,754.822,5.160000
1566,757.707,5.130000
1575,760.591,5.090000
1584,763.474,5.050000
1593,766.355,5.010000
1602,769.235,4.980000
1611,772.113,4.940000
1620,774.99,4.900000
1629,777.865,4.870000
1638,780.739,4.830000
1647,783.611,4.790000
1656,786.481,4.760000
1665,789.35,4.720000
1674,792.216,4.680000
1683,795.081,4.650000
1692,797.943,4.610000
1701,800.804,4.570000
1710,803.662,4.530000
1719,806.517,4.490000
1728,809.371,4.450000
1737,812.222,4.410000
1746,815.071,4.370000
1755,817.917,4.330000
1764,820.76,4.290000
1773,823.601,4.260000
1782,826.439,4.220000
1791,829.274,4.190000
1800,832.106,4.150000
1809,834.935,4.110000
1818,837.761,4.070000
1827,840.584,4.030000
1836,843.404,3.990000
1845,846.221,3.950000
1854,849.034,3.910000
1863,851.844,3.860000
1872,854.65,3.820000
1881,857.453,3.780000
1890,860.253,3.740000
1899,863.048,3.690000
1908,865.84,3.650000
1917,868.628,3.600000
1926,871.412,3.550000
1935,874.192,3.500000
1944,876.968,3.440000
1953,879.74,3.390000
1962,882.508,3.330000
1971,885.271,3.280000
1980,888.031,3.220000
1989,890.785,3.160000
1998,893.536,3.100000
2007,896.282,3.040000
2016,899.023,2.980000
2025,901.759,2.920000
2034,904.491,2.870000
2043,907.218,2.810000
2052,909.94,2.750000
2061,912.658,2.700000
2070,915.37,2.650000
2079,918.077,2.590000
2088,920.779,2.540000
2097,923.475,2.490000
2106,926.167,2.430000
2115,928.853,2.380000
2124,931.533,2.340000
2133,934.208,2.290000
2142,936.878,2.240000
2151,939.541,2.190000
2160,942.199,2.150000
2169,944.851,2.100000
2178,947.498,2.050000
2187,950.138,2.010000
2196,952.773,1.960000
2205,955.401,1.910000
2214,958.023,1.860000
2223,960.639,1.820000
2232,963.249,1.770000
2241,965.852,1.720000
2250,968.449,1.670000
2259,971.039,1.620000
2268,973.623,1.570000
2277,976.2,1.510000
2283,977.914,1.480000

File: UAI_Wood_TGA_N2_20K_R2.csv
Time (s),Temperature (K),Mass (mg)
0.0,299.8,14.93
11.1,302.3,14.97
22.2,304.8,14.99
33.2,307.3,15.03
44.2,309.8,15.07
55.0,312.3,15.1
65.8,314.8,15.14
76.5,317.3,15.19
87.2,319.8,15.22
97.8,322.3,15.27
108.4,324.8,15.3
118.8,327.3,15.35
129.3,329.8,15.38
139.6,332.3,15.43
149.9,334.8,15.46
160.2,337.3,15.5
170.4,339.8,15.54
180.6,342.3,15.57
190.7,344.8,15.61
200.7,347.3,15.63
210.7,349.8,15.65
220.7,352.3,15.67
230.6,354.8,15.69
240.5,357.3,15.7
250.3,359.8,15.71
260.1,362.3,15.72
269.9,364.8,15.73
279.6,367.3,15.73
289.2,369.8,15.74
298.9,372.3,15.75
308.4,374.8,15.75
318.0,377.3,15.76
327.5,379.8,15.77
337.0,382.3,15.77
346.4,384.8,15.77
355.8,387.3,15.78
365.2,389.8,15.78
374.5,392.3,15.78
383.8,394.8,15.78
393.1,397.3,15.78
402.3,399.8,15.79
411.5,402.3,15.79
420.7,404.8,15.8
429.9,407.3,15.8
439.0,409.8,15.81
448.1,412.3,15.82
457.1,414.8,15.82
466.2,417.3,15.83
475.2,419.8,15.83
484.2,422.3,15.83
493.1,424.8,15.83
502.0,427.3,15.84
510.9,429.8,15.84
519.8,432.3,15.84
528.7,434.8,15.84
537.5,437.3,15.83
546.3,439.8,15.83
555.1,442.3,15.82
563.8,444.8,15.82
572.6,447.3,15.81
581.3,449.8,15.81
590.0,452.3,15.81
598.7,454.8,15.8
607.3,457.3,15.8
616.0,459.8,15.79
624.6,462.3,15.78
633.2,464.8,15.78
641.7,467.3,15.77
650.3,469.8,15.77
658.8,472.3,15.76
667.3,474.8,15.76
675.8,477.3,15.75
684.3,479.8,15.75
692.8,482.3,15.74
701.2,484.8,15.73
709.7,487.3,15.73
718.1,489.8,15.72
726.5,492.3,15.71
734.8,494.8,15.71
743.2,497.3,15.7
751.6,499.8,15.69
759.9,502.3,15.68
768.2,504.8,15.68
776.5,507.3,15.67
784.8,509.8,15.66
793.1,512.3,15.65
801.4,514.8,15.63
809.6,517.3,15.61
817.8,519.8,15.59
826.1,522.3,15.58
834.3,524.8,15.56
842.5,527.3,15.53
850.7,529.8,15.5
858.8,532.3,15.48
867.0,534.8,15.45
875.1,537.3,15.42
883.3,539.8,15.38
891.4,542.3,15.35
899.5,544.8,15.31
907.6,547.3,15.26
915.7,549.8,15.23
923.8,552.3,15.17
931.9,554.8,15.12
940.0,557.3,15.06
948.0,559.8,15.0
956.1,562.3,14.94
964.1,564.8,14.87
972.1,567.3,14.79
980.1,569.8,14.71
988.1,572.3,14.62
996.1,574.8,14.53
1004.1,577.3,14.43
1012.1,579.8,14.34
1020.1,582.3,14.23
1028.1,584.8,14.12
1036.0,587.3,14.0
1044.0,589.8,13.88
1051.9,592.3,13.75
1059.8,594.8,13.62
1067.8,597.3,13.48
1075.7,599.8,13.34
1083.6,602.3,13.19
1091.5,604.8,13.03
1099.4,607.3,12.87
1107.3,609.8,12.69
1115.2,612.3,12.52
1123.1,614.8,12.33
1131.0,617.3,12.14
1138.9,619.8,11.94
1146.7,622.3,11.73
1154.6,624.8,11.5
1162.5,627.3,11.28
1170.3,629.8,11.04
1178.2,632.3,10.8
1186.0,634.8,10.54
1193.8,637.3,10.29
1201.7,639.8,10.02
1209.5,642.3,9.76
1217.3,644.8,9.49
1225.2,647.3,9.22
1233.0,649.8,8.95
1240.8,652.3,8.7
1248.6,654.8,8.44
1256.4,657.3,8.19
1264.2,659.8,7.95
1272.0,662.3,7.72
1279.8,664.8,7.5
1287.6,667.3,7.29
1295.4,669.8,7.1
1303.2,672.3,6.92
1311.0,674.8,6.75
1318.8,677.3,6.6
1326.6,679.8,6.47
1334.4,682.3,6.36
1342.2,684.8,6.25
1349.9,687.3,6.17
1357.7,689.8,6.09
1365.5,692.3,6.03
1373.3,694.8,5.98
1381.1,697.3,5.94
1388.8,699.8,5.91
1396.6,702.3,5.88
1404.4,704.8,5.87
1412.2,707.3,5.86
1419.9,709.8,5.85
1427.7,712.3,5.85
1435.5,714.8,5.84
1443.3,717.3,5.84
1451.1,719.8,5.83
1458.8,722.3,5.82
1466.6,724.8,5.81
1474.4,727.3,5.8
1482.2,729.8,5.79
1489.9,732.3,5.77
1497.7,734.8,5.76
1505.5,737.3,5.74
1513.3,739.8,5.72
1521.1,742.3,5.69
1528.9,744.8,5.66
1536.7,747.3,5.64
1544.5,749.8,5.61
1552.2,752.3,5.59
1560.0,754.8,5.56
1567.8,757.3,5.53
1575.6,759.8,5.51
1583.4,762.3,5.48
1591.3,764.8,5.46
1599.1,767.3,5.43
1606.9,769.8,5.4
1614.7,772.3,5.37
1622.5,774.8,5.34
1630.3,777.3,5.32
1638.2,779.8,5.29
1646.0,782.3,5.25
1653.8,784.8,5.23
1661.7,787.3,5.19
1669.5,789.8,5.16
1677.4,792.3,5.14
1685.2,794.8,5.11
1693.1,797.3,5.08
1701.0,799.8,5.05
1708.8,802.3,5.02
1716.7,804.8,5.0
1724.6,807.3,4.97
1732.5,809.8,4.94
1740.4,812.3,4.91
1748.3,814.8,4.88
1756.2,817.3,4.86
1764.1,819.8,4.82
1772.0,822.3,4.79
1779.9,824.8,4.76
1787.8,827.3,4.73
1795.8,829.8,4.69
1803.7,832.3,4.66
1811.7,834.8,4.63
1819.6,837.3,4.59
1827.6,839.8,4.56
1835.6,842.3,4.53
1843.6,844.8,4.49
1851.6,847.3,4.47
1859.6,849.8,4.43
1867.6,852.3,4.39
1875.6,854.8,4.37
1883.6,857.3,4.32
1891.7,859.8,4.29
1899.7,862.3,4.25
1907.8,864.8,4.21
1915.8,867.3,4.17
1923.9,869.8,4.14
1932.0,872.3,4.1
1940.1,874.8,4.06
1948.2,877.3,4.02
1956.3,879.8,3.98
1964.4,882.3,3.94
1972.6,884.8,3.89
1980.7,887.3,3.86
1988.9,889.8,3.81
1997.1,892.3,3.77
2005.3,894.8,3.73
2013.5,897.3,3.69
2021.7,899.8,3.65
2029.9,902.3,3.61
2038.1,904.8,3.57
2046.4,907.3,3.53
2054.7,909.8,3.49
2062.9,912.3,3.45
2071.2,914.8,3.41
2079.5,917.3,3.37
2087.9,919.8,3.33
2096.2,922.3,3.29
2104.6,924.8,3.24
2112.9,927.3,3.2
2121.3,929.8,3.16
2129.7,932.3,3.12
2138.1,934.8,3.08
2146.5,937.3,3.04
2155.0,939.8,3.01
2163.5,942.3,2.97
2171.9,944.8,2.92
2180.5,947.3,2.88
2189.0,949.8,2.84
2197.5,952.3,2.8
2206.1,954.8,2.75
2214.6,957.3,2.71
2223.2,959.8,2.67
2231.9,962.3,2.62
2240.5,964.8,2.57
2249.1,967.3,2.53
2257.8,969.8,2.48
2266.5,972.3,2.43
2275.2,974.8,2.38
2282.2,976.8,2.34