Folder: matl-db/Wood/Calibration_Data/UCantabria

Note: Wood/Calibration_Data/UCantabria/README.md
# Template README File for Universidad de Cantabria (University of Cantabria)

### Experimental Conditions: TGA/DSC
A SDT-650 TA Instrument was used to conduct Thermogravimetric Analysis (TGA) experiments. 

* Heating Rate: 10 K/min
* Temperature program
  - Initial Temperature: 300 K
  - Initial Isotherm: 1500 s (hold at 300 K for 1500 s)  
  - Maximum Temperature: 1000 K
  - Final Isotherm: None
* Sample mass: 5 mg +/- 0.1 mg
* Sample geometry: Powdered
* Calibration type: Before each experiment, a baseline test was performed using an empty crucible. 
* Crucible
  - Type: Alumina
  - Diameter: 6.8 mm
  - Mass: None
  - Lid: False
  
* Carrier Gas
  - Type: Nitrogen
  - Flow rate: 50 ml/min

* Instrument
  - Type: SDT-650 TA Instrument
  - Furnace Type: Platinum
  - Notes: None

| Test Name | O2 volume % |  Initial Sample Mass (mg) | 
| --------- | :---------: | :------------------------: |
|UC\_TGA\_N2\_5K\_R1 | 0 | 3.42|  
|UC\_TGA\_N2\_5K\_R2 | 0 | 4.55|  
|UC\_TGA\_N2\_10K\_R1 | 0 | 3.79|
|UC\_TGA\_N2\_10K\_R2 | 0 | 4.81|  


### Experimental Conditions, Cone calorimeter


* Test Standard: ISO 5660
* Extraction flow rate: 24L/s
* Sample Surface Area: 0.01 m2 (nominal)
* Sample holder dimensions:
    - Square pan: 106mm x 106mm x 25mm
    - Retainer frame: Yes
    - Retaining grid: Yes
* Backing Insulation: One inch thick (2.00 cm) layer of ceramic fibre blanket.
* Thermocouple location: None/Center
* Ignition Source: spark ignitor

###### Test Heating Conditions  

|Test Name | Heat Flux (kW/m2)| Heater Temperature (K) |thickness (cm)|t_ign (s)|t_flameout (s)|
|----------|:------:| :---: |:------:| :---: | :---: |
|UC\_Cone\_60KW\_hor\_R1 | 60| 1083 | 2.56 | 10|1666|
|UC\_Cone\_60KW\_hor\_R2 | 60| 1083 | 2.56 | 14|1608|
|UC\_Cone\_60KW\_hor\_R3 | 60| 1083 | 2.56 | 14|1514|
|UC\_Cone\_60KW\_hor\_R4 | 60| 1083 | 2.56 | 12|1829|

File: UCantabria_Wood_TGA_N2_5K_R1.csv
Time (s),Temperature (K),Mass (mg)
0,300,3.426
30,302.5,3.403
60,305,3.388
90,307.5,3.372
120,310,3.353
150,312.5,3.334
180,315,3.319
210,317.5,3.305
240,320,3.293
270,322.5,3.283
300,325,3.273
330,327.5,3.265
360,330,3.257
390,332.5,3.250
420,335,3.244
450,337.5,3.239
480,340,3.235
510,342.5,3.231
540,345,3.228
570,347.5,3.225
600,350,3.223
630,352.5,3.222
660,355,3.220
690,357.5,3.220
720,360,3.219
750,362.5,3.219
780,365,3.219
810,367.5,3.219
840,370,3.219
870,372.5,3.219
900,375,3.219
930,377.5,3.219
960,380,3.220
990,382.5,3.220
1020,385,3.220
1050,387.5,3.220
1080,390,3.220
1110,392.5,3.220
1140,395,3.220
1170,397.5,3.220
1200,400,3.220
1230,402.5,3.220
1260,405,3.220
1290,407.5,3.220
1320,410,3.219
1350,412.5,3.219
1380,415,3.218
1410,417.5,3.218
1440,420,3.217
1470,422.5,3.216
1500,425,3.215
1530,427.5,3.213
1560,430,3.211
1590,432.5,3.209
1620,435,3.207
1650,437.5,3.205
1680,440,3.202
1710,442.5,3.198
1740,445,3.194
1770,447.5,3.190
1800,450,3.185
1830,452.5,3.180
1860,455,3.174
1890,457.5,3.168
1920,460,3.160
1950,462.5,3.153
1980,465,3.144
2010,467.5,3.135
2040,470,3.126
2070,472.5,3.116
2100,475,3.106
2130,477.5,3.095
2160,480,3.084
2190,482.5,3.073
2220,485,3.062
2250,487.5,3.051
2280,490,3.039
2310,492.5,3.027
2340,495,3.014
2370,497.5,3.000
2400,500,2.986
2430,502.5,2.970
2460,505,2.954
2490,507.5,2.937
2520,510,2.919
2550,512.5,2.900
2580,515,2.879
2610,517.5,2.858
2640,520,2.837
2670,522.5,2.814
2700,525,2.791
2730,527.5,2.767
2760,530,2.743
2790,532.5,2.718
2820,535,2.693
2850,537.5,2.667
2880,540,2.640
2910,542.5,2.613
2940,545,2.586
2970,547.5,2.557
3000,550,2.529
3030,552.5,2.499
3060,555,2.468
3090,557.5,2.436
3120,560,2.403
3150,562.5,2.369
3180,565,2.332
3210,567.5,2.294
3240,570,2.254
3270,572.5,2.211
3300,575,2.167
3330,577.5,2.120
3360,580,2.070
3390,582.5,2.018
3420,585,1.964
3450,587.5,1.908
3480,590,1.850
3510,592.5,1.790
3540,595,1.729
3570,597.5,1.666
3600,600,1.601
3630,602.5,1.535
3660,605,1.468
3690,607.5,1.398
3720,610,1.326
3750,612.5,1.252
3780,615,1.176
3810,617.5,1.097
3840,620,1.017
3870,622.5,0.936
3900,625,0.855
3930,627.5,0.777
3960,630,0.704
3990,632.5,0.638
4020,635,0.579
4050,637.5,0.528
4080,640,0.488
4110,642.5,0.458
4140,645,0.438
4170,647.5,0.424
4200,650,0.414
4230,652.5,0.405
4260,655,0.397
4290,657.5,0.390
4320,660,0.383
4350,662.5,0.376
4380,665,0.369
4410,667.5,0.362
4440,670,0.355
4470,672.5,0.349
4500,675,0.342
4530,677.5,0.336
4560,680,0.329
4590,682.5,0.323
4620,685,0.317
4650,687.5,0.310
4680,690,0.304
4710,692.5,0.298
4740,695,0.293
4770,697.5,0.287
4800,700,0.282
4830,702.5,0.276
4860,705,0.271
4890,707.5,0.266
4920,710,0.262
4950,712.5,0.257
4980,715,0.253
5010,717.5,0.249
5040,720,0.245
5070,722.5,0.242
5100,725,0.238
5130,727.5,0.235
5160,730,0.231
5190,732.5,0.228
5220,735,0.225
5250,737.5,0.222
5280,740,0.220
5310,742.5,0.217
5340,745,0.214
5370,747.5,0.212
5400,750,0.209
5430,752.5,0.207
5460,755,0.204
5490,757.5,0.202
5520,760,0.200
5550,762.5,0.198
5580,765,0.196
5610,767.5,0.194
5640,770,0.192
5670,772.5,0.190
5700,775,0.188
5730,777.5,0.186
5760,780,0.184
5790,782.5,0.182
5820,785,0.180
5850,787.5,0.178
5880,790,0.176
5910,792.5,0.174
5940,795,0.173
5970,797.5,0.171
6000,800,0.169
6030,802.5,0.168
6060,805,0.166
6090,807.5,0.164
6120,810,0.163
6150,812.5,0.161
6180,815,0.160
6210,817.5,0.158
6240,820,0.157
6270,822.5,0.155
6300,825,0.154
6330,827.5,0.152
6360,830,0.151
6390,832.5,0.149
6420,835,0.148
6450,837.5,0.146
6480,840,0.145
6510,842.5,0.143
6540,845,0.142
6570,847.5,0.141
6600,850,0.139
6630,852.5,0.138
6660,855,0.137
6690,857.5,0.135
6720,860,0.134
6750,862.5,0.133
6780,865,0.131
6810,867.5,0.130
6840,870,0.129
6870,872.5,0.128
6900,875,0.127
6930,877.5,0.125
6960,880,0.124
6990,882.5,0.123
7020,885,0.122
7050,887.5,0.121
7080,890,0.120
7110,892.5,0.119
7140,895,0.118
7170,897.5,0.117
7200,900,0.116
7230,902.5,0.116
7260,905,0.115
7290,907.5,0.114
7320,910,0.113
7350,912.5,0.112
7380,915,0.111
7410,917.5,0.111
7440,920,0.110
7470,922.5,0.109
7500,925,0.108
7530,927.5,0.108
7560,930,0.107
7590,932.5,0.106
7620,935,0.105
7650,937.5,0.105
7680,940,0.104
7710,942.5,0.103
7740,945,0.103
7770,947.5,0.102
7800,950,0.101
7830,952.5,0.101
7860,955,0.100
7890,957.5,0.099
7920,960,0.098
7950,962.5,0.098
7980,965,0.097
8010,967.5,0.096
8040,970,0.096
8070,972.5,0.095
8100,975,0.094
8130,977.5,0.094
8160,980,0.093
8190,982.5,0.092
8220,985,0.091
8250,987.5,0.090
8280,990,0.090
8310,992.5,0.089
8334,994.5,0.088

File: UCantabria_Wood_TGA_N2_5K_R2.csv
Time (s),Temperature (K),Mass (mg)
0,300,4.586
30,302.5,4.527
60,305,4.506
90,307.5,4.482
120,310,4.456
150,312.5,4.431
180,315,4.409
210,317.5,4.390
240,320,4.373
270,322.5,4.357
300,325,4.343
330,327.5,4.331
360,330,4.320
390,332.5,4.310
420,335,4.302
450,337.5,4.294
480,340,4.288
510,342.5,4.283
540,345,4.278
570,347.5,4.275
600,350,4.272
630,352.5,4.270
660,355,4.269
690,357.5,4.268
720,360,4.267
750,362.5,4.267
780,365,4.266
810,367.5,4.266
840,370,4.266
870,372.5,4.267
900,375,4.267
930,377.5,4.267
960,380,4.267
989.96,382.5,4.267
1019.96,385,4.267
1049.96,387.5,4.268
1079.96,390,4.268
1109.96,392.5,4.268
1139.96,395,4.268
1169.96,397.5,4.268
1199.96,400,4.267
1229.96,402.5,4.267
1259.96,405,4.267
1289.96,407.5,4.266
1319.96,410,4.266
1349.96,412.5,4.265
1379.96,415,4.264
1409.96,417.5,4.263
1439.96,420,4.262
1469.96,422.5,4.261
1499.96,425,4.260
1529.96,427.5,4.258
1559.96,430,4.256
1589.96,432.5,4.254
1619.96,435,4.251
1649.96,437.5,4.248
1679.96,440,4.245
1709.96,442.5,4.241
1739.96,445,4.236
1769.96,447.5,4.231
1799.96,450,4.226
1829.96,452.5,4.220
1859.96,455,4.213
1889.96,457.5,4.205
1919.96,460,4.198
1949.96,462.5,4.189
1979.96,465,4.180
2009.96,467.5,4.170
2039.96,470,4.160
2069.96,472.5,4.150
2099.96,475,4.139
2129.96,477.5,4.129
2159.96,480,4.118
2189.96,482.5,4.107
2219.96,485,4.096
2249.96,487.5,4.084
2279.96,490,4.071
2309.96,492.5,4.058
2339.96,495,4.044
2369.96,497.5,4.029
2399.96,500,4.013
2429.96,502.5,3.995
2459.96,505,3.977
2489.96,507.5,3.957
2519.96,510,3.936
2549.96,512.5,3.914
2579.96,515,3.890
2609.96,517.5,3.866
2639.96,520,3.840
2669.96,522.5,3.814
2699.96,525,3.786
2729.96,527.5,3.757
2759.96,530,3.728
2789.96,532.5,3.698
2819.96,535,3.667
2849.96,537.5,3.635
2879.96,540,3.603
2909.96,542.5,3.570
2939.96,545,3.537
2969.96,547.5,3.503
2999.96,550,3.468
3029.96,552.5,3.432
3059.96,555,3.395
3089.96,557.5,3.357
3119.96,560,3.317
3149.96,562.5,3.276
3179.96,565,3.232
3209.96,567.5,3.187
3239.96,570,3.139
3269.96,572.5,3.088
3299.96,575,3.035
3329.96,577.5,2.978
3359.96,580,2.919
3389.96,582.5,2.855
3419.96,585,2.789
3449.96,587.5,2.720
3479.96,590,2.649
3509.96,592.5,2.576
3539.96,595,2.502
3569.96,597.5,2.426
3599.96,600,2.349
3629.96,602.5,2.270
3659.96,605,2.190
3689.96,607.5,2.107
3719.96,610,2.021
3749.96,612.5,1.933
3779.96,615,1.842
3809.96,617.5,1.749
3839.96,620,1.653
3869.96,622.5,1.556
3899.96,625,1.459
3929.96,627.5,1.365
3959.96,630,1.276
3989.96,632.5,1.196
4019.96,635,1.129
4049.96,637.5,1.072
4079.96,640,1.024
4109.96,642.5,0.989
4139.96,645,0.964
4169.96,647.5,0.948
4199.96,650,0.935
4229.96,652.5,0.925
4259.96,655,0.916
4289.96,657.5,0.907
4319.96,660,0.898
4349.96,662.5,0.890
4379.96,665,0.881
4409.96,667.5,0.873
4439.96,670,0.865
4469.96,672.5,0.857
4499.96,675,0.849
4529.96,677.5,0.841
4559.96,680,0.833
4589.96,682.5,0.825
4619.96,685,0.818
4649.96,687.5,0.810
4679.96,690,0.803
4709.96,692.5,0.795
4739.96,695,0.788
4769.96,697.5,0.782
4799.96,700,0.775
4829.96,702.5,0.769
4859.96,705,0.762
4889.96,707.5,0.756
4919.96,710,0.751
4949.96,712.5,0.745
4979.96,715,0.740
5009.96,717.5,0.735
5039.96,720,0.731
5069.96,722.5,0.726
5099.96,725,0.722
5129.96,727.5,0.717
5159.96,730,0.713
5189.96,732.5,0.710
5219.96,735,0.706
5249.96,737.5,0.702
5279.96,740,0.699
5309.96,742.5,0.696
5339.96,745,0.692
5369.96,747.5,0.689
5399.96,750,0.686
5429.96,752.5,0.683
5459.96,755,0.681
5489.96,757.5,0.678
5519.96,760,0.675
5549.96,762.5,0.672
5579.96,765,0.670
5609.96,767.5,0.667
5639.96,770,0.665
5669.96,772.5,0.662
5699.96,775,0.660
5729.96,777.5,0.658
5759.96,780,0.655
5789.96,782.5,0.653
5819.96,785,0.651
5849.96,787.5,0.649
5879.96,790,0.647
5909.96,792.5,0.644
5939.96,795,0.642
5969.96,797.5,0.640
5999.96,800,0.638
6029.96,802.5,0.636
6059.96,805,0.634
6089.96,807.5,0.632
6119.96,810,0.630
6149.96,812.5,0.629
6179.96,815,0.627
6209.96,817.5,0.625
6239.96,820,0.623
6269.96,822.5,0.621
6299.96,825,0.619
6329.96,827.5,0.617
6359.96,830,0.616
6389.96,832.5,0.614
6419.96,835,0.612
6449.96,837.5,0.610
6479.96,840,0.609
6509.96,842.5,0.607
6539.96,845,0.605
6569.96,847.5,0.604
6599.96,850,0.602
6629.96,852.5,0.600
6659.96,855,0.599
6689.96,857.5,0.597
6719.96,860,0.595
6749.96,862.5,0.594
6779.96,865,0.592
6809.96,867.5,0.591
6839.96,870,0.589
6869.96,872.5,0.588
6899.96,875,0.587
6929.96,877.5,0.585
6959.96,880,0.584
6989.96,882.5,0.583
7019.96,885,0.582
7049.96,887.5,0.580
7079.96,890,0.579
7109.96,892.5,0.578
7139.96,895,0.577
7169.96,897.5,0.576
7199.96,900,0.575
7229.96,902.5,0.574
7259.96,905,0.572
7289.96,907.5,0.571
7319.96,910,0.571
7349.96,912.5,0.570
7379.96,915,0.569
7409.96,917.5,0.568
7439.96,920,0.567
7469.96,922.5,0.566
7499.96,925,0.565
7529.96,927.5,0.564
7559.96,930,0.563
7589.96,932.5,0.562
7619.96,935,0.562
7649.96,937.5,0.561
7679.96,940,0.560
7709.96,942.5,0.559
7739.96,945,0.558
7769.96,947.5,0.558
7799.96,950,0.557
7829.96,952.5,0.556
7859.96,955,0.555
7889.96,957.5,0.554
7919.96,960,0.554
7949.96,962.5,0.553
7979.96,965,0.552
8009.96,967.5,0.551
8039.96,970,0.550
8069.96,972.5,0.549
8099.96,975,0.549
8129.96,977.5,0.548
8159.96,980,0.547
8189.96,982.5,0.546
8219.96,985,0.545
8249.96,987.5,0.544
8279.96,990,0.543
8309.96,992.5,0.542
8333.96,994.5,0.542

File: UCantabria_Wood_TGA_N2_10K_R1.csv
Time (s),Temperature (K),Mass (mg)
0,305,3.792
15,307.5,3.785
30,310,3.777
45,312.5,3.769
60,315,3.760
75,317.5,3.750
90,320,3.739
105,322.5,3.728
120,325,3.717
135,327.5,3.707
150,330,3.697
165,332.5,3.688
180,335,3.679
195,337.5,3.671
210,340,3.664
225,342.5,3.657
240,345,3.651
255,347.5,3.646
270,350,3.641
285,352.5,3.637
300,355,3.634
315,357.5,3.631
330,360,3.629
345,362.5,3.628
360,365,3.627
375,367.5,3.626
390,370,3.625
405,372.5,3.625
420,375,3.625
435,377.5,3.625
450,380,3.625
465,382.5,3.626
480,385,3.626
495,387.5,3.626
510,390,3.626
525,392.5,3.626
540,395,3.627
555,397.5,3.627
570,400,3.627
585,402.5,3.627
600,405,3.627
615,407.5,3.627
630,410,3.627
645,412.5,3.626
660,415,3.626
675,417.5,3.626
690,420,3.625
705,422.5,3.625
720,425,3.624
735,427.5,3.624
750,430,3.623
765,432.5,3.622
780,435,3.620
795,437.5,3.619
810,440,3.617
825,442.5,3.616
840,445,3.614
855,447.5,3.611
870,450,3.608
885,452.5,3.605
900,455,3.602
915,457.5,3.598
930,460,3.593
945,462.5,3.589
960,465,3.583
975,467.5,3.577
990,470,3.570
1005,472.5,3.563
1020,475,3.555
1035,477.5,3.546
1050,480,3.537
1065,482.5,3.527
1080,485,3.517
1095,487.5,3.506
1110,490,3.495
1125,492.5,3.483
1140,495,3.471
1155,497.5,3.459
1170,500,3.446
1185,502.5,3.432
1200,505,3.418
1215,507.5,3.404
1230,510,3.389
1245,512.5,3.372
1260,515,3.355
1275,517.5,3.337
1290,520,3.318
1305,522.5,3.298
1320,525,3.277
1335,527.5,3.256
1350,530,3.233
1365,532.5,3.210
1380,535,3.186
1395,537.5,3.161
1410,540,3.136
1425,542.5,3.109
1440,545,3.083
1455,547.5,3.055
1470,550,3.027
1485,552.5,2.999
1500,555,2.970
1515,557.5,2.940
1530,560,2.909
1545,562.5,2.878
1560,565,2.845
1575,567.5,2.811
1590,570,2.776
1605,572.5,2.738
1620,575,2.700
1635,577.5,2.659
1650,580,2.616
1665,582.5,2.571
1680,585,2.524
1695,587.5,2.475
1710,590,2.423
1725,592.5,2.369
1740,595,2.313
1755,597.5,2.256
1770,600,2.196
1785,602.5,2.135
1800,605,2.073
1815,607.5,2.010
1830,610,1.945
1845,612.5,1.880
1860,615,1.813
1875,617.5,1.744
1890,620,1.673
1905,622.5,1.600
1920,625,1.524
1935,627.5,1.446
1950,630,1.365
1965,632.5,1.282
1980,635,1.197
1995,637.5,1.112
2010,640,1.028
2025,642.5,0.948
2040,645,0.873
2055,647.5,0.807
2070,650,0.752
2085,652.5,0.710
2100,655,0.680
2115,657.5,0.656
2130,660,0.635
2145,662.5,0.620
2160,665,0.608
2175,667.5,0.599
2190,670,0.590
2205,672.5,0.582
2220,675,0.574
2235,677.5,0.567
2250,680,0.559
2265,682.5,0.552
2280,685,0.545
2295,687.5,0.538
2310,690,0.531
2325,692.5,0.524
2340,695,0.517
2355,697.5,0.510
2370,700,0.504
2385,702.5,0.497
2400,705,0.491
2415,707.5,0.484
2430,710,0.478
2445,712.5,0.472
2460,715,0.466
2475,717.5,0.461
2490,720,0.455
2505,722.5,0.450
2520,725,0.445
2535,727.5,0.441
2550,730,0.436
2565,732.5,0.432
2580,735,0.427
2595,737.5,0.423
2610,740,0.419
2625,742.5,0.416
2640,745,0.412
2655,747.5,0.409
2670,750,0.405
2685,752.5,0.402
2700,755,0.399
2715,757.5,0.396
2730,760,0.393
2745,762.5,0.390
2760,765,0.387
2775,767.5,0.385
2790,770,0.382
2805,772.5,0.380
2820,775,0.377
2835,777.5,0.375
2850,780,0.372
2865,782.5,0.370
2880,785,0.368
2895,787.5,0.365
2910,790,0.363
2925,792.5,0.361
2940,795,0.359
2955,797.5,0.357
2970,800,0.355
2985,802.5,0.353
3000,805,0.351
3015,807.5,0.349
3030,810,0.347
3045,812.5,0.345
3060,815,0.343
3075,817.5,0.341
3090,820,0.339
3105,822.5,0.337
3120,825,0.336
3135,827.5,0.334
3150,830,0.332
3165,832.5,0.330
3180,835,0.329
3195,837.5,0.327
3210,840,0.325
3225,842.5,0.323
3240,845,0.322
3255,847.5,0.320
3270,850,0.318
3285,852.5,0.317
3300,855,0.315
3315,857.5,0.314
3330,860,0.312
3345,862.5,0.310
3360,865,0.309
3375,867.5,0.307
3390,870,0.306
3405,872.5,0.304
3420,875,0.303
3435,877.5,0.301
3450,880,0.300
3465,882.5,0.298
3480,885,0.297
3495,887.5,0.295
3510,890,0.294
3525,892.5,0.293
3540,895,0.291
3555,897.5,0.290
3570,900,0.289
3585,902.5,0.288
3600,905,0.286
3615,907.5,0.285
3630,910,0.284
3645,912.5,0.283
3660,915,0.282
3675,917.5,0.281
3690,920,0.280
3705,922.5,0.278
3720,925,0.277
3735,927.5,0.276
3750,930,0.275
3765,932.5,0.274
3780,935,0.273
3795,937.5,0.272
3810,940,0.271
3825,942.5,0.270
3840,945,0.269
3855,947.5,0.268
3870,950,0.267
3885,952.5,0.266
3900,955,0.264
3915,957.5,0.263
3930,960,0.262
3945,962.5,0.261
3960,965,0.260
3975,967.5,0.259
3990,970,0.257
4005,972.5,0.256
4020,975,0.255
4035,977.5,0.253
4050,980,0.252
4065,982.5,0.250
4080,985,0.249
4095,987.5,0.248
4107,989.5,0.246

File: UCantabria_Wood_TGA_N2_10K_R2.csv
Time (s),Temperature (K),Mass (mg)
0,305,4.765
15,307.5,4.746
30,310,4.732
45,312.5,4.719
60,315,4.706
75,317.5,4.691
90,320,4.675
105,322.5,4.659
120,325,4.643
135,327.5,4.628
150,330,4.614
165,332.5,4.601
180,335,4.589
195,337.5,4.579
210,340,4.569
225,342.5,4.560
240,345,4.551
255,347.5,4.544
270,350,4.538
285,352.5,4.533
300,355,4.528
315,357.5,4.525
330,360,4.522
345,362.5,4.520
360,365,4.518
375,367.5,4.517
390,370,4.516
405,372.5,4.515
420,375,4.515
435,377.5,4.515
450,380,4.515
465,382.5,4.515
480,385,4.515
495,387.5,4.515
510,390,4.515
525,392.5,4.515
540,395,4.515
555,397.5,4.515
570,400,4.516
585,402.5,4.516
600,405,4.516
615,407.5,4.515
630,410,4.515
645,412.5,4.515
660,415,4.515
675,417.5,4.514
690,420,4.514
705,422.5,4.513
720,425,4.513
735,427.5,4.512
750,430,4.511
765,432.5,4.510
780,435,4.509
795,437.5,4.507
810,440,4.506
825,442.5,4.504
840,445,4.501
855,447.5,4.499
870,450,4.496
885,452.5,4.493
900,455,4.490
915,457.5,4.486
930,460,4.481
945,462.5,4.476
960,465,4.471
975,467.5,4.465
990,470,4.458
1005,472.5,4.451
1020,475,4.443
1035,477.5,4.435
1050,480,4.426
1065,482.5,4.417
1080,485,4.407
1095,487.5,4.397
1110,490,4.386
1125,492.5,4.375
1140,495,4.363
1155,497.5,4.352
1170,500,4.339
1185,502.5,4.326
1200,505,4.312
1215,507.5,4.297
1230,510,4.282
1245,512.5,4.265
1260,515,4.248
1275,517.5,4.229
1290,520,4.209
1305,522.5,4.188
1320,525,4.166
1335,527.5,4.143
1350,530,4.119
1365,532.5,4.093
1380,535,4.067
1395,537.5,4.039
1410,540,4.011
1425,542.5,3.981
1440,545,3.950
1455,547.5,3.918
1470,550,3.886
1485,552.5,3.853
1500,555,3.819
1515,557.5,3.785
1530,560,3.750
1545,562.5,3.714
1560,565,3.678
1575,567.5,3.639
1590,570,3.600
1605,572.5,3.559
1620,575,3.517
1635,577.5,3.472
1650,580,3.425
1665,582.5,3.376
1680,585,3.324
1695,587.5,3.269
1710,590,3.212
1725,592.5,3.153
1740,595,3.091
1755,597.5,3.027
1770,600,2.960
1785,602.5,2.893
1800,605,2.824
1815,607.5,2.753
1830,610,2.681
1845,612.5,2.608
1860,615,2.533
1875,617.5,2.457
1890,620,2.377
1905,622.5,2.295
1920,625,2.209
1935,627.5,2.120
1950,630,2.028
1965,632.5,1.934
1980,635,1.837
1995,637.5,1.740
2010,640,1.645
2025,642.5,1.554
2040,645,1.471
2055,647.5,1.398
2070,650,1.338
2085,652.5,1.293
2100,655,1.262
2115,657.5,1.238
2130,660,1.217
2145,662.5,1.201
2160,665,1.189
2175,667.5,1.179
2190,670,1.169
2205,672.5,1.161
2220,675,1.152
2235,677.5,1.144
2250,680,1.136
2265,682.5,1.128
2280,685,1.120
2295,687.5,1.112
2310,690,1.105
2325,692.5,1.097
2340,695,1.090
2355,697.5,1.082
2370,700,1.075
2385,702.5,1.068
2400,705,1.061
2415,707.5,1.054
2430,710,1.047
2445,712.5,1.041
2460,715,1.035
2475,717.5,1.029
2490,720,1.023
2505,722.5,1.017
2520,725,1.012
2535,727.5,1.007
2550,730,1.002
2565,732.5,0.997
2580,735,0.992
2595,737.5,0.988
2610,740,0.984
2625,742.5,0.980
2640,745,0.976
2655,747.5,0.972
2670,750,0.969
2685,752.5,0.965
2700,755,0.962
2715,757.5,0.959
2730,760,0.956
2745,762.5,0.952
2760,765,0.949
2775,767.5,0.947
2790,770,0.944
2805,772.5,0.941
2820,775,0.938
2835,777.5,0.936
2850,780,0.933
2865,782.5,0.931
2880,785,0.928
2895,787.5,0.926
2910,790,0.923
2925,792.5,0.921
2940,795,0.919
2955,797.5,0.916
2970,800,0.914
2985,802.5,0.912
3000,805,0.910
3015,807.5,0.908
3030,810,0.905
3045,812.5,0.903
3060,815,0.901
3075,817.5,0.899
3090,820,0.897
3105,822.5,0.895
3120,825,0.893
3135,827.5,0.892
3150,830,0.890
3165,832.5,0.888
3180,835,0.886
3195,837.5,0.884
3210,840,0.882
3225,842.5,0.880
3240,845,0.879
3255,847.5,0.877
3270,850,0.875
3285,852.5,0.873
3300,855,0.872
3315,857.5,0.870
3330,860,0.868
3345,862.5,0.867
3360,865,0.865
3375,867.5,0.863
3390,870,0.862
3405,872.5,0.860
3420,875,0.858
3435,877.5,0.857
3450,880,0.855
3465,882.5,0.854
3480,885,0.852
3495,887.5,0.851
3510,890,0.850
3525,892.5,0.848
3540,895,0.847
3555,897.5,0.845
3570,900,0.844
3585,902.5,0.843
3600,905,0.842
3615,907.5,0.840
3630,910,0.839
3645,912.5,0.838
3660,915,0.837
3675,917.5,0.836
3690,920,0.835
3705,922.5,0.834
3720,925,0.833
3735,927.5,0.832
3750,930,0.831
3765,932.5,0.830
3780,935,0.829
3795,937.5,0.828
3810,940,0.827
3825,942.5,0.826
3840,945,0.825
3855,947.5,0.824
3870,950,0.823
3885,952.5,0.822
3900,955,0.822
3915,957.5,0.821
3930,960,0.820
3945,962.5,0.819
3960,965,0.818
3975,967.5,0.817
3990,970,0.817
4005,972.5,0.816
4020,975,0.815
4035,977.5,0.814
4050,980,0.813
4065,982.5,0.812
4080,985,0.811
4095,987.5,0.811
4107,989.5,0.810