Folder: matl-db/Wood/Calibration_Data/UDRI (part 2)

File: UDRI_MCC_N2_60K_R2.csv
Time (s),Temperature (K),HRR (W/g)
45.8406,397.5,0.207991
47.663,399.5,-0.0120324
49.501,401.5,-0.155321
51.3534,403.5,0.125361
53.1786,405.5,0.132986
55.0501,407.5,-0.0696205
56.8589,409.5,-0.493981
58.6581,411.5,-0.28275
60.5115,413.5,-0.323895
62.4641,415.5,-0.406657
64.3913,417.5,-0.275304
66.2766,419.5,-0.120624
68.1932,421.5,0.702654
70.0396,423.5,0.65254
71.9326,425.5,0.361808
73.7871,427.5,0.37115
75.5784,429.5,0.348757
77.4643,431.5,0.375687
79.3944,433.5,0.120403
81.2927,435.5,0.209385
83.1791,437.5,0.681255
85.1163,439.5,0.726528
87.0446,441.5,0.577419
88.9608,443.5,0.685015
90.8667,445.5,1.39688
92.8479,447.5,1.82427
94.8027,449.5,1.90354
96.7189,451.5,2.13549
98.6673,453.5,2.57877
100.518,455.5,2.83342
102.474,457.5,3.08866
104.375,459.5,3.36143
106.336,461.5,3.84087
108.31,463.5,4.47314
110.278,465.5,4.60226
112.108,467.5,4.84061
114.064,469.5,5.5584
116.073,471.5,5.87836
118.157,473.5,6.66306
120.132,475.5,7.49496
122.099,477.5,8.32053
123.984,479.5,8.60383
125.924,481.5,9.09925
127.829,483.5,9.56849
129.906,485.5,10.1896
131.878,487.5,10.9217
133.87,489.5,11.412
135.816,491.5,11.7984
137.777,493.5,12.1525
139.756,495.5,12.0467
141.805,497.5,11.6883
143.809,499.5,11.8978
145.825,501.5,11.7883
147.865,503.5,11.7899
149.827,505.5,11.7581
151.753,507.5,11.0177
153.71,509.5,10.356
155.518,511.5,9.82489
157.51,513.5,9.75902
159.514,515.5,9.55055
161.637,517.5,9.65007
163.722,519.5,10.2104
165.729,521.5,11.0537
167.752,523.5,11.7739
169.755,525.5,12.0106
171.744,527.5,12.1332
173.528,529.5,12.4785
175.517,531.5,12.8962
177.545,533.5,13.2643
179.627,535.5,13.6554
181.656,537.5,14.7145
183.672,539.5,15.7475
185.755,541.5,16.6926
187.725,543.5,17.1922
189.738,545.5,18.0731
191.59,547.5,18.6394
193.592,549.5,19.338
195.618,551.5,20.0047
197.663,553.5,21.2453
199.701,555.5,22.4276
201.669,557.5,23.2283
203.607,559.5,23.9704
205.604,561.5,25.106
207.623,563.5,26.1826
209.748,565.5,27.1529
211.745,567.5,28.2226
213.771,569.5,29.5392
215.772,571.5,30.6958
217.764,573.5,31.5015
219.776,575.5,32.4857
221.718,577.5,33.3857
223.741,579.5,34.4
225.79,581.5,35.6534
227.863,583.5,37.0316
229.84,585.5,38.3357
231.838,587.5,39.6022
233.812,589.5,41.052
235.775,591.5,42.5351
237.82,593.5,43.8313
239.726,595.5,45.0166
241.686,597.5,46.5411
243.729,599.5,48.3399
245.878,601.5,50.3022
247.921,603.5,52.1904
249.955,605.5,54.2219
251.925,607.5,56.1899
253.919,609.5,58.1174
255.898,611.5,60.386
258.016,613.5,62.3478
260.032,615.5,64.3259
261.987,617.5,66.7032
264.011,619.5,69.0197
266.018,621.5,71.0273
267.974,623.5,72.9904
269.85,625.5,74.447
271.798,627.5,76.1655
273.852,629.5,78.2353
276.01,631.5,80.0772
278.057,633.5,81.9067
280.058,635.5,83.4874
282.028,637.5,85.1288
283.971,639.5,86.9981
286.038,641.5,89.3453
288.116,643.5,91.7233
290.18,645.5,94.0774
292.137,647.5,96.7082
294.127,649.5,99.9681
296.131,651.5,103.102
298.145,653.5,106.292
300.176,655.5,109.959
302.22,657.5,113.372
304.205,659.5,116.787
306.217,661.5,119.985
308.189,663.5,122.644
310.195,665.5,124.854
312.245,667.5,126.148
314.275,669.5,125.781
316.286,671.5,123.414
318.258,673.5,119.52
320.153,675.5,113.84
322.158,677.5,105.958
324.165,679.5,96.0286
326.177,681.5,84.7813
328.124,683.5,73.1492
330.128,685.5,61.0392
332.115,687.5,50.1883
334.156,689.5,40.1171
336.147,691.5,32.0033
338.044,693.5,25.6148
340.085,695.5,20.8546
342.104,697.5,17.6784
344.291,699.5,15.1903
346.321,701.5,13.6812
348.345,703.5,12.6133
350.189,705.5,12.1527
352.202,707.5,11.3967
354.206,709.5,10.6346
356.225,711.5,9.89712
358.27,713.5,9.63468
360.261,715.5,9.07164
362.347,717.5,8.86073
364.349,719.5,8.47998
366.346,721.5,8.48389
368.478,723.5,8.405
370.5,725.5,7.81827
372.458,727.5,7.50741
374.299,729.5,6.97784
376.308,731.5,6.56032
378.306,733.5,5.83146
380.273,735.5,5.42873
382.359,737.5,5.6085
384.421,739.5,5.12924
386.48,741.5,4.94237
388.503,743.5,4.80908
390.495,745.5,4.46576
392.598,747.5,4.26372
394.592,749.5,3.87758
396.585,751.5,3.50442
398.47,753.5,3.21026
400.504,755.5,3.00088
402.495,757.5,2.65453
404.529,759.5,2.34188
406.575,761.5,2.01127
408.615,763.5,1.6648
410.603,765.5,2.01427
412.586,767.5,1.85222
414.588,769.5,1.53373
416.655,771.5,1.47257
418.63,773.5,0.826089
420.606,775.5,0.842049
422.727,777.5,1.03794
424.732,779.5,0.988342
426.754,781.5,1.07579
428.598,783.5,1.14298
430.53,785.5,0.556509
432.537,787.5,0.34468
434.551,789.5,0.122422
436.585,791.5,0.0542332
438.626,793.5,-0.193726
440.718,795.5,0.0745824
442.748,797.5,0.559185
444.823,799.5,0.587688
446.808,801.5,-0.094181
448.778,803.5,0.255953
450.756,805.5,0.153171
452.835,807.5,-0.00847174
454.866,809.5,0.15741
456.842,811.5,0.201423
458.793,813.5,0.0311912
460.711,815.5,-0.489221
462.822,817.5,-0.0199519
464.855,819.5,-0.0338267
466.867,821.5,-0.123184
468.867,823.5,-0.196955
470.862,825.5,0.255265
472.869,827.5,-0.0592218
474.831,829.5,0.117854
476.818,831.5,0.169908
478.814,833.5,0.278706
480.818,835.5,-0.670501
482.808,837.5,0.138385
484.796,839.5,-0.094185
486.805,841.5,-0.0642862
488.805,843.5,-0.0107654
490.828,845.5,-0.0321824
492.822,847.5,-0.258254
494.873,849.5,0.0448932
496.813,851.5,-0.0480579
498.846,853.5,-0.149801
500.826,855.5,0.121781
502.879,857.5,-0.434659
504.864,859.5,-0.174552
506.851,861.5,-0.331362
508.877,863.5,-0.105766
510.857,865.5,-0.0864372
512.87,867.5,-0.105891
514.895,869.5,0.0600009
516.913,871.5,0.248266
518.973,873.5,0.35964
520.879,875.5,0.0267772
522.914,877.5,0.0405441
524.911,879.5,-0.0452156
526.915,881.5,0.370276
528.907,883.5,0.127176
530.918,885.5,0.0728281
532.922,887.5,-0.072285
534.897,889.5,-0.210775
536.916,891.5,-0.166951
538.877,893.5,-0.0831194
540.899,895.5,-0.333986
542.898,897.5,-0.33546
544.882,899.5,0.0186992
546.887,901.5,-0.0345813
548.923,903.5,0.618072
550.892,905.5,0.0730141
552.918,907.5,0.438857
554.91,909.5,0.0566872
556.802,911.5,0.0583143
558.816,913.5,-0.161137
560.849,915.5,-0.532961
563.085,917.5,0.49248
565.075,919.5,0.00125575
567.073,921.5,-0.402438
568.951,923.5,0.0434109
570.976,925.5,0.254486
572.955,927.5,0.144093
574.934,929.5,-0.0409997
576.915,931.5,-0.318188
578.964,933.5,-0.111514
580.954,935.5,0.400263
582.973,937.5,0.694363
584.987,939.5,0.0855764
587.06,941.5,0.473203
589.034,943.5,0.204906
591.054,945.5,0.212044
593.054,947.5,0.0332602
594.975,949.5,-0.599429
596.927,951.5,-0.146198
599.012,953.5,-0.0362179
600.99,955.5,0.360936
603.002,957.5,-0.473849
605.028,959.5,0.193907
607.013,961.5,0.134742
608.985,963.5,0.38198
610.997,965.5,-0.0124219
612.985,967.5,-0.00758292
614.961,969.5,0.127927
617.003,971.5,-0.12549
618.89,973.5,-0.0592522
620.894,975.5,0.225411
622.899,977.5,-0.177526
624.854,979.5,0.180333
626.889,981.5,-0.0962899
628.919,983.5,-0.470204
630.869,985.5,0.058768
632.845,987.5,0.0463354
634.302,989.0,-0.100901

File: UDRI_MCC_N2_60K_R3.csv
Time (s),Temperature (K),HRR (W/g)
57.2388,405.0,-1.14905
59.1515,407.0,-0.459613
61.0739,409.0,0.0655725
63.0148,411.0,0.256702
64.885,413.0,0.255024
66.7421,415.0,0.0645614
68.646,417.0,0.318879
70.5513,419.0,0.343248
72.4854,421.0,-0.250209
74.4189,423.0,-0.416642
76.2152,425.0,-0.632024
78.1452,427.0,-0.172319
80.09,429.0,0.0313937
82.1721,431.0,0.613174
84.1008,433.0,0.492559
86.0158,435.0,0.827605
87.8622,437.0,1.17114
89.7698,439.0,1.14981
91.7017,441.0,0.753796
93.6349,443.0,1.01514
95.5177,445.0,1.00859
97.5135,447.0,1.24936
99.5052,449.0,1.26309
101.424,451.0,1.59638
103.391,453.0,2.2667
105.406,455.0,2.54465
107.424,457.0,3.4263
109.296,459.0,3.5488
111.245,461.0,3.25291
113.142,463.0,3.88701
115.124,465.0,4.27903
117.124,467.0,4.95366
119.112,469.0,5.62023
121.12,471.0,6.19769
123.088,473.0,6.39551
124.934,475.0,7.13266
126.945,477.0,7.28966
128.928,479.0,8.38433
130.959,481.0,9.2571
132.926,483.0,9.27288
134.876,485.0,9.93492
136.839,487.0,10.5284
138.837,489.0,11.1064
140.852,491.0,11.5937
142.862,493.0,12.0812
144.899,495.0,11.8118
146.879,497.0,11.8381
148.84,499.0,11.9949
150.878,501.0,11.9309
152.928,503.0,11.3811
154.839,505.0,11.0618
156.813,507.0,10.2439
158.804,509.0,10.4461
160.919,511.0,10.0773
162.926,513.0,9.79763
164.887,515.0,10.0363
166.774,517.0,9.84187
168.769,519.0,9.71298
170.757,521.0,10.0527
172.744,523.0,10.5346
174.755,525.0,10.5491
176.799,527.0,11.0826
178.863,529.0,11.3387
180.906,531.0,12.1731
182.908,533.0,12.9999
184.91,535.0,13.8335
186.882,537.0,14.3845
188.876,539.0,14.9679
190.882,541.0,15.8321
192.867,543.0,16.458
194.881,545.0,16.9953
196.853,547.0,17.9502
198.781,549.0,18.5518
200.819,551.0,19.2661
202.864,553.0,20.15
204.924,555.0,20.6712
206.961,557.0,22.2282
208.999,559.0,23.0376
211.057,561.0,24.0748
213.054,563.0,25.2371
215.039,565.0,26.3217
216.96,567.0,26.973
218.986,569.0,28.6195
220.962,571.0,28.8737
222.884,573.0,29.2919
224.941,575.0,31.4578
226.967,577.0,32.4409
229.085,579.0,33.5504
231.167,581.0,34.8101
233.084,583.0,35.991
235.096,585.0,36.9747
237.111,587.0,38.302
239.071,589.0,39.3755
241.022,591.0,40.4922
243.097,593.0,42.1484
245.152,595.0,43.8495
247.312,597.0,45.6966
249.31,599.0,47.4939
251.287,601.0,49.4581
253.079,603.0,51.3533
255.121,605.0,53.0897
257.182,607.0,54.7846
258.996,609.0,56.3745
261.063,611.0,58.6276
263.136,613.0,60.7794
265.305,615.0,62.8345
267.312,617.0,65.1116
269.317,619.0,67.4086
271.477,621.0,69.5268
273.469,623.0,71.3831
275.413,625.0,73.3661
277.273,627.0,75.1733
279.274,629.0,77.0071
281.292,631.0,78.6522
283.209,633.0,80.1476
285.233,635.0,81.9799
287.246,637.0,83.4696
289.427,639.0,85.643
291.49,641.0,87.9394
293.538,643.0,90.3436
295.492,645.0,92.5295
297.482,647.0,95.3959
299.479,649.0,98.4667
301.646,651.0,102.233
303.679,653.0,105.845
305.694,655.0,109.729
307.557,657.0,113.433
309.597,659.0,117.411
311.573,661.0,120.933
313.583,663.0,124.014
315.611,665.0,126.631
317.663,667.0,127.954
319.646,669.0,128.238
321.684,671.0,126.71
323.711,673.0,123.3
325.71,675.0,117.492
327.718,677.0,109.742
329.709,679.0,100.028
331.669,681.0,88.9316
333.642,683.0,76.6635
335.583,685.0,64.3845
337.524,687.0,52.4216
339.528,689.0,41.9705
341.521,691.0,33.2631
343.715,693.0,25.8046
345.711,695.0,20.9677
347.741,697.0,17.8332
349.719,699.0,15.2925
351.703,701.0,13.9267
353.709,703.0,12.8634
355.727,705.0,12.1836
357.786,707.0,11.3933
359.779,709.0,10.8509
361.729,711.0,10.2378
363.678,713.0,9.83709
365.682,715.0,9.42104
367.724,717.0,8.66889
369.701,719.0,8.35356
371.76,721.0,8.16124
373.821,723.0,7.85794
375.911,725.0,7.57322
377.897,727.0,7.25175
379.904,729.0,6.64937
381.824,731.0,6.32551
383.845,733.0,6.15919
385.912,735.0,5.84989
388.066,737.0,5.47597
390.067,739.0,5.26076
392.08,741.0,5.14339
393.958,743.0,4.85408
395.975,745.0,4.43416
397.937,747.0,3.93597
399.862,749.0,3.61184
401.854,751.0,3.3011
403.9,753.0,3.00289
405.939,755.0,2.63204
407.968,757.0,2.49359
410.013,759.0,2.35561
412.107,761.0,2.06156
414.161,763.0,1.73766
416.166,765.0,1.66757
417.999,767.0,1.59442
419.985,769.0,1.24875
421.987,771.0,1.13623
424.102,773.0,0.787238
426.075,775.0,0.688281
428.065,777.0,0.894521
430.033,779.0,0.828973
432.123,781.0,0.547931
434.1,783.0,0.480826
436.062,785.0,0.317149
438.058,787.0,0.326458
440.068,789.0,0.239244
442.052,791.0,0.336084
444.043,793.0,0.326395
446.032,795.0,0.181298
447.93,797.0,-0.162484
450.016,799.0,-0.0251194
452.036,801.0,-0.0544348
454.164,803.0,-0.219852
456.13,805.0,0.0580403
458.115,807.0,0.213166
460.237,809.0,0.275819
462.223,811.0,0.0250125
464.181,813.0,-0.0180645
466.168,815.0,-0.130296
468.188,817.0,0.0991996
470.219,819.0,0.0873762
472.238,821.0,0.0122289
474.183,823.0,0.0682649
476.173,825.0,0.00720313
478.116,827.0,-0.195675
480.112,829.0,-0.196814
482.153,831.0,-0.197914
484.191,833.0,-0.483685
486.219,835.0,-0.182015
488.217,837.0,-0.0347701
490.209,839.0,0.0521871
492.232,841.0,0.0631898
494.198,843.0,-0.0820447
496.217,845.0,-0.154244
498.199,847.0,-0.0437193
500.242,849.0,-0.163926
502.242,851.0,0.00333453
504.249,853.0,-0.0237451
506.226,855.0,-0.0756153
508.267,857.0,-0.236823
510.243,859.0,-0.0281684
512.268,861.0,0.0201625
514.321,863.0,0.0424772
516.315,865.0,0.220692
518.315,867.0,0.246985
520.318,869.0,0.15717
522.288,871.0,0.301196
524.322,873.0,0.0378272
526.328,875.0,0.013018
528.285,877.0,-0.0380379
530.305,879.0,-0.0962023
532.297,881.0,-0.0767708
534.307,883.0,0.131834
536.275,885.0,0.114465
538.315,887.0,-0.23575
540.314,889.0,-0.203018
542.349,891.0,0.0568079
544.393,893.0,0.117392
546.411,895.0,0.0830423
548.419,897.0,-0.069678
550.396,899.0,0.230667
552.319,901.0,0.384511
554.356,903.0,0.243333
556.334,905.0,0.0772387
558.207,907.0,-0.14245
560.312,909.0,-0.165333
562.346,911.0,-0.134269
564.44,913.0,-0.142634
566.452,915.0,-0.0600838
568.517,917.0,0.0900953
570.438,919.0,-0.109037
572.444,921.0,0.210147
574.452,923.0,0.27516
576.428,925.0,0.0319089
578.444,927.0,-0.031327
580.419,929.0,-0.154933
582.497,931.0,0.192752
584.472,933.0,0.196093
586.481,935.0,-0.0385446
588.46,937.0,-0.0866428
590.464,939.0,0.150104
592.47,941.0,-0.0891788
594.523,943.0,0.0905798
596.515,945.0,0.259571
598.544,947.0,0.161985
600.411,949.0,0.314083
602.374,951.0,0.139805
604.378,953.0,-0.213189
606.382,955.0,-0.51812
608.432,957.0,-0.489372
610.481,959.0,-0.227566
612.628,961.0,0.0893219
614.626,963.0,-0.0205459
616.56,965.0,-0.0404837
618.501,967.0,-0.130509
620.525,969.0,0.245134
622.515,971.0,0.0875089
624.534,973.0,-0.179675
626.547,975.0,0.179653
628.478,977.0,-0.00581364
630.487,979.0,-0.0444198
632.481,981.0,0.155264
634.533,983.0,0.104264
636.433,985.0,-0.0446574
638.355,987.0,-0.288617
640.354,989.0,-0.0836004
640.852,989.5,-0.139483

File: UDRI_Wood_Cone_30kW_hor_R1.csv
Time (s),Mass (g),HRR (kW/m2),TC back 1 (K)
0,110.44,-0.6,301.674
8,110.32,2.5,294.574
16,110.16,5.4,295.035
24,109.53,49.4,296.42
32,108.77,117.2,291.621
40,108.08,136,303.065
48,107.449,124.2,300.412
56,106.879,112.5,302.329
64,106.419,105.3,300.324
72,105.919,101.2,298.825
80,105.469,97,297.807
88,105.069,89.2,301.852
96,104.669,86.6,302.385
104,104.289,82.8,303.586
112,103.909,79.5,304.214
120,103.479,79.4,301.801
128,103.089,81,306.168
136,102.719,76.8,308.429
144,102.348,75.9,308.48
152,101.948,74.5,308.629
160,101.618,73.9,303.055
168,101.268,71.7,302.702
176,100.948,70.5,304.822
184,100.548,71.2,307.81
192,100.238,70.1,312.351
200,99.868,67.9,313.526
208,99.548,69.7,308.557
216,99.188,69.4,312.599
224,98.838,68.6,313.708
232,98.568,69.2,310.696
240,98.208,69.6,307.519
248,97.868,67.7,317.171
256,97.558,67.3,315.78
264,97.257,67.4,314.952
272,96.887,67.8,327.451
280,96.507,67,324.477
288,96.187,64,319.289
296,95.907,64.6,324.977
304,95.557,65.1,319.362
312,95.227,65.5,325.445
320,94.897,65.1,326.099
328,94.597,66.3,328.707
336,94.257,66.5,330.297
344,93.927,67.5,334.62
352,93.597,67.2,332.105
360,93.287,68.2,330.576
368,92.957,68.1,339.439
376,92.617,67.2,335.593
384,92.307,67.9,344.758
392,91.947,67.3,344.037
400,91.656,68.2,343.389
408,91.346,68.5,339.842
416,90.996,67.7,341.951
424,90.646,65.6,343.852
432,90.336,67.9,340.421
440,90.036,68.4,344.197
448,89.736,68.1,350.108
456,89.346,68.3,357.328
464,89.066,67.8,351.533
472,88.686,68.8,349.233
480,88.386,68.5,351.874
488,88.056,68,357.524
496,87.726,67,350.418
504,87.396,66,355.274
512,87.086,66.2,353.716
520,86.736,67.9,355.322
528,86.395,67.3,354.658
536,86.095,65.2,354.226
544,85.725,64.7,352.625
552,85.415,64.7,350.04
560,85.095,65.2,353.513
568,84.765,65.5,355.941
576,84.435,65.4,357.66
584,84.115,65.5,359.785
592,83.755,66.2,359.158
600,83.445,66.1,356.506
608,83.125,67.4,363.012
616,82.845,68,362.465
624,82.485,66.1,353.994
632,82.115,65.8,361.776
640,81.825,65.5,362.106
648,81.495,65.4,365.306
656,81.144,66.1,362.391
664,80.834,65.4,364.259
672,80.514,65.3,366.714
680,80.204,65.5,366.038
688,79.894,67.2,360.018
696,79.534,67.2,366.019
704,79.204,66.1,367.241
712,78.874,67.4,366.72
720,78.554,68.1,367.482
728,78.204,66.1,367.389
736,77.914,66.8,365.366
744,77.574,67.1,366.923
752,77.244,66.8,364.18
760,76.934,67.7,369.401
768,76.554,68.9,372.11
776,76.294,67.3,372.085
784,75.913,65.7,367.946
792,75.643,67.9,368.627
800,75.273,66.1,371.77
808,74.933,66.6,371.827
816,74.673,66.8,368.884
824,74.343,67.2,372.51
832,74.013,67.8,371.121
840,73.703,66.7,373.115
848,73.353,67.7,370.857
856,73.023,68,375.47
864,72.693,67.7,376.84
872,72.423,66.3,377.02
880,72.103,67.9,378.53
888,71.763,66.6,376.34
896,71.443,65.1,379.59
904,71.093,65.4,372.657
912,70.812,63.3,375.99
920,70.492,63.6,379.12
928,70.162,65.1,380.8
936,69.872,63.6,381.07
944,69.582,65.3,380.95
952,69.242,65.7,376.15
960,68.922,64.9,379.58
968,68.592,66,379.92
976,68.272,66.1,386.47
984,67.972,66,381.93
992,67.672,66.2,386.72
1000,67.332,68.1,388.06
1008,67.022,67.3,389.23
1016,66.722,65.5,383.55
1024,66.392,67.5,391.95
1032,66.122,67.5,391.05
1040,65.782,69,396.06
1048,65.511,68.2,398.6
1056,65.161,67.5,394.96
1064,64.881,67.9,394.41
1072,64.531,66.2,395.46
1080,64.231,70.4,401.26
1088,63.941,71.1,399.2
1096,63.651,70.2,403.74
1104,63.311,71.8,404.83
1112,63.021,71.7,405.22
1120,62.721,72.9,412.05
1128,62.411,71.9,410.39
1136,62.091,71.1,410.02
1144,61.781,70.8,411.92
1152,61.471,68.9,414.03
1160,61.151,69.8,416.38
1168,60.801,69.7,415.14
1176,60.491,69.6,415.7
1184,60.18,70,417.01
1192,59.88,70.5,416.72
1200,59.52,69.8,425.55
1208,59.23,71.9,427.85
1216,58.91,70.9,432.26
1224,58.55,73.7,429.86
1232,58.23,74.6,428.17
1240,57.91,74.3,431.37
1248,57.59,76.4,429.51
1256,57.23,75.9,434.36
1264,56.87,76.2,443.27
1272,56.54,75.7,443.6
1280,56.2,77.5,440.07
1288,55.83,77.5,445.85
1296,55.5,77.2,448.79
1304,55.15,77.8,446.42
1312,54.829,77,453.28
1320,54.449,77.8,451.69
1328,54.109,79.9,454.73
1336,53.739,80.4,458.51
1344,53.359,79.9,457.54
1352,52.989,79.5,460.63
1360,52.609,83.5,456.98
1368,52.229,83.2,460.83
1376,51.849,83.9,466.02
1384,51.459,83.4,467.52
1392,51.099,85.2,470.88
1400,50.679,86.1,469.01
1408,50.299,86.3,472.15
1416,49.889,87.1,473.77
1424,49.508,89.4,476.12
1432,49.068,91.3,478.23
1440,48.688,93.8,479.79
1448,48.268,94.3,480.54
1456,47.808,95.3,487.89
1464,47.388,95.1,485.58
1472,46.998,96.8,497.34
1480,46.508,97.2,488.12
1488,46.108,99,491.72
1496,45.658,101.9,493.03
1504,45.228,100.4,502.1
1512,44.788,100.6,499.47
1520,44.317,104,498.02
1528,43.897,104.6,503.67
1536,43.357,104.1,504.18
1544,42.967,100.2,511.69
1552,42.467,102.3,517.06
1560,42.017,101.8,511.64
1568,41.547,104.3,511.58
1576,41.107,104.9,512.63
1584,40.597,105,523.37
1592,40.137,103.5,522.68
1600,39.657,105.3,523.13
1608,39.146,106.5,524.34
1616,38.696,105.3,521.3
1624,38.266,106.2,524.16
1632,37.796,104.9,526.5
1640,37.336,106.3,531.93
1648,36.836,106.1,532.38
1656,36.406,106.5,531.01
1664,35.926,103.8,534.77
1672,35.486,103.7,537.18
1680,35.046,105,536.39
1688,34.616,102.6,539.41
1696,34.206,102.5,538.96
1704,33.745,100.4,539.27
1712,33.315,101.9,541.25
1720,32.935,101.3,549.83
1728,32.515,101.1,543.71
1736,32.085,98.2,552.13
1744,31.675,99.3,553.6
1752,31.295,97.2,545.63
1760,30.885,97.1,548.49
1768,30.475,96.3,550.92
1776,30.085,96.5,552.46
1784,29.765,95.6,554.78
1792,29.385,91.9,554.27
1800,29.035,90.8,557.09
1808,28.694,91,551.34
1816,28.334,87.3,554.61
1824,28.044,86.4,555.37
1832,27.734,83.7,564.81
1840,27.424,83.3,560.85
1848,27.104,80.1,565.22
1856,26.814,80.6,565.3
1864,26.504,78.6,565.21
1872,26.254,77.2,568.81
1880,25.924,74.4,564.02
1888,25.664,73.4,573.98
1896,25.414,70.3,567.9
1904,25.184,71.8,573.29
1912,24.914,71,573.72
1920,24.694,68.8,571.3
1928,24.444,68.2,571.33
1936,24.204,66,578.15
1944,23.984,66.3,576.24
1952,23.774,63.4,574.12
1960,23.564,62.6,575.67
1968,23.363,58.4,576.37
1976,23.143,59.7,580.86
1984,22.953,57.2,579.31
1992,22.773,56,579.02
2000,22.593,54.1,578.83
2008,22.443,54.4,577.81
2016,22.223,53,579
2024,22.063,54.2,578.67
2032,21.883,53.9,580.38
2040,21.723,55.7,582.07
2048,21.603,51.9,577.85
2056,21.403,49.4,581.71
2064,21.273,47,581.82
2072,21.143,47.3,581.8
2080,21.013,47,579.6
2088,20.823,46.5,578.97
2096,20.703,43.5,585.6
2104,20.553,43,580.37
2112,20.433,43.5,583.45
2120,20.303,42.1,584.91
2128,20.173,41.5,584.14
2136,20.083,41.9,577.7
2144,19.963,40.9,589.03
2152,19.873,41.1,584.68
2160,19.723,38.7,577.91
2168,19.613,38.8,580.69
2176,19.523,37.1,581.27
2184,19.413,37.1,581.72
2192,19.333,36.2,582.05
2200,19.213,35.5,578.8
2208,19.113,35.4,582.88
2216,18.983,35.5,577.11
2224,18.913,36,584.2
2232,18.833,35.5,581.49
2240,18.723,35.5,585.23
2248,18.663,33,579.97
2256,18.573,31.1,583.75
2264,18.473,29.2,580.39
2272,18.423,28.6,585.79
2280,18.343,28.6,583.72
2288,18.242,27.9,580.31
2296,18.182,27.9,583.34
2304,18.092,26.2,582.94
2312,18.002,27.8,586.31
2320,17.952,27.5,579.5
2328,17.862,27.3,576.5
2336,17.792,27.3,579.09
2344,17.732,26.7,581.35
2352,17.672,26.9,581.46
2359,17.602,28.1,582.12