Folder: matl-db/Wood/Calibration_Data/UDRI (part 3)

File: UDRI_Wood_Cone_30kW_hor_R2.csv
Time (s),Mass (g),HRR (kW/m2),TC back 1 (K)
0,106.04,-3.7,298.326
7,106.05,-3,304.012
14,106,-3.3,293.796
21,105.79,-1.8,292.798
28,105.44,29,298.499
35,104.78,94.3,297.389
42,104.12,131,300.746
49,103.64,123.3,301.013
56,103.169,110.6,302.833
63,102.699,99.5,300.295
70,102.289,96.5,292.552
77,101.899,91.4,303.761
84,101.519,85.8,304.2
91,101.179,84.5,300.633
98,100.829,84.9,300.744
105,100.479,79.6,302.344
112,100.099,80.1,303.05
119,99.749,77,303.682
126,99.439,76.9,296.738
133,99.109,75.2,306.052
140,98.739,76.2,299.208
147,98.429,76.8,295.405
154,98.139,74.2,311.79
161,97.748,73.5,306.326
168,97.488,72,296.373
175,97.148,72.1,303.673
182,96.798,73.4,308.745
189,96.508,72.2,306.84
196,96.248,71.2,304.546
203,95.858,72,309.477
210,95.568,71,308.161
217,95.268,69.1,298.401
224,94.908,69.1,310.746
231,94.658,68.9,304.135
238,94.318,68.3,307.298
245,94.028,68.8,315.423
252,93.688,68,320.511
259,93.408,68.3,311.736
266,93.148,69.5,315.485
273,92.858,67.9,314.737
280,92.547,67.3,317.991
287,92.257,65.2,322.994
294,91.967,65.1,319.812
301,91.607,65.1,319.068
308,91.307,65.2,317.105
315,90.967,65.7,322.231
322,90.657,65.9,314.389
329,90.397,66.5,321.2
336,90.107,67.8,323.648
343,89.747,66.5,316.263
350,89.477,67.1,315.962
357,89.137,66,335.341
364,88.827,65.8,327.681
371,88.567,66.9,323.667
378,88.217,68.6,325.858
385,87.927,69,332.541
392,87.596,69.1,326.607
399,87.296,68.9,333.454
406,87.006,67.9,333.552
413,86.636,69.7,332.136
420,86.396,68,329.53
427,86.066,68.4,334.962
434,85.776,67.5,344.498
441,85.396,68.4,335.416
448,85.146,66.5,335.925
455,84.766,68.5,340.896
462,84.486,69.1,342.069
469,84.206,68.5,342.497
476,83.896,69.2,351.486
483,83.606,69.7,349.895
490,83.276,68.8,346.075
497,82.966,67.4,351.62
504,82.646,68.2,349.652
511,82.346,67.3,354.609
518,82.015,66.2,353.454
525,81.735,65.9,353.309
532,81.405,66.1,362.002
539,81.085,65.4,353.485
546,80.815,65.5,351.708
553,80.475,66.1,364.281
560,80.135,65.2,360.319
567,79.875,65.8,365.386
574,79.565,65.2,360.756
581,79.215,67.1,365.369
588,78.895,68.2,363.542
595,78.625,68.2,364.549
602,78.325,67.6,361.49
609,78.015,67.7,362.306
616,77.685,68.4,365.933
623,77.375,68.7,366.618
630,77.115,70.7,371.197
637,76.794,71.7,375.65
644,76.514,68.7,366.898
651,76.184,69.8,371.982
658,75.874,70.5,373.5
665,75.574,70.2,378.07
672,75.244,70.7,374.45
679,74.924,70.2,371.43
686,74.624,69.3,382.38
693,74.334,68.8,376.79
700,74.004,67.8,382.18
707,73.714,68.9,374.02
714,73.414,69.4,369.431
721,73.084,70.9,371.485
728,72.824,70.2,374.91
735,72.434,69.6,383.55
742,72.154,69.1,373.72
749,71.894,71.4,382.47
756,71.533,70.1,379.36
763,71.253,69,381.87
770,70.993,71.7,374.7
777,70.633,69.6,377.37
784,70.373,68.2,378.04
791,70.043,66.6,377.2
798,69.733,67.1,374.69
805,69.383,68.6,371.526
812,69.133,67.2,385.21
819,68.853,66.9,379.04
826,68.553,66.5,391
833,68.273,67.8,383.21
840,67.943,66.2,385.02
847,67.673,67.2,385.58
854,67.343,68.6,384.94
861,67.073,67.7,387.9
868,66.803,68.1,385.09
875,66.462,67.7,389.17
882,66.162,69.2,386.69
889,65.872,67.4,385.06
896,65.592,69.9,390.9
903,65.332,70,387.76
910,64.992,70,391.54
917,64.682,71.5,382.56
924,64.422,72.4,390.12
931,64.092,71,384.94
938,63.802,72.1,390.87
945,63.542,70.8,393.1
952,63.262,73,393.81
959,62.962,72,397.12
966,62.622,73.5,388.05
973,62.322,72.5,395.86
980,62.032,72.8,395.6
987,61.742,72,397.2
994,61.452,74.1,401.4
1001,61.132,74.8,403.59
1008,60.851,74.1,398.5
1015,60.551,72,407.46
1022,60.261,72.4,409.96
1029,59.951,71,408.41
1036,59.661,72.5,404.89
1043,59.371,70.9,414
1050,59.071,71.7,408.15
1057,58.771,73.8,411.86
1064,58.501,73.9,418.66
1071,58.201,73.8,413.9
1078,57.891,74.8,412.35
1085,57.571,74,415.88
1092,57.251,76.1,423.56
1099,56.961,76.6,421.5
1106,56.661,76.3,429.28
1113,56.361,77.4,427.86
1120,56.061,78.1,429.53
1127,55.79,77.7,433.96
1134,55.46,79.2,434.52
1141,55.22,78,436.44
1148,54.84,79,451.96
1155,54.53,80.2,445.37
1162,54.24,81,434.87
1169,53.88,82.3,445.05
1176,53.55,84,445.72
1183,53.27,85.2,455.05
1190,52.92,84.6,456.07
1197,52.57,83.8,445.63
1204,52.29,84.9,464.26
1211,51.93,85.8,462.46
1218,51.58,87,461.94
1225,51.24,90,464.31
1232,50.87,87.9,465.52
1239,50.529,88.2,464.81
1246,50.169,88.1,473.44
1253,49.819,90.1,477.99
1260,49.439,90.6,476.39
1267,49.109,90.2,480.29
1274,48.709,91.6,486.9
1281,48.369,94.6,489.22
1288,47.979,92.7,485.47
1295,47.599,94,492.21
1302,47.199,94.3,491.01
1309,46.789,96.5,496.79
1316,46.429,97.1,504.31
1323,46.029,96.3,502.49
1330,45.619,96.5,509.58
1337,45.198,96.7,514.88
1344,44.848,98.5,514.91
1351,44.428,100.6,516.25
1358,44.008,102,522.78
1365,43.628,100.8,528.92
1372,43.208,100.3,527.93
1379,42.798,99.5,531.06
1386,42.398,98.3,532.7
1393,41.948,99.9,531.43
1400,41.548,101.9,539.81
1407,41.078,105.6,542.77
1414,40.628,106.6,551.45
1421,40.228,108.8,538.64
1428,39.807,107.5,552.77
1435,39.317,107.9,564.92
1442,38.907,109.5,560.79
1449,38.447,111.2,566.6
1456,37.977,108.5,564.85
1463,37.517,112.9,567.92
1470,37.077,115.3,571.47
1477,36.607,114.3,582.83
1484,36.197,114.2,580.78
1491,35.687,114.5,576.88
1498,35.247,114.2,593.18
1505,34.866,114.3,583.35
1512,34.426,115.1,589.82
1519,33.996,113.4,582.82
1526,33.596,111.9,586.9
1533,33.156,112.6,586.44
1540,32.766,109.7,595.44
1547,32.316,109.2,591.65
1554,31.936,107.8,594.5
1561,31.576,107,597.18
1568,31.166,106.4,599.77
1575,30.806,104.6,604.14
1582,30.416,104.8,608.66
1589,30.036,103.5,603.92
1596,29.696,102.5,602.04
1603,29.335,101.2,609.91
1610,28.985,100.3,602.25
1617,28.685,98.3,610.32
1624,28.345,98.2,612.08
1631,27.995,94.2,614.34
1638,27.715,92.9,621.36
1645,27.465,91.4,622.13
1652,27.085,88.4,621.74
1659,26.845,86.1,633.38
1666,26.555,85,620.61
1673,26.275,83.9,634.29
1680,26.075,81.3,635.1
1687,25.825,78.3,636.19
1694,25.525,77.5,634.89
1701,25.265,74.4,634.01
1708,25.055,72.7,634.5
1715,24.825,71.6,626.81
1722,24.635,69.6,633.99
1729,24.395,67.8,635.27
1736,24.194,68.3,636.81
1743,23.984,67.5,631.01
1750,23.764,66.8,642.22
1757,23.604,65.3,636.18
1764,23.414,63.6,642.43
1771,23.254,62.4,645.5
1778,23.064,62.2,640.92
1785,22.904,59.2,642.39
1792,22.674,58,647.34
1799,22.584,58,657.27
1806,22.424,56.7,652.6
1813,22.254,54.8,653.05
1820,22.124,52.7,642.34
1827,21.974,53.9,657.07
1834,21.814,52.3,652.21
1841,21.714,49.3,649.25
1848,21.584,49.8,640.98
1855,21.424,48.9,640.2
1862,21.344,46.3,648.34
1869,21.224,47.1,648.87
1876,21.064,46.7,652.5
1883,20.984,46.3,649.31
1890,20.884,42.9,644.68
1897,20.824,41.3,653.6
1904,20.694,42,651.46
1911,20.634,40.2,652
1918,20.514,40.7,654.32
1925,20.434,41.3,640.42
1932,20.344,41.4,649.08
1939,20.244,38.5,651.75
1946,20.134,38.2,646.41
1953,20.044,40.1,651.53
1960,20.044,36.9,649.45
1967,19.944,38.4,655.23
1974,19.834,35.5,650.24
1981,19.824,36.7,654.37
1988,19.704,35.9,646.58
1995,19.634,36.1,659.07
2002,19.464,35.9,654.45
2009,19.554,33.6,655.35
2016,19.414,27.3,648.06
2023,19.364,31.6,650.16
2030,19.294,34.4,648.49
2032,19.284,34.5,648.11

File: UDRI_Wood_Cone_60kW_hor_R2.csv
Time (s),Mass (g),HRR (kW/m2),TC back 1 (K)
0,112.48,-0.3,293.885
6,112.4,1,297.081
12,111.97,1.4,299.537
18,111.14,87.2,296.505
24,110.35,179.6,298.564
30,109.599,194.5,294.841
36,108.819,205.2,302.455
42,108.119,200.3,302.902
48,107.379,200.9,296.815
54,106.749,192,297.321
60,106.079,184.3,304.453
66,105.459,179.8,301.283
72,104.839,177.4,295.696
78,104.198,173.3,300.482
84,103.608,165.7,297.933
90,103.058,165.3,305.754
96,102.448,163.7,305.924
102,101.908,159.8,305.094
108,101.308,151.7,303.751
114,100.778,150.2,308.669
120,100.268,146.5,297.786
126,99.678,148.6,304.742
132,99.107,147.6,301.085
138,98.567,146.5,308.49
144,98.017,146.6,307.639
150,97.497,141.3,313.958
156,96.987,139.4,307.843
162,96.487,135.9,320
168,95.997,134.7,325.332
174,95.477,130.8,308.153
180,94.977,128.3,310.506
186,94.517,129.7,313.938
192,94.007,127.4,313.643
198,93.516,125.5,323.13
204,93.026,124.1,319.282
210,92.566,121.7,320.18
216,92.106,120.5,322.717
222,91.656,117.9,327.442
228,91.206,118.8,316.481
234,90.706,115.8,311.445
240,90.306,112.8,337.134
246,89.826,113.5,329.928
252,89.346,112.6,334.004
258,88.876,112.8,328.935
264,88.495,113.2,334.161
270,88.015,110.9,328.892
276,87.615,110.7,339.004
282,87.145,107.4,337.788
288,86.675,108.7,341.041
294,86.265,109.3,340.669
300,85.785,109.2,342.885
306,85.385,108,345.014
312,84.955,107.5,338.494
318,84.495,106.3,340.719
324,84.095,106.5,349.076
330,83.655,104.9,346.984
336,83.244,104.6,342.725
342,82.814,103.2,341.839
348,82.384,104.3,346
354,81.994,103.9,354.37
360,81.564,100.5,356.584
366,81.174,101.5,360.044
372,80.734,100.3,359.399
378,80.354,96.4,353.952
384,79.934,98.7,358.66
390,79.534,98.6,365.085
396,79.154,97.9,364.134
402,78.744,97.4,368.962
408,78.344,97.5,365.242
414,77.953,97.9,362.961
420,77.563,95.6,367.332
426,77.173,92.6,382.18
432,76.773,94.2,363.091
438,76.393,94.8,379.66
444,76.023,95.8,365.67
450,75.603,95.2,378.39
456,75.243,95.2,367.304
462,74.853,93.9,385.91
468,74.483,95.1,374.9
474,74.143,94.4,377.87
480,73.763,92.5,378.92
486,73.353,93.6,373.43
492,73.013,93.9,373.47
498,72.612,93.9,372.155
504,72.262,92.4,380.96
510,71.922,91.3,387.07
516,71.532,89.9,377.94
522,71.142,89.3,375.89
528,70.832,90,379.37
534,70.442,89.4,380.24
540,70.092,89.4,379.4
546,69.722,88.4,369.48
552,69.352,88.6,377.76
558,69.052,89.2,384.59
564,68.692,88.2,382.89
570,68.322,87.6,380.5
576,68.002,88.8,382.6
582,67.651,86.2,377.49
588,67.331,87,378.11
594,66.961,84.9,389.93
600,66.641,82.2,384.92
606,66.311,83.6,381.47
612,65.941,82.5,386.16
618,65.641,84.1,387.28
624,65.291,83.6,391.62
630,64.981,82.2,386.19
636,64.631,83.2,389.21
642,64.321,82.1,384.23
648,63.961,83,389.26
654,63.641,84,380.73
660,63.311,81.6,385.57
666,62.971,83.6,387.45
672,62.681,84,386.61
678,62.32,84.8,388.99
684,62.03,81.8,390.91
690,61.7,83.2,383.63
696,61.37,84.3,392.36
702,61.04,83.1,381.42
708,60.7,83,383.07
714,60.38,82.6,390.81
720,60.04,83,396.81
726,59.7,85.2,395.11
732,59.41,83.4,392.35
738,59.06,82.2,392.06
744,58.75,80.5,397.42
750,58.4,80.9,393.71
756,58.07,81.7,390.17
762,57.78,82.9,404.38
768,57.41,83.2,400.44
774,57.099,84,402.6
780,56.759,83.8,404.63
786,56.419,85.1,405.12
792,56.069,84.3,398.95
798,55.759,83.8,409.14
804,55.439,82.7,407
810,55.109,83.4,405.45
816,54.799,83.8,404.88
822,54.449,84.1,411.91
828,54.149,84.3,418.48
834,53.789,85.3,403.22
840,53.439,86.5,413.56
846,53.149,85.8,419.93
852,52.799,84.5,416.15
858,52.469,84.7,424.86
864,52.169,86.4,429.25
870,51.819,86.3,412.86
876,51.468,85.7,423.47
882,51.148,88.2,426.68
888,50.808,87.6,423.28
894,50.468,87.5,425.2
900,50.128,87.8,434.3
906,49.798,88.2,441.73
912,49.438,91.2,432.15
918,49.088,89.4,442.16
924,48.748,89.4,445.74
930,48.358,91.3,449.1
936,48.058,90.9,449.2
942,47.688,91.7,451.2
948,47.308,93.3,454
954,46.968,93.2,452.17
960,46.568,93.9,452.52
966,46.227,93.7,456.6
972,45.837,96.4,455.48
978,45.497,96.9,460.46
984,45.087,97.5,467.17
990,44.717,99.2,462.92
996,44.337,97.8,473.62
1002,43.887,99,460.12
1008,43.527,97.7,487.77
1014,43.137,102.4,470.08
1020,42.737,100,485.07
1026,42.307,103,493.01
1032,41.947,105.7,486.64
1038,41.467,103.8,484.84
1044,41.096,103.9,490.65
1050,40.676,106.7,487.33
1056,40.206,108.4,493.89
1062,39.776,105.9,501.27
1068,39.366,107.2,503.34
1074,38.926,108.3,504.35
1080,38.456,110.3,501.7
1086,38.006,111,501.42
1092,37.606,113.4,510.42
1098,37.106,114.3,517.58
1104,36.686,113.5,516.38
1110,36.176,115.8,513.65
1116,35.705,117.5,518.48
1122,35.265,117.2,525.64
1128,34.775,116.4,529.1
1134,34.355,117.7,524.74
1140,33.885,118.8,533.51
1146,33.425,120.2,535.29
1152,32.935,120.6,539.87
1158,32.505,119.9,543.14
1164,32.035,117.8,543.14
1170,31.575,119.5,547.51
1176,31.135,116.3,550.93
1182,30.664,117.4,551.88
1188,30.244,117.2,556.62
1194,29.804,116.1,559.47
1200,29.304,116.9,562.75
1206,28.904,117.9,565.24
1212,28.484,116.9,567.31
1218,28.024,114,568.72
1224,27.534,112.9,574.09
1230,27.144,112,575.48
1236,26.754,109.6,578.91
1242,26.304,108.9,579.31
1248,25.924,109.2,582.1
1254,25.534,109,582.92
1260,25.193,106.1,586.35
1266,24.813,105.8,588.55
1272,24.483,99.9,591.54
1278,24.153,97,594.96
1284,23.833,94,595.36
1290,23.563,90.9,598.29
1296,23.253,88,600.08
1302,22.983,85.5,603.91
1308,22.693,81.8,604.14
1314,22.423,80.3,606.25
1320,22.223,78.5,610.5
1326,21.953,78.2,611.2
1332,21.703,73.1,615.44
1338,21.523,71,617.49
1344,21.353,67,620.15
1350,21.153,63.8,622.26
1356,20.953,61.9,628.85
1362,20.793,61.9,630.79
1368,20.593,59.9,633.26
1374,20.383,58.4,638.24
1380,20.242,57,645.55
1386,20.092,56.2,649.9
1392,19.962,55,655.2
1398,19.802,54.8,665.4
1404,19.712,51.4,672.23
1410,19.622,49.3,676.69
1416,19.512,49.4,681.25
1422,19.402,47.8,681.45
1428,19.282,48,679.08
1434,19.172,48.9,679.88
1440,19.042,47.5,681.4
1446,18.972,46.8,683.8
1452,18.872,42.4,684.9
1458,18.782,42.4,681.69
1464,18.712,41.6,682.78
1470,18.622,41.4,686.37
1476,18.532,41.3,686.46
1482,18.412,41.3,688.26
1488,18.362,40.1,689.96
1494,18.282,39.4,689.54
1500,18.152,38.7,690.81
1506,18.072,39.2,694.99
1512,18.022,39.8,694.41
1518,17.902,38.5,695.49
1524,17.832,38.9,696.89
1530,17.722,38.1,700.18
1536,17.652,38.7,701.46
1542,17.572,37.4,703.25

File: UDRI_Wood_Cone_60kW_hor_R3.csv
Time (s),Mass (g),HRR (kW/m2),TC back 1 (K)
0,111.47,0.2,294.903
5,111.27,4.5,299.245
10,110.6,70.8,295.119
15,109.83,188.7,290.584
20,109.11,255.3,300.661
25,108.289,285.6,308.076
30,107.509,297.4,299.755
35,106.779,298.8,300.465
40,106.119,290.9,304.95
45,105.459,290.2,301.133
50,104.829,266.3,293.79
55,104.199,259.8,288.12
60,103.618,255.4,291.241
65,102.978,246.5,307.225
70,102.448,231,298.186
75,101.928,231.8,300.034
80,101.388,222.7,301.421
85,100.798,215.8,306.87
90,100.318,213,304.536
95,99.728,206.6,310.222
100,99.278,205.5,306.746
105,98.738,197,301.57
110,98.268,195.6,296.921
115,97.797,193.7,303.385
120,97.277,197.4,309.209
125,96.797,191.3,300.614
130,96.287,188.5,308.309
135,95.857,186.9,309.475
140,95.357,181.3,308.714
145,94.947,179.2,306.234
150,94.467,180.2,306.966
155,93.967,178.9,301.312
160,93.517,177.1,305.098
165,93.067,177.2,313.196
170,92.606,175.2,308.588
175,92.196,170.3,308.736
180,91.746,169.5,306.953
185,91.326,168.1,312.341
190,90.946,167.5,315.772
195,90.456,166.5,316.976
200,89.986,163.1,315.882
205,89.626,161.8,320.715
210,89.146,162.7,315.037
215,88.756,160.2,319.79
220,88.316,156.8,324.774
225,87.836,152.8,322.933
230,87.505,152.6,319.453
235,87.035,151.5,324.897
240,86.685,152.2,323.962
245,86.255,151.4,322.295
250,85.895,149,320.819
255,85.475,149.3,327.614
260,85.085,146.6,326.385
265,84.655,145.2,326.236
270,84.195,148.6,327.975
275,83.845,148.2,331.754
280,83.465,146.9,326.27
285,83.005,143.7,330.47
290,82.635,141.7,332.973
295,82.234,146.5,336.216
300,81.894,141.1,338.896
305,81.544,144.2,338.975
310,81.184,143.3,339.684
315,80.774,143.3,339.839
320,80.364,142,346.234
325,80.014,138.7,351.591
330,79.584,137.6,347.665
335,79.254,139.9,357.332
340,78.864,137.6,358.871
345,78.444,137.8,352.841
350,78.064,140.4,356.585
355,77.704,137.7,358.424
360,77.334,138,356.857
365,76.963,136.8,360.86
370,76.543,137.9,356.905
375,76.193,136,367.342
380,75.883,134.6,372.47
385,75.463,132.4,368.503
390,75.193,131.6,361.452
395,74.753,130,367.02
400,74.433,126.5,368.941
405,73.993,127.8,367.572
410,73.673,127.8,375.06
415,73.353,127.7,376.41
420,72.973,124.1,375.88
425,72.613,127,376.19
430,72.233,124.4,375.48
435,71.943,125.3,373.84
440,71.632,122.2,386.09
445,71.312,123.5,379.02
450,70.902,120.7,371.355
455,70.532,120.4,376.56
460,70.192,118.6,376.04
465,69.912,120.4,372.892
470,69.642,120.5,375.82
475,69.182,117.6,372.568
480,68.962,120,369.781
485,68.612,118.9,383.34
490,68.202,117.8,377.59
495,67.862,117.6,379.95
500,67.562,115.6,373.15
505,67.202,116.7,373.062
510,66.842,116.1,383.98
515,66.551,115.3,375.75
520,66.241,116.6,386.9
525,65.891,116.9,388.6
530,65.611,115.5,384.8
535,65.271,116.6,377.58
540,64.931,117.3,382.68
545,64.611,115.3,387.15
550,64.241,117.4,387.16
555,63.951,116.2,383.72
560,63.601,117.4,392.46
565,63.331,113.4,389.91
570,63.001,115,391.09
575,62.671,113.6,389.03
580,62.361,115.6,390.51
585,62.051,113.9,390.49
590,61.761,117.5,400.44
595,61.451,116.6,386.62
600,61.11,115.6,394.86
605,60.74,116.1,377.23
610,60.43,116.6,398.36
615,60.09,114.2,394.3
620,59.8,115.8,396.26
625,59.53,115.7,389.18
630,59.14,115.5,390.13
635,58.83,115.9,397.69
640,58.51,115.1,395.99
645,58.16,115.2,393.93
650,57.91,114.3,390.82
655,57.58,113.5,398.94
660,57.27,114.6,400.47
665,56.93,114.6,402.18
670,56.58,113,406.42
675,56.28,112.7,400.94
680,55.969,113.7,405.18
685,55.669,113.4,408.51
690,55.329,112.1,410.29
695,55.049,113.3,411.66
700,54.699,114.5,409.57
705,54.409,112.7,403.54
710,54.099,112.5,413.82
715,53.839,110.3,419.34
720,53.549,113.1,414.95
725,53.159,115.3,414.77
730,52.869,112.3,415.61
735,52.569,115.5,420.13
740,52.279,111.1,422.56
745,51.959,115.7,417.68
750,51.629,113.1,419.81
755,51.359,114.6,432.24
760,51.029,112.7,422.12
765,50.718,114.6,425.62
770,50.388,113.4,427.48
775,50.118,113,425.92
780,49.768,116.1,433.25
785,49.468,113.7,428.23
790,49.118,115.3,430.9
795,48.858,114.7,431.25
800,48.518,113.5,432.02
805,48.238,116,434.95
810,47.908,116.3,443.5
815,47.608,117.2,438.88
820,47.248,117.9,445.46
825,46.938,116.6,444.81
830,46.648,117.9,452.91
835,46.268,117.1,462.45
840,45.988,120.2,446.88
845,45.668,118.4,457.21
850,45.377,120,460.6
855,45.007,118.9,456.66
860,44.697,120.5,457.27
865,44.367,120.2,462.04
870,44.087,121.5,468.12
875,43.707,121.7,467.76
880,43.427,122.5,474.34
885,43.077,121.3,475.43
890,42.737,123.2,471.86
895,42.367,121.9,474.67
900,42.057,123.6,482.23
905,41.737,123.2,480.8
910,41.507,123.6,489.93
915,41.027,123.3,484.86
920,40.647,123.8,488.95
925,40.347,126,489.57
930,40.016,125.2,502.25
935,39.636,127.9,496.2
940,39.296,124.7,493.84
945,38.976,123.7,499.9
950,38.616,125.2,505.23
955,38.246,128.3,502.04
960,37.896,127.5,501.67
965,37.546,129.7,504.23
970,37.196,126.9,509.58
975,36.846,128.2,510.85
980,36.496,130.5,513.37
985,36.156,131.4,517.83
990,35.776,130.4,519.33
995,35.416,131.8,525.29
1000,35.056,133.8,524.86
1005,34.695,133.9,523.79
1010,34.365,134.4,524.14
1015,33.965,136,519.38
1020,33.625,134.4,534.8
1025,33.235,133.3,532.47
1030,32.825,136.4,537.88
1035,32.465,135.9,536.3
1040,32.085,136.9,534.93
1045,31.765,133.2,552.83
1050,31.355,137.5,544.73
1055,30.995,134.3,550.75
1060,30.665,136.7,550.48
1065,30.255,132.8,557.6
1070,29.905,135.2,559.34
1075,29.504,135.3,562.32
1080,29.154,135.7,564.9
1085,28.824,139.2,561.27
1090,28.434,136.7,564.92
1095,28.084,136.5,567.15
1100,27.744,134.4,570.68
1105,27.324,135.8,574.92
1110,26.994,134,577.96
1115,26.644,133,580.14
1120,26.254,135.4,582.87
1125,25.924,133.6,582.22
1130,25.544,129.1,578.1
1135,25.234,128.6,588.58
1140,24.904,129.8,593.21
1145,24.614,126.9,595.67
1150,24.273,124.5,595.54
1155,23.953,126.3,596.6
1160,23.623,121.8,600.36
1165,23.293,118.2,601.62
1170,22.993,118.4,604.89
1175,22.703,114.5,608.82
1180,22.413,114.3,610.63
1185,22.133,112.3,615.05
1190,21.893,110.8,620.89
1195,21.613,110.2,620.41
1200,21.373,108.9,623.32
1205,21.073,107.2,624.84
1210,20.773,105.2,627.15
1215,20.543,101.9,634.51
1220,20.303,99.9,635.49
1225,20.073,98.9,637.3
1230,19.843,97.2,642.82
1235,19.583,97.1,643.93
1240,19.353,95.7,647.84
1245,19.102,94.3,656.35
1250,18.922,93.2,656.04
1255,18.712,94.1,655.81
1260,18.572,90.2,662.68
1265,18.402,86.1,659.4
1270,18.202,85.2,657.97
1275,18.032,83.5,666.13
1280,17.862,82.5,669.79
1285,17.782,78.3,673.28
1290,17.642,77.1,680.3
1295,17.462,76.1,686.73
1300,17.312,73.9,690.63
1305,17.202,70.5,692.5
1310,17.122,68.2,701.27
1315,17.002,66.9,704.82
1320,16.932,65.8,709.46
1325,16.772,62.7,705.44
1330,16.722,62.7,710.3
1335,16.582,59.5,712.63
1340,16.512,59,717.21
1345,16.462,56,717.52
1350,16.382,56.1,719.83
1355,16.292,54.5,723.08
1360,16.172,52.9,724.53
1365,16.092,52.9,726.14
1370,16.022,53.1,728.53
1375,15.942,50.8,728.28
1380,15.942,49.4,731.11
1385,15.842,47.8,730.15
1390,15.782,49.2,731.71
1395,15.752,48.2,731.3
1400,15.672,48.3,728.89
1405,15.602,48.1,735.38
1410,15.592,47.1,730.52
1415,15.512,45.8,732.35
1420,15.442,43.8,735.5
1425,15.372,45.6,736.08
1430,15.322,45,739.55
1435,15.232,45.2,739.77
1436,15.272,45.2,740.83