Folder: matl-db/Wood/Calibration_Data/UDRI (part 4)

File: UDRI_Wood_Cone_60kW_hor_R4.csv
Time (s),Mass (g),HRR (kW/m2),TC back 1 (K)
0,110.9,4,299.922
5,110.56,3.9,298.265
10,109.96,73.9,285.887
15,109.25,183,298.547
20,108.46,239.6,301.441
25,107.679,257.8,304.392
30,106.989,267,302.598
35,106.379,263.1,299.501
40,105.689,257.3,300.067
45,105.059,250.1,298.179
50,104.529,240.3,300.782
55,103.969,229.9,301.551
60,103.399,230.2,300.327
65,102.798,219.1,300.032
70,102.318,216.8,302.612
75,101.758,210.2,304.85
80,101.218,206.3,302.539
85,100.718,205.6,302.421
90,100.228,194.3,302.091
95,99.718,195.4,302.872
100,99.208,190,301.944
105,98.698,189.2,304.675
110,98.198,184.7,303.881
115,97.717,180.1,306.622
120,97.227,179.3,307.5
125,96.737,179.4,308.072
130,96.217,176.7,306.22
135,95.737,178.9,307.318
140,95.237,178.2,307.295
145,94.797,174.6,308.366
150,94.227,176.5,308
155,93.827,174.8,308.113
160,93.367,171,306.926
165,92.887,170.6,309.335
170,92.457,165.5,309.364
175,91.966,165.9,309.592
180,91.536,163.9,312.806
185,91.086,161.9,312.02
190,90.586,163.9,312.394
195,90.156,163.6,316.175
200,89.686,161.6,312.514
205,89.216,161.1,315.441
210,88.796,157.8,313.977
215,88.406,157.3,315.242
220,87.966,156.6,314.068
225,87.556,151.6,316.021
230,87.155,152.1,318.697
235,86.685,152.2,318.235
240,86.255,148.9,318.383
245,85.925,151.9,323.999
250,85.495,147.6,320.831
255,85.065,146.4,321.42
260,84.645,146.8,322.382
265,84.225,145.1,322.154
270,83.775,145.8,325.701
275,83.375,146.2,326.502
280,83.005,143.5,326.27
285,82.625,145.4,326.61
290,82.225,143,327.925
295,81.784,145.9,329.611
300,81.444,146.7,329.92
305,81.024,142.1,329.71
310,80.614,145.1,333.081
315,80.234,144.7,333.58
320,79.814,139.5,335.011
325,79.424,139.5,333.682
330,79.074,142.1,333.765
335,78.664,139.6,335.694
340,78.274,141.8,338.691
345,77.944,141.3,338.661
350,77.504,138.6,340.106
355,77.134,137.1,342.639
360,76.734,140.3,341.032
365,76.333,137.2,346.132
370,75.993,141.3,345.682
375,75.543,140.5,347.499
380,75.113,142.4,348.788
385,74.793,140.7,349.933
390,74.393,140.6,351.67
395,73.963,141.1,353.67
400,73.553,143.5,355.505
405,73.193,143.1,354.989
410,72.773,138.1,358.123
415,72.423,141.5,358.389
420,72.053,139.9,361.141
425,71.603,139.9,361.061
430,71.262,140.6,363.861
435,70.832,141.8,364.091
440,70.442,141.7,363.105
445,70.062,142.4,366.062
450,69.652,143.1,366.52
455,69.312,140.9,366.495
460,68.892,140.1,367.654
465,68.472,142.2,367.872
470,68.092,145.2,373.074
475,67.682,142.8,372.737
480,67.272,143.5,373.32
485,66.902,141.7,374.02
490,66.542,143.7,368.051
495,66.061,143.2,372.817
500,65.701,142.7,376.59
505,65.281,143.7,376.76
510,64.871,142,377.92
515,64.461,143.7,378.14
520,64.161,145.5,377.72
525,63.661,143,379.35
530,63.311,142.6,378.61
535,62.901,140.9,381.06
540,62.491,144.2,381.81
545,62.071,145.4,383.42
550,61.671,144.6,384.69
555,61.291,143.4,381.38
560,60.881,143.7,384.62
565,60.52,143.8,384.23
570,60.1,148.5,385.6
575,59.7,142,384.79
580,59.33,143,385.53
585,58.88,144.6,388.49
590,58.46,142.3,387.39
595,58.07,145.8,390.89
600,57.67,142.6,389.38
605,57.28,146.4,388.67
610,56.85,141.5,392.38
615,56.51,145.4,390.24
620,56.05,143.7,394.63
625,55.68,144.8,392.33
630,55.239,145.7,394.34
635,54.879,142.6,392.5
640,54.509,144,395.29
645,54.029,143.5,394.27
650,53.619,141.2,396.22
655,53.269,138.6,398.84
660,52.869,140.5,401.43
665,52.449,142.7,399.1
670,52.059,139.3,401.52
675,51.679,138.4,402.31
680,51.269,138.4,402.53
685,50.909,137.6,406.6
690,50.499,138.8,403.59
695,50.158,140.3,406.97
700,49.748,135,408.6
705,49.308,135.3,409.42
710,48.978,132.9,412.86
715,48.598,134,413.36
720,48.238,131.7,412.94
725,47.928,132.7,416.39
730,47.528,136.4,417.31
735,47.198,130.5,416.07
740,46.758,126.3,420.72
745,46.388,127.6,422
750,46.048,129.5,422.85
755,45.678,126.3,424.94
760,45.348,124.8,423.81
765,45.008,124.5,428.27
770,44.637,123.2,429.82
775,44.287,122.1,425.42
780,43.937,124.6,431.51
785,43.617,122.3,435.2
790,43.277,120.2,442.16
795,42.917,120.8,439.54
800,42.597,120.7,438.19
805,42.297,120.7,443.35
810,41.937,118.3,444.93
815,41.507,120.9,450.04
820,41.187,119,455.96
825,40.927,121.6,455.65
830,40.547,117.5,467.58
835,40.237,119.2,457.53
840,39.827,121.2,462.05
845,39.546,118.2,463.59
850,39.256,121.7,465.36
855,38.846,119.6,472.62
860,38.556,118.9,476.39
865,38.246,122,467.83
870,37.896,122,472.92
875,37.576,119.6,479.73
880,37.226,119.8,478.89
885,36.876,118.7,484.91
890,36.516,120,491.99
895,36.216,119.1,489.15
900,35.796,120.7,498.21
905,35.466,119.4,499.91
910,35.126,118,503
915,34.806,118.5,502.58
920,34.486,121.2,505.77
925,34.095,119.1,512.71
930,33.795,120.8,516.31
935,33.465,120,519.21
940,33.125,118.4,528.01
945,32.745,122.7,522.79
950,32.465,118.5,530.27
955,32.135,120.9,528.49
960,31.815,118.4,528.23
965,31.405,118.4,533.97
970,31.125,118.9,536.34
975,30.825,118.2,534.01
980,30.415,119.6,544.81
985,30.175,118,556.31
990,29.855,118,545.81
995,29.505,118.4,558.64
1000,29.174,117.7,553.85
1005,28.864,115.9,555.34
1010,28.544,115.2,559.36
1015,28.194,118.7,566.56
1020,27.914,119.6,564.11
1025,27.584,116.5,574.95
1030,27.294,115.8,576.75
1035,26.964,115.1,586.14
1040,26.634,115.9,582.64
1045,26.304,115.1,593.51
1050,26.024,111.8,589.12
1055,25.694,110.8,595.01
1060,25.384,113.5,599.41
1065,25.084,111.8,593.66
1070,24.794,111,597.62
1075,24.514,110.6,614.53
1080,24.154,109.1,613.71
1085,23.893,109,614.8
1090,23.633,106.3,623.9
1095,23.353,106.3,625.34
1100,23.063,107.7,633.31
1105,22.763,105.5,633.06
1110,22.473,104.8,635.87
1115,22.193,103.2,641.28
1120,21.953,103.9,654.36
1125,21.693,102.3,655.48
1130,21.413,101,666.11
1135,21.203,98.7,660.2
1140,20.953,97.7,665.6
1145,20.693,95.1,670.49
1150,20.443,94.5,671.08
1155,20.223,94.1,677.45
1160,19.953,93.5,682
1165,19.713,95.3,684.72
1170,19.493,92.4,685.67
1175,19.203,92.9,692.64
1180,18.983,90.5,700.15
1185,18.773,86.6,709.74
1190,18.572,83.4,719.12
1195,18.352,81.2,715.4
1200,18.102,79.5,722.23
1205,17.902,77.1,726.75
1210,17.762,76,735.4
1215,17.542,77,734.43
1220,17.392,71.9,745.53
1225,17.282,72.5,742.96
1230,17.102,68.4,745.63
1235,16.902,67.5,756.46
1240,16.742,68.3,756.52
1245,16.592,67.2,760.67
1250,16.432,66.1,769.85
1255,16.262,63.8,766.06
1260,16.132,63.7,778.13
1265,15.992,60.2,783.22
1270,15.862,59.1,788.64
1275,15.722,58.6,786.33
1280,15.622,58.7,789.72
1285,15.482,56.8,798.31
1290,15.372,56.1,797.48
1295,15.262,55.4,802.97
1300,15.142,55,807.45
1305,15.032,53.6,804.76
1310,14.932,51.2,814.2
1315,14.842,52.3,817.93
1320,14.732,47.8,819.22
1325,14.622,46.7,826.28
1330,14.552,46.9,825.02
1335,14.422,44.7,829.24
1340,14.372,45.6,847.83
1345,14.282,46.2,850.19
1350,14.152,44.7,873.55
1355,14.062,45.4,865.01
1360,13.952,45.1,891.17
1365,13.892,44.6,910.34
1370,13.802,44.5,942.72
1375,13.752,45,957.86
1380,13.652,42.6,975.27
1385,13.602,43.1,986.73
1390,13.522,43.2,995.74
1395,13.462,42,1023.52
1400,13.371,41.3,1029.1
1405,13.301,41,1036.18
1410,13.241,40.2,1047.75
1415,13.231,40.6,1058.75
1420,13.111,40.1,1061.45
1425,13.081,39.5,1071.07
1430,12.951,40.4,1065.86
1435,12.911,39.8,1075.16
1440,12.871,38.2,1072.34
1441,12.861,38.9,1072.27

File: UDRI_Wood_MCC_N2_60K_R1.csv
Time (s),Temperature (K),HRR (W/g)
75.8282,416,0.05
77.4678,418,-0.19
79.4387,420,-0.16
81.4393,422,-0.16
83.5091,424,0.21
85.4733,426,0.42
87.4513,428,0.66
89.3111,430,0.78
91.181,432,0.64
93.1524,434,0.92
95.1214,436,1.03
97.1495,438,1.36
99.112,440,1.47
101.025,442,1.52
102.857,444,1.27
104.835,446,1.70
106.79,448,1.95
108.913,450,2.57
110.914,452,2.86
112.891,454,3.24
114.785,456,3.45
116.738,458,3.81
118.675,460,3.60
120.648,462,3.76
122.64,464,4.45
124.611,466,5.20
126.706,468,6.19
128.693,470,6.47
130.693,472,6.92
132.511,474,7.39
134.512,476,8.06
136.509,478,8.44
138.45,480,8.52
140.425,482,9.28
142.389,484,9.92
144.501,486,10.78
146.527,488,11.30
148.521,490,11.76
150.507,492,12.51
152.438,494,12.93
154.447,496,12.96
156.431,498,12.96
158.374,500,12.94
160.455,502,12.90
162.497,504,12.61
164.5,506,12.57
166.533,508,12.22
168.484,510,11.89
170.52,512,11.68
172.469,514,11.40
174.469,516,11.46
176.463,518,11.37
178.498,520,11.37
180.475,522,11.71
182.474,524,12.21
184.499,526,12.34
186.544,528,12.75
188.422,530,13.21
190.463,532,13.65
192.482,534,14.15
194.424,536,14.87
196.463,538,15.45
198.453,540,16.27
200.617,542,16.90
202.634,544,17.69
204.677,546,18.71
206.713,548,19.81
208.681,550,20.41
210.683,552,21.13
212.601,554,21.90
214.602,556,22.82
216.609,558,23.89
218.744,560,25.15
220.745,562,26.06
222.763,564,27.29
224.669,566,28.58
226.657,568,29.50
228.667,570,30.54
230.611,572,31.64
232.599,574,32.54
234.649,576,33.72
236.682,578,34.96
238.765,580,36.29
240.769,582,37.71
242.842,584,39.25
244.855,586,40.41
246.83,588,41.51
248.702,590,42.62
250.704,592,44.13
252.752,594,45.39
254.803,596,46.84
256.818,598,48.49
258.832,600,50.06
260.833,602,51.86
262.844,604,53.73
264.881,606,55.69
266.938,608,57.79
268.91,610,59.82
270.968,612,62.03
272.942,614,64.17
274.932,616,66.09
276.92,618,68.10
278.899,620,70.08
280.942,622,71.99
282.949,624,73.76
284.985,626,75.63
287.001,628,77.69
289.067,630,79.53
291.005,632,81.29
293.009,634,83.02
294.998,636,84.65
296.926,638,86.34
298.941,640,88.26
301.022,642,90.56
303.228,644,92.96
305.21,646,95.40
307.204,648,98.26
309.18,650,101.22
311.187,652,104.45
313.229,654,107.84
315.276,656,111.50
317.31,658,115.08
319.279,660,118.29
321.257,662,121.10
323.206,664,123.48
325.23,666,125.00
327.25,668,125.37
329.207,670,124.44
331.253,672,121.91
333.299,674,117.22
335.305,676,110.76
337.287,678,102.60
339.256,680,92.81
341.183,682,82.09
343.124,684,70.96
345.105,686,59.81
347.054,688,49.30
349.075,690,39.75
351.131,692,31.62
353.087,694,25.72
355.129,696,21.15
357.187,698,17.92
359.224,700,15.69
361.221,702,14.23
363.271,704,13.05
365.307,706,12.17
367.312,708,11.71
369.367,710,11.44
371.423,712,11.02
373.384,714,10.28
375.386,716,10.24
377.294,718,9.58
379.271,720,9.14
381.268,722,8.64
383.265,724,8.46
385.259,726,8.04
387.316,728,7.72
389.373,730,7.40
391.423,732,6.90
393.424,734,6.82
395.387,736,6.68
397.421,738,6.22
399.407,740,5.76
401.388,742,5.47
403.41,744,5.22
405.386,746,4.90
407.355,748,4.21
409.38,750,3.96
411.378,752,3.86
413.456,754,3.59
415.484,756,3.30
417.444,758,2.88
419.394,760,2.67
421.433,762,2.72
423.48,764,2.31
425.49,766,2.01
427.471,768,2.03
429.459,770,1.90
431.457,772,1.66
433.445,774,1.45
435.463,776,1.23
437.488,778,1.31
439.535,780,1.24
441.608,782,0.99
443.546,784,0.95
445.586,786,0.86
447.572,788,0.88
449.686,790,0.86
451.662,792,0.75
453.664,794,0.53
455.527,796,0.64
457.537,798,0.47
459.604,800,0.48
461.676,802,0.39
463.669,804,0.30
465.653,806,0.44
467.625,808,0.46
469.636,810,0.24
471.653,812,0.20
473.608,814,0.13
475.61,816,0.21
477.669,818,0.11
479.773,820,0.02
481.765,822,0.02
483.802,824,0.06
485.769,826,0.08
487.729,828,0.06
489.75,830,0.15
491.758,832,-0.16
493.793,834,-0.13
495.788,836,0.10
497.823,838,-0.07
499.814,840,-0.09
501.848,842,-0.21
503.853,844,0.03
505.836,846,-0.01
507.827,848,0.15
509.837,850,0.15
511.817,852,0.12
513.823,854,0.08
515.835,856,0.07
517.862,858,0.22
519.838,860,0.15
521.873,862,-0.07
523.824,864,-0.04
525.821,866,-0.11
527.873,868,0.11
529.915,870,0.17
531.993,872,0.18
534.029,874,-0.01
535.903,876,0.06
537.917,878,0.03
539.943,880,-0.06
541.994,882,0.00
543.967,884,-0.10
545.986,886,0.12
547.894,888,-0.07
549.938,890,-0.11
551.945,892,-0.16
554.059,894,-0.12
556.029,896,-0.18
558.009,898,-0.09
560.005,900,0.08
561.97,902,-0.19
564.024,904,-0.28
565.893,906,-0.19
567.912,908,0.04
569.93,910,-0.08
572.061,912,-0.01
574.075,914,-0.23
576.067,916,-0.20
577.966,918,-0.15
579.998,920,-0.03
582.041,922,-0.20
584.033,924,-0.12
586.05,926,0.11
588.053,928,0.22
590.187,930,0.26
592.158,932,0.12
594.145,934,0.15
596.104,936,0.16
598.088,938,0.24
600.066,940,0.08
602.068,942,0.25
604.065,944,0.15
606.088,946,0.06
608.033,948,0.05
610.028,950,-0.02
611.984,952,0.02
613.97,954,-0.10
616.013,956,-0.12
618.044,958,0.05
620.133,960,0.13
622.121,962,0.26
624.134,964,0.19
626.024,966,0.08
627.98,968,-0.02
630.022,970,-0.14
632.06,972,-0.07
634.018,974,-0.16
636.005,976,0.05
637.978,978,-0.05
639.982,980,-0.06
642.029,982,-0.05
644.08,984,-0.05
646.14,986,-0.17
648.07,988,-0.11
649.525,989.5,0.11

File: UDRI_Wood_MCC_N2_60K_R2.csv
Time (s),Temperature (K),HRR (W/g)
45.8406,397.5,0.21
47.663,399.5,-0.01
49.501,401.5,-0.16
51.3534,403.5,0.13
53.1786,405.5,0.13
55.0501,407.5,-0.07
56.8589,409.5,-0.49
58.6581,411.5,-0.28
60.5115,413.5,-0.32
62.4641,415.5,-0.41
64.3913,417.5,-0.28
66.2766,419.5,-0.12
68.1932,421.5,0.70
70.0396,423.5,0.65
71.9326,425.5,0.36
73.7871,427.5,0.37
75.5784,429.5,0.35
77.4643,431.5,0.38
79.3944,433.5,0.12
81.2927,435.5,0.21
83.1791,437.5,0.68
85.1163,439.5,0.73
87.0446,441.5,0.58
88.9608,443.5,0.69
90.8667,445.5,1.40
92.8479,447.5,1.82
94.8027,449.5,1.90
96.7189,451.5,2.14
98.6673,453.5,2.58
100.518,455.5,2.83
102.474,457.5,3.09
104.375,459.5,3.36
106.336,461.5,3.84
108.31,463.5,4.47
110.278,465.5,4.60
112.108,467.5,4.84
114.064,469.5,5.56
116.073,471.5,5.88
118.157,473.5,6.66
120.132,475.5,7.49
122.099,477.5,8.32
123.984,479.5,8.60
125.924,481.5,9.10
127.829,483.5,9.57
129.906,485.5,10.19
131.878,487.5,10.92
133.87,489.5,11.41
135.816,491.5,11.80
137.777,493.5,12.15
139.756,495.5,12.05
141.805,497.5,11.69
143.809,499.5,11.90
145.825,501.5,11.79
147.865,503.5,11.79
149.827,505.5,11.76
151.753,507.5,11.02
153.71,509.5,10.36
155.518,511.5,9.82
157.51,513.5,9.76
159.514,515.5,9.55
161.637,517.5,9.65
163.722,519.5,10.21
165.729,521.5,11.05
167.752,523.5,11.77
169.755,525.5,12.01
171.744,527.5,12.13
173.528,529.5,12.48
175.517,531.5,12.90
177.545,533.5,13.26
179.627,535.5,13.66
181.656,537.5,14.71
183.672,539.5,15.75
185.755,541.5,16.69
187.725,543.5,17.19
189.738,545.5,18.07
191.59,547.5,18.64
193.592,549.5,19.34
195.618,551.5,20.00
197.663,553.5,21.25
199.701,555.5,22.43
201.669,557.5,23.23
203.607,559.5,23.97
205.604,561.5,25.11
207.623,563.5,26.18
209.748,565.5,27.15
211.745,567.5,28.22
213.771,569.5,29.54
215.772,571.5,30.70
217.764,573.5,31.50
219.776,575.5,32.49
221.718,577.5,33.39
223.741,579.5,34.40
225.79,581.5,35.65
227.863,583.5,37.03
229.84,585.5,38.34
231.838,587.5,39.60
233.812,589.5,41.05
235.775,591.5,42.54
237.82,593.5,43.83
239.726,595.5,45.02
241.686,597.5,46.54
243.729,599.5,48.34
245.878,601.5,50.30
247.921,603.5,52.19
249.955,605.5,54.22
251.925,607.5,56.19
253.919,609.5,58.12
255.898,611.5,60.39
258.016,613.5,62.35
260.032,615.5,64.33
261.987,617.5,66.70
264.011,619.5,69.02
266.018,621.5,71.03
267.974,623.5,72.99
269.85,625.5,74.45
271.798,627.5,76.17
273.852,629.5,78.24
276.01,631.5,80.08
278.057,633.5,81.91
280.058,635.5,83.49
282.028,637.5,85.13
283.971,639.5,87.00
286.038,641.5,89.35
288.116,643.5,91.72
290.18,645.5,94.08
292.137,647.5,96.71
294.127,649.5,99.97
296.131,651.5,103.10
298.145,653.5,106.29
300.176,655.5,109.96
302.22,657.5,113.37
304.205,659.5,116.79
306.217,661.5,119.99
308.189,663.5,122.64
310.195,665.5,124.85
312.245,667.5,126.15
314.275,669.5,125.78
316.286,671.5,123.41
318.258,673.5,119.52
320.153,675.5,113.84
322.158,677.5,105.96
324.165,679.5,96.03
326.177,681.5,84.78
328.124,683.5,73.15
330.128,685.5,61.04
332.115,687.5,50.19
334.156,689.5,40.12
336.147,691.5,32.00
338.044,693.5,25.61
340.085,695.5,20.85
342.104,697.5,17.68
344.291,699.5,15.19
346.321,701.5,13.68
348.345,703.5,12.61
350.189,705.5,12.15
352.202,707.5,11.40
354.206,709.5,10.63
356.225,711.5,9.90
358.27,713.5,9.63
360.261,715.5,9.07
362.347,717.5,8.86
364.349,719.5,8.48
366.346,721.5,8.48
368.478,723.5,8.41
370.5,725.5,7.82
372.458,727.5,7.51
374.299,729.5,6.98
376.308,731.5,6.56
378.306,733.5,5.83
380.273,735.5,5.43
382.359,737.5,5.61
384.421,739.5,5.13
386.48,741.5,4.94
388.503,743.5,4.81
390.495,745.5,4.47
392.598,747.5,4.26
394.592,749.5,3.88
396.585,751.5,3.50
398.47,753.5,3.21
400.504,755.5,3.00
402.495,757.5,2.65
404.529,759.5,2.34
406.575,761.5,2.01
408.615,763.5,1.66
410.603,765.5,2.01
412.586,767.5,1.85
414.588,769.5,1.53
416.655,771.5,1.47
418.63,773.5,0.83
420.606,775.5,0.84
422.727,777.5,1.04
424.732,779.5,0.99
426.754,781.5,1.08
428.598,783.5,1.14
430.53,785.5,0.56
432.537,787.5,0.34
434.551,789.5,0.12
436.585,791.5,0.05
438.626,793.5,-0.19
440.718,795.5,0.07
442.748,797.5,0.56
444.823,799.5,0.59
446.808,801.5,-0.09
448.778,803.5,0.26
450.756,805.5,0.15
452.835,807.5,-0.01
454.866,809.5,0.16
456.842,811.5,0.20
458.793,813.5,0.03
460.711,815.5,-0.49
462.822,817.5,-0.02
464.855,819.5,-0.03
466.867,821.5,-0.12
468.867,823.5,-0.20
470.862,825.5,0.26
472.869,827.5,-0.06
474.831,829.5,0.12
476.818,831.5,0.17
478.814,833.5,0.28
480.818,835.5,-0.67
482.808,837.5,0.14
484.796,839.5,-0.09
486.805,841.5,-0.06
488.805,843.5,-0.01
490.828,845.5,-0.03
492.822,847.5,-0.26
494.873,849.5,0.04
496.813,851.5,-0.05
498.846,853.5,-0.15
500.826,855.5,0.12
502.879,857.5,-0.43
504.864,859.5,-0.17
506.851,861.5,-0.33
508.877,863.5,-0.11
510.857,865.5,-0.09
512.87,867.5,-0.11
514.895,869.5,0.06
516.913,871.5,0.25
518.973,873.5,0.36
520.879,875.5,0.03
522.914,877.5,0.04
524.911,879.5,-0.05
526.915,881.5,0.37
528.907,883.5,0.13
530.918,885.5,0.07
532.922,887.5,-0.07
534.897,889.5,-0.21
536.916,891.5,-0.17
538.877,893.5,-0.08
540.899,895.5,-0.33
542.898,897.5,-0.34
544.882,899.5,0.02
546.887,901.5,-0.03
548.923,903.5,0.62
550.892,905.5,0.07
552.918,907.5,0.44
554.91,909.5,0.06
556.802,911.5,0.06
558.816,913.5,-0.16
560.849,915.5,-0.53
563.085,917.5,0.49
565.075,919.5,0.00
567.073,921.5,-0.40
568.951,923.5,0.04
570.976,925.5,0.25
572.955,927.5,0.14
574.934,929.5,-0.04
576.915,931.5,-0.32
578.964,933.5,-0.11
580.954,935.5,0.40
582.973,937.5,0.69
584.987,939.5,0.09
587.06,941.5,0.47
589.034,943.5,0.20
591.054,945.5,0.21
593.054,947.5,0.03
594.975,949.5,-0.60
596.927,951.5,-0.15
599.012,953.5,-0.04
600.99,955.5,0.36
603.002,957.5,-0.47
605.028,959.5,0.19
607.013,961.5,0.13
608.985,963.5,0.38
610.997,965.5,-0.01
612.985,967.5,-0.01
614.961,969.5,0.13
617.003,971.5,-0.13
618.89,973.5,-0.06
620.894,975.5,0.23
622.899,977.5,-0.18
624.854,979.5,0.18
626.889,981.5,-0.10
628.919,983.5,-0.47
630.869,985.5,0.06
632.845,987.5,0.05
634.302,989,-0.10