Folder: matl-db/Wood/Calibration_Data/UDRI

Note: Wood/Calibration_Data/UDRI/README.md
# University of Dayton Research Institute (UDRI)
### Experimental Conditions: MCC

A Deatak MCC-4 microscale combustion calorimeter was used to conduct MCC experiments in triplicate. Heat release was very reproducible for the wood powder sample tested. A polystyrene standard as an internal control was run as well. Key HRR data from these PS tests measured: (1) heat of combustion, 41.2 kJ/g to 41.8 kJ/g; (2) Peak HRR, 1099 W/g to  1166 W/g; (3) T\_Peak\_HRR 446 C to 448 C; (4) FGC 833 J/g-k to 859 J/g-k.

* Heating Rate: 60 K/min
* Temperature program (Pyrolyzer)

  * Initial temperature 423 K
  * Isotherm: None (immediate ramp at start of test)
  * Maximum Temperature 1023 K

* Combustor Temperature: 1173K
* Sample mass: 5.01 mg to 5.56 mg
* Sample geometry: Powdered
* Calibration type: Before each experiment, a baseline test was performed using a 3.5 mg +/-0.1 mg sample of polystyrene (PS) as a reference. O2 sensor/flow calibration [not reported]. Temperature calibration was performed wthin 12 months of these experiments.
* Crucible

  * Type: Alumina
  * Volume: -
  * Diameter: -
  * Mass: 171.5 mg +/- 1.0 mg
  * Lid: None
  * Note: -

* Pyrolyzer Carrier Gas

  * Ultra High Purity (UHP) Nitrogen
  * N2 Flow rate = 80 ml/min

* Combustor Carrier Gas

  * Ultra High Purity (UHP) Oxygen + Pyrolyzer Carrier Gas (UHP nitrogen)
  * O2 Flow rate = 20 ml/min

* Instrument

  * Type: Deatak MCC-4
  * O2 Analyzer: Paramagnetic
  * Note: None

| Test Name | O2 volume % | Initial Sample Mass (mg) | Final Sample Mass (mg) | 
|--------- | :---------: | :------------------------: | :------------------------: | 
|UDRI_MCC_N2_60K_1 | 0 | 5.560| 0.739 | 
|UDRI_MCC_N2_60K_2 | 0 | 5.007| 0.673| 
|UDRI_MCC_N2_60K_3 | 0 | 5.013| 0.669 |


### Experimental Conditions, Cone calorimeter

Cone Calorimeter experiments were conducted on a Deatak CC-2 Cone Calorimeter (McHenry, IL USA) at 2 heat fluxes (30kW/m2 and 60kW/m2) with an exhaust flow of 24 L/s using the standardized cone calorimeter procedure (ASTM E1354-25). Samples were wrapped in aluminum foil on one side as per the ASTM E1354 standard and placed upon ceramic wool insulation for testing. No frame or grid were used. An external thermocouple was placed under the wood samples and recorded the rise in temperature during the burning.

Data collected from all samples is believed to have an error of Â±10% and were calculated using a specimen surface area of 100 cm2. All samples were tested in duplicate as per  customer request.

* Test Standard: ASTM E1354-25
* Extraction flow rate: 24L/s
* Sample Surface Area: 0.01 m2 (nominal)
* Sample holder dimensions:

  * Square pan: 106mm x 106mm x 25mm
  * Retainer frame: None
  * Retaining grid: None

* Backing Insulation: (~2.54 cm thick) refractory fiber conforming to ASTM E1354.  
* Thermocouple location: under wood sample
* Ignition Source: (spark ignitor)

###### Test Heating Conditions

|Test Name | Heat Flux (kW/m2)| Heater Temperature (K) |thickness (cm)|t\_ign (s)

File: UDRI_Cone_30kW_hor_R3.csv
Time (s),Mass (g),HRR (kW/m2),TC back 1 (K)
0,110.8,3.1,293.958
7,110.79,1.7,305.8
14,110.74,4.5,297.596
21,110.67,5.4,289.595
28,110.62,9,293.649
35,110.54,6.7,298.422
42,110.51,5.4,292.162
49,110.3,5.8,294.377
56,109.82,9.8,292.361
63,108.87,149.2,295.915
70,108.28,157.5,292.651
77,107.739,135.5,299.999
84,107.269,115.2,290.798
91,106.879,107.8,295.828
98,106.439,97.5,297.528
105,106.039,94.1,301.084
112,105.669,90.4,300.365
119,105.299,87.3,300.688
126,104.979,84.9,298.055
133,104.589,83.5,295.496
140,104.239,82.9,301.791
147,103.889,84.1,300.677
154,103.529,83.4,301.668
161,103.209,82.5,301.935
168,102.809,81.6,298.293
175,102.498,81.9,301.583
182,102.168,81.5,295.332
189,101.798,82.9,305.413
196,101.498,80.2,306.91
203,101.148,80.6,295.931
210,100.818,78.9,301.353
217,100.498,76.4,300.506
224,100.158,74.3,310.692
231,99.888,73.7,299.803
238,99.528,73.2,312.427
245,99.258,71.8,300.079
252,98.908,70.4,310.668
259,98.598,71.4,307.095
266,98.288,70.7,315.026
273,97.948,67.9,310.985
280,97.638,68.5,311.701
287,97.347,68.9,311.099
294,97.057,64.6,314.553
301,96.747,66.6,312.45
308,96.427,67.3,319.142
315,96.117,66,324.221
322,95.827,65.9,318.108
329,95.507,66.1,317.623
336,95.177,67.3,317.297
343,94.877,67,314.953
350,94.587,69,318.829
357,94.247,67.2,314.21
364,93.987,69.2,322.017
371,93.677,68.2,330.121
378,93.387,66.8,327.509
385,93.087,69,316.672
392,92.747,67.6,327.977
399,92.467,70.3,324.207
406,92.156,66.9,323.223
413,91.836,66.7,333.641
420,91.536,66.9,337.012
427,91.196,66.9,331.466
434,90.896,68.2,333.176
441,90.606,69.6,331.221
448,90.276,68.9,337.135
455,89.966,68.7,335.826
462,89.616,68.7,336.906
469,89.296,69,336.182
476,88.966,70,339.002
483,88.676,71.5,347.533
490,88.356,70.6,341.286
497,88.016,71.2,353.902
504,87.726,70,344.269
511,87.356,71.2,346.079
518,87.066,71.1,346.841
525,86.755,70.1,348.995
532,86.435,70.1,344.632
539,86.105,69.3,359.426
546,85.795,70.5,351.822
553,85.465,70.7,349.965
560,85.115,69.7,356.318
567,84.805,72.3,363.221
574,84.485,70.3,355.974
581,84.145,71.2,357.391
588,83.855,70.1,354.374
595,83.535,72.5,363.418
602,83.195,71.1,363.369
609,82.855,68.6,362.012
616,82.545,70.4,365.49
623,82.255,71,365.456
630,81.935,71.4,367.231
637,81.614,69.9,368.283
644,81.304,70.9,367.707
651,80.994,71.5,360.519
658,80.644,69.8,359.365
665,80.344,70,364.934
672,80.064,69.9,369.588
679,79.704,70.5,374.9
686,79.404,70.8,372
693,79.074,69.4,365.203
700,78.764,68.6,372.692
707,78.464,67.8,382.34
714,78.184,68.2,385.09
721,77.864,68.7,361.89
728,77.494,70.1,375.34
735,77.194,69.4,378.08
742,76.904,69.5,377.17
749,76.624,71,370.506
756,76.313,71,379.47
763,75.983,70.1,373.82
770,75.693,69.5,377.51
777,75.353,69.9,380.78
784,75.103,71.2,381
791,74.773,69,382.71
798,74.453,68.9,385.03
805,74.193,70,383.25
812,73.883,67.9,389.48
819,73.553,68.6,373.35
826,73.283,68.7,377.3
833,72.973,67.3,379.83
840,72.693,66.9,365.882
847,72.413,68,374.34
854,72.113,67.6,383.94
861,71.853,67,382.73
868,71.553,68.5,378.79
875,71.323,67.7,381.04
882,71.002,66.2,382.99
889,70.672,68.4,385.32
896,70.382,67.6,381.46
903,70.092,66.6,382.06
910,69.822,67.2,384.73
917,69.532,67.3,380.63
924,69.232,67.2,383.94
931,68.982,68.4,384.06
938,68.702,65.7,397.34
945,68.412,66.4,396.56
952,68.172,66.4,389.84
959,67.862,65.2,390.92
966,67.552,65.9,387.52
973,67.282,65.6,385.53
980,67.022,65.4,391.8
987,66.712,65.5,395.18
994,66.482,64.5,395.7
1001,66.162,64.1,392.32
1008,65.881,64.7,394.31
1015,65.611,63.3,394.78
1022,65.331,64.2,403.12
1029,65.041,66.4,396.77
1036,64.801,64.9,405.15
1043,64.521,65.7,405.18
1050,64.211,67.3,405.43
1057,63.971,68,398.03
1064,63.701,67.9,409.15
1071,63.401,66.8,410.48
1078,63.111,68.8,406.63
1085,62.791,68.4,410.62
1092,62.561,70.2,408.25
1099,62.301,69.5,408.83
1106,61.961,70.3,414.98
1113,61.721,69.9,416.4
1120,61.421,69.7,417.15
1127,61.131,71,413.33
1134,60.831,72.9,408.62
1141,60.56,74.1,421.81
1148,60.27,73.1,422.68
1155,59.98,72.6,421.25
1162,59.65,72.6,432.36
1169,59.39,73.8,430.17
1176,59.1,74.5,429.97
1183,58.82,75.3,432.48
1190,58.52,75,431.74
1197,58.19,76.6,438.48
1204,57.89,77.2,433.25
1211,57.57,77.3,441.78
1218,57.22,77.9,446
1225,56.96,79.4,442.06
1232,56.63,80,452.23
1239,56.33,82.1,449.2
1246,56.05,81.4,425.92
1253,55.7,82.5,463.48
1260,55.37,83,456.35
1267,54.979,85.3,462.84
1274,54.689,83.5,463.35
1281,54.349,86.9,463.37
1288,53.999,86.7,467.31
1295,53.659,88.3,465.42
1302,53.319,89.1,477.83
1309,52.969,89.2,475.46
1316,52.589,91.3,479.81
1323,52.219,91.4,476.32
1330,51.839,93.4,479.8
1337,51.449,92.1,476.08
1344,51.109,94.9,483.46
1351,50.679,94.3,483.34
1358,50.299,97.6,493.04
1365,49.888,95.7,495.59
1372,49.468,98,503.86
1379,49.108,97.4,509.14
1386,48.728,97,501.57
1393,48.318,96.2,509.06
1400,47.908,99.7,505.73
1407,47.428,100.8,522.21
1414,46.978,100.5,516.07
1421,46.598,99.7,515.93
1428,46.158,102,517.88
1435,45.698,101.5,520.89
1442,45.198,104.3,524.3
1449,44.767,104.5,530.99
1456,44.297,107.3,537.29
1463,43.857,108.3,531.6
1470,43.377,111.3,542.16
1477,42.847,111.5,545.27
1484,42.377,112.2,549.16
1491,41.827,115,559.5
1498,41.347,118.6,551.03
1505,40.837,117,561.21
1512,40.367,119.6,553.7
1519,39.797,121.8,556.99
1526,39.316,124.9,560.28
1533,38.766,127.9,562.4
1540,38.206,129.8,570.36
1547,37.666,129.5,575.2
1554,37.156,130.2,577.29
1561,36.596,127,581.1
1568,36.116,131.9,574.01
1575,35.536,131.4,573.01
1582,35.026,131.1,585.5
1589,34.436,130.9,590.96
1596,33.895,131.8,581.76
1603,33.375,131.1,591.98
1610,32.865,129.7,594.97
1617,32.365,135.6,601.1
1624,31.825,132.4,589.25
1631,31.385,127.9,602.51
1638,30.935,122.9,595.26
1645,30.405,122.7,601.4
1652,29.975,120,603.31
1659,29.625,117.6,602.84
1666,29.195,112.9,609.94
1673,28.814,112.5,610.23
1680,28.454,107.3,611.85
1687,28.074,104.6,615.56
1694,27.724,100.8,616.4
1701,27.464,95.5,619.35
1708,27.124,91.2,619.92
1715,26.824,88.1,626.39
1722,26.604,83.2,625.38
1729,26.294,82.2,617.72
1736,26.114,77.8,637.65
1743,25.884,75.6,635.82
1750,25.674,73.1,644.1
1757,25.424,71.5,633.48
1764,25.254,67.6,643.21
1771,25.064,65.6,663.64
1778,24.844,62.4,649.19
1785,24.684,59.4,653.41
1792,24.544,59.1,658.44
1799,24.344,57.2,660.95
1806,24.194,54.7,656.33
1813,24.074,53.8,662.96
1820,23.974,51.6,669.01
1827,23.844,50.7,667.3
1834,23.733,48.9,654.87
1841,23.613,47.7,665.24
1848,23.473,47.6,668.98
1855,23.413,46.3,662.88
1862,23.243,45.7,669.87
1869,23.173,46,660.62
1876,23.033,44,662.83
1883,22.943,43.2,656.61
1890,22.943,41.7,661.46
1897,22.783,41.3,655.89
1904,22.713,41.9,652.94
1911,22.573,42.3,656
1918,22.533,40.5,658.6
1925,22.403,39.5,656.14
1932,22.353,40.5,660.82
1939,22.293,41.8,651.86
1946,22.193,40.1,662.05
1953,22.093,40.6,658.3
1960,22.013,40.8,653.82
1967,21.943,39.4,666.15
1974,21.903,39.9,660.26
1981,21.783,39.4,660.84
1988,21.713,39.1,653.37
1995,21.633,39.2,661.36
2002,21.573,38,659.34
2009,21.473,37.9,653.6
2010,21.473,38.4,656.24

File: UDRI_Cone_60kW_hor_R1.csv
Time (s),Mass (g),HRR (kW/m2),TC back 1 (K)
0,115.44,3.9,291.538
6,115.31,3.2,289.813
12,114.71,26.1,290.832
18,113.92,110.4,294.912
24,113.16,160.9,297.719
30,112.509,168.2,305.221
36,111.919,159.5,298.228
42,111.289,150.5,297.75
48,110.749,148,294.743
54,110.199,140.1,301.662
60,109.669,132.6,299.473
66,109.149,127.5,295.227
72,108.689,124.8,294.565
78,108.199,122.1,301.486
84,107.729,118.4,305.793
90,107.318,115.4,307.952
96,106.828,114.6,302.169
102,106.318,111.4,304.965
108,105.908,110.1,305.716
114,105.408,109.7,304.736
120,104.928,109,311.407
126,104.438,108.8,310.501
132,104.028,107.6,305.615
138,103.598,105.4,310.515
144,103.168,106.2,308.392
150,102.788,105.3,312.37
156,102.298,106.1,311.651
162,101.887,106.4,312.657
168,101.477,104.6,314.62
174,101.087,104.5,317.183
180,100.687,101.8,311.58
186,100.237,102.4,322.772
192,99.817,99.8,320.325
198,99.397,99.3,313.641
204,99.017,100.8,316.024
210,98.607,99.1,324.086
216,98.207,97.8,328.312
222,97.737,97.5,329.03
228,97.327,95.9,324.836
234,96.946,96.7,322.992
240,96.586,96.9,321.234
246,96.176,97.5,330.775
252,95.786,96.5,328.838
258,95.366,95.9,328.333
264,94.996,96.7,332.103
270,94.506,97.2,334.032
276,94.116,95.4,335.563
282,93.746,96.7,340.282
288,93.336,96.3,332.095
294,92.966,96.4,339.723
300,92.546,96.5,340.319
306,92.146,94.8,344.661
312,91.755,94.8,341.171
318,91.365,94.2,348.396
324,90.935,92.6,344.805
330,90.585,93.3,347.702
336,90.215,92.9,351.437
342,89.835,91.5,347.198
348,89.415,91.9,346.386
354,89.025,92.6,345.184
360,88.625,92.4,351.992
366,88.235,92.4,351.985
372,87.895,93.3,354.44
378,87.515,91.5,355.852
384,87.115,93.6,360.346
390,86.735,92.3,355.762
396,86.354,93.3,355.99
402,85.954,91.2,357.612
408,85.544,93.5,358.701
414,85.204,90.1,364.788
420,84.834,90.5,369.424
426,84.424,91.2,362.767
432,84.104,89.8,366.606
438,83.694,89.5,366.212
444,83.264,88,366.019
450,82.964,88.8,366.088
456,82.564,86.9,370.615
462,82.224,87.3,368.221
468,81.824,87.2,371.949
474,81.484,86.7,375.03
480,81.133,86.3,373.51
486,80.733,88.6,366.003
492,80.363,87.2,371.153
498,79.973,86,376.88
504,79.583,84.6,375.72
510,79.253,85,380.42
516,78.903,84.2,376.51
522,78.563,84.2,373.68
528,78.183,85.3,379.96
534,77.823,87.7,379.24
540,77.443,87.2,379.7
546,77.153,87.1,384.31
552,76.783,85.8,381.54
558,76.463,87.8,382.73
564,76.043,86.3,378.09
570,75.682,85.6,379.71
576,75.342,84,384.73
582,74.982,86.5,384.32
588,74.662,85,388.28
594,74.302,84.8,390.88
600,73.962,83,384.31
606,73.592,82,384.03
612,73.252,83.4,383.82
618,72.922,82.6,380.08
624,72.592,83.8,385.02
630,72.242,83.2,386.34
636,71.882,84.5,387.88
642,71.542,84.3,390.14
648,71.232,82.2,390.6
654,70.882,83.7,389.39
660,70.541,84.4,391
666,70.211,83.7,388.69
672,69.851,84.1,392.25
678,69.531,83.3,392.47
684,69.211,82.9,394.51
690,68.821,82.5,388.42
696,68.511,77.9,389.46
702,68.141,81.5,389.66
708,67.791,78.7,396.21
714,67.491,80.5,394.61
720,67.171,79.1,394.93
726,66.851,81,398.99
732,66.511,80.6,388.28
738,66.151,81.3,403.86
744,65.801,82.5,394.79
750,65.451,81.1,403.01
756,65.15,79.9,396.16
762,64.79,82.5,403.05
768,64.46,81.3,400.1
774,64.18,83.4,395.96
780,63.82,84,405.56
786,63.49,87,400.28
792,63.13,85.6,408.88
798,62.79,85,404.96
804,62.53,84.8,407.49
810,62.11,84.8,404.32
816,61.76,84.8,407.82
822,61.43,85.7,411.81
828,61.09,86.6,411.47
834,60.78,85.7,413.05
840,60.41,87,416.61
846,60.039,88.6,409.02
852,59.709,88.6,409.29
858,59.399,89.6,413.58
864,59.019,90.4,421.04
870,58.689,89.6,421.4
876,58.339,89.3,421.98
882,57.989,91.6,420.05
888,57.579,92.3,431.13
894,57.259,92.3,430.62
900,56.869,92.9,427.59
906,56.579,93.8,434.52
912,56.169,92.8,430.9
918,55.749,94.3,438.77
924,55.419,96.1,437.75
930,55.029,97.8,446.6
936,54.688,98.8,439.41
942,54.388,95.6,445.1
948,53.938,94.9,439.56
954,53.528,95.7,448.23
960,53.168,96.4,451.88
966,52.758,96.8,455.35
972,52.388,98.2,457.47
978,52.018,97.8,459
984,51.598,99.5,459.65
990,51.218,101,457.25
996,50.778,101.7,460.86
1002,50.348,101.8,468.78
1008,49.958,103.2,465.13
1014,49.517,103.1,480.91
1020,49.127,106.7,473.86
1026,48.707,109.7,481.12
1032,48.257,110.5,481.32
1038,47.787,109,495.64
1044,47.337,110.2,491.03
1050,46.887,109.9,490.63
1056,46.407,112.3,492.65
1062,46.017,111.9,501.67
1068,45.587,115.3,500.64
1074,45.077,116.2,502.43
1080,44.587,116.3,508.63
1086,44.146,117.5,505.49
1092,43.636,120.7,511.98
1098,43.206,121.2,517.19
1104,42.696,122.1,521.28
1110,42.166,122.6,521.04
1116,41.706,125.8,526.43
1122,41.186,128.6,529.41
1128,40.746,125.6,531.31
1134,40.196,128,534.32
1140,39.756,127.5,538.69
1146,39.246,127.1,538.64
1152,38.715,126,546.45
1158,38.265,124.7,549.13
1164,37.805,129,555.75
1170,37.265,126.6,552.1
1176,36.755,126.6,564.27
1182,36.285,126.1,567.68
1188,35.785,126.2,563.4
1194,35.275,130.4,571.83
1200,34.775,125.9,576.65
1206,34.315,129.5,584
1212,33.835,127.3,589.24
1218,33.294,127.1,595.72
1224,32.814,127.1,594.46
1230,32.354,124.5,597.39
1236,31.824,123.1,598.4
1242,31.334,125.5,605.65
1248,30.804,122,604.59
1254,30.314,125.8,616.84
1260,29.874,124.2,619.95
1266,29.424,122.3,626.59
1272,29.054,121.1,623.59
1278,28.654,117.5,629.71
1284,28.263,114.3,631.17
1290,27.903,109.6,631.54
1296,27.493,103.5,640.96
1302,27.103,100.4,641.95
1308,26.783,93.3,652.13
1314,26.483,92.9,654.41
1320,26.093,91.5,670.42
1326,25.823,86,671.19
1332,25.563,84.5,673.1
1338,25.343,80.4,682.76
1344,25.033,78.5,684.66
1350,24.923,73.8,685.75
1356,24.683,68.1,692.77
1362,24.543,66,698.9
1368,24.403,62.7,691.37
1374,24.203,58.9,702.8
1380,24.093,57.3,694.96
1386,23.993,58.2,700.04
1392,23.863,55.7,702.12
1398,23.793,54.8,698.15
1404,23.613,53.7,697.56
1410,23.493,52.3,703.33
1416,23.413,51.4,704.65
1422,23.272,49,707.59
1428,23.193,49.5,709.76
1434,23.072,48.7,707.22
1440,22.992,48.9,710.06
1446,22.852,49,712.94
1452,22.772,50.3,710.59
1458,22.622,49,708.32
1464,22.622,49.2,719.32
1470,22.502,49.3,713.59
1476,22.392,49.7,711.49
1482,22.342,47.9,715.75
1488,22.212,47.4,715.83
1494,22.102,47.5,714.71
1500,22.072,46.4,716.86
1506,21.922,45.6,716.83
1512,21.842,45.6,721.82
1518,21.772,43.9,725.68
1521,21.722,44.9,719.77

File: UDRI_MCC_N2_60K_R1.csv
Time (s),Temperature (K),HRR (W/g)
75.8282,416.0,0.0547726
77.4678,418.0,-0.19147
79.4387,420.0,-0.161882
81.4393,422.0,-0.164665
83.5091,424.0,0.205216
85.4733,426.0,0.424352
87.4513,428.0,0.662509
89.3111,430.0,0.776798
91.181,432.0,0.638861
93.1524,434.0,0.918325
95.1214,436.0,1.03058
97.1495,438.0,1.36488
99.112,440.0,1.46756
101.025,442.0,1.52384
102.857,444.0,1.26674
104.835,446.0,1.69868
106.79,448.0,1.95193
108.913,450.0,2.56506
110.914,452.0,2.85831
112.891,454.0,3.24052
114.785,456.0,3.45426
116.738,458.0,3.80741
118.675,460.0,3.59978
120.648,462.0,3.75521
122.64,464.0,4.44824
124.611,466.0,5.19971
126.706,468.0,6.18683
128.693,470.0,6.46946
130.693,472.0,6.92086
132.511,474.0,7.39069
134.512,476.0,8.05818
136.509,478.0,8.44018
138.45,480.0,8.51722
140.425,482.0,9.28355
142.389,484.0,9.92052
144.501,486.0,10.7819
146.527,488.0,11.3017
148.521,490.0,11.7627
150.507,492.0,12.5117
152.438,494.0,12.9347
154.447,496.0,12.9623
156.431,498.0,12.9593
158.374,500.0,12.9432
160.455,502.0,12.905
162.497,504.0,12.6077
164.5,506.0,12.5703
166.533,508.0,12.2218
168.484,510.0,11.8903
170.52,512.0,11.6838
172.469,514.0,11.4035
174.469,516.0,11.4604
176.463,518.0,11.3739
178.498,520.0,11.3683
180.475,522.0,11.714
182.474,524.0,12.2062
184.499,526.0,12.3375
186.544,528.0,12.7452
188.422,530.0,13.2103
190.463,532.0,13.6504
192.482,534.0,14.1476
194.424,536.0,14.8662
196.463,538.0,15.4547
198.453,540.0,16.2675
200.617,542.0,16.9008
202.634,544.0,17.6915
204.677,546.0,18.7128
206.713,548.0,19.8136
208.681,550.0,20.4104
210.683,552.0,21.1309
212.601,554.0,21.9016
214.602,556.0,22.8223
216.609,558.0,23.8892
218.744,560.0,25.1489
220.745,562.0,26.0559
222.763,564.0,27.2912
224.669,566.0,28.5808
226.657,568.0,29.4999
228.667,570.0,30.5428
230.611,572.0,31.6436
232.599,574.0,32.5429
234.649,576.0,33.7234
236.682,578.0,34.9567
238.765,580.0,36.2868
240.769,582.0,37.7086
242.842,584.0,39.2461
244.855,586.0,40.4127
246.83,588.0,41.514
248.702,590.0,42.6179
250.704,592.0,44.1312
252.752,594.0,45.3896
254.803,596.0,46.8381
256.818,598.0,48.4884
258.832,600.0,50.0609
260.833,602.0,51.8637
262.844,604.0,53.728
264.881,606.0,55.6921
266.938,608.0,57.7872
268.91,610.0,59.8164
270.968,612.0,62.0335
272.942,614.0,64.1707
274.932,616.0,66.09
276.92,618.0,68.0951
278.899,620.0,70.0825
280.942,622.0,71.9884
282.949,624.0,73.7607
284.985,626.0,75.6323
287.001,628.0,77.6876
289.067,630.0,79.5301
291.005,632.0,81.2908
293.009,634.0,83.0231
294.998,636.0,84.6469
296.926,638.0,86.3429
298.941,640.0,88.2617
301.022,642.0,90.5558
303.228,644.0,92.9581
305.21,646.0,95.4011
307.204,648.0,98.2581
309.18,650.0,101.223
311.187,652.0,104.454
313.229,654.0,107.838
315.276,656.0,111.503
317.31,658.0,115.078
319.279,660.0,118.291
321.257,662.0,121.1
323.206,664.0,123.483
325.23,666.0,124.997
327.25,668.0,125.365
329.207,670.0,124.437
331.253,672.0,121.908
333.299,674.0,117.224
335.305,676.0,110.758
337.287,678.0,102.604
339.256,680.0,92.8113
341.183,682.0,82.0907
343.124,684.0,70.9557
345.105,686.0,59.8079
347.054,688.0,49.2997
349.075,690.0,39.7468
351.131,692.0,31.6211
353.087,694.0,25.7219
355.129,696.0,21.1531
357.187,698.0,17.9176
359.224,700.0,15.6948
361.221,702.0,14.2276
363.271,704.0,13.0535
365.307,706.0,12.1682
367.312,708.0,11.7064
369.367,710.0,11.439
371.423,712.0,11.0166
373.384,714.0,10.2779
375.386,716.0,10.2397
377.294,718.0,9.58431
379.271,720.0,9.13536
381.268,722.0,8.64269
383.265,724.0,8.46187
385.259,726.0,8.04386
387.316,728.0,7.72489
389.373,730.0,7.39778
391.423,732.0,6.89582
393.424,734.0,6.81849
395.387,736.0,6.67677
397.421,738.0,6.22411
399.407,740.0,5.75766
401.388,742.0,5.47401
403.41,744.0,5.22313
405.386,746.0,4.90481
407.355,748.0,4.21405
409.38,750.0,3.96423
411.378,752.0,3.86244
413.456,754.0,3.5934
415.484,756.0,3.29907
417.444,758.0,2.87512
419.394,760.0,2.67061
421.433,762.0,2.72454
423.48,764.0,2.30902
425.49,766.0,2.00707
427.471,768.0,2.02619
429.459,770.0,1.90208
431.457,772.0,1.66252
433.445,774.0,1.44644
435.463,776.0,1.22881
437.488,778.0,1.31267
439.535,780.0,1.23633
441.608,782.0,0.989548
443.546,784.0,0.946219
445.586,786.0,0.856243
447.572,788.0,0.881156
449.686,790.0,0.859214
451.662,792.0,0.745609
453.664,794.0,0.531043
455.527,796.0,0.637239
457.537,798.0,0.473192
459.604,800.0,0.483869
461.676,802.0,0.390877
463.669,804.0,0.300242
465.653,806.0,0.436934
467.625,808.0,0.46115
469.636,810.0,0.244825
471.653,812.0,0.198914
473.608,814.0,0.129147
475.61,816.0,0.212792
477.669,818.0,0.112472
479.773,820.0,0.0193254
481.765,822.0,0.0234388
483.802,824.0,0.0591406
485.769,826.0,0.0764389
487.729,828.0,0.0561078
489.75,830.0,0.146149
491.758,832.0,-0.16128
493.793,834.0,-0.133038
495.788,836.0,0.0987595
497.823,838.0,-0.0708742
499.814,840.0,-0.0924702
501.848,842.0,-0.210963
503.853,844.0,0.0317042
505.836,846.0,-0.0102945
507.827,848.0,0.14504
509.837,850.0,0.146589
511.817,852.0,0.115205
513.823,854.0,0.0844502
515.835,856.0,0.0713642
517.862,858.0,0.215634
519.838,860.0,0.151924
521.873,862.0,-0.0657954
523.824,864.0,-0.0433544
525.821,866.0,-0.105882
527.873,868.0,0.114459
529.915,870.0,0.173704
531.993,872.0,0.178682
534.029,874.0,-0.0123752
535.903,876.0,0.0578641
537.917,878.0,0.0258184
539.943,880.0,-0.0566024
541.994,882.0,0.00132302
543.967,884.0,-0.0962376
545.986,886.0,0.118814
547.894,888.0,-0.0729976
549.938,890.0,-0.108173
551.945,892.0,-0.164212
554.059,894.0,-0.117169
556.029,896.0,-0.176338
558.009,898.0,-0.0872154
560.005,900.0,0.0755049
561.97,902.0,-0.186636
564.024,904.0,-0.28289
565.893,906.0,-0.193691
567.912,908.0,0.0392116
569.93,910.0,-0.0769288
572.061,912.0,-0.0120475
574.075,914.0,-0.22887
576.067,916.0,-0.201082
577.966,918.0,-0.153775
579.998,920.0,-0.0286119
582.041,922.0,-0.197805
584.033,924.0,-0.117381
586.05,926.0,0.106425
588.053,928.0,0.216332
590.187,930.0,0.259138
592.158,932.0,0.121285
594.145,934.0,0.147798
596.104,936.0,0.161117
598.088,938.0,0.239519
600.066,940.0,0.0833449
602.068,942.0,0.254549
604.065,944.0,0.153459
606.088,946.0,0.0551238
608.033,948.0,0.0461087
610.028,950.0,-0.0211417
611.984,952.0,0.0249061
613.97,954.0,-0.102687
616.013,956.0,-0.11717
618.044,958.0,0.0510071
620.133,960.0,0.128868
622.121,962.0,0.255559
624.134,964.0,0.191238
626.024,966.0,0.0842012
627.98,968.0,-0.0193593
630.022,970.0,-0.138387
632.06,972.0,-0.0690143
634.018,974.0,-0.155179
636.005,976.0,0.047978
637.978,978.0,-0.0506288
639.982,980.0,-0.0552755
642.029,982.0,-0.046624
644.08,984.0,-0.0525472
646.14,986.0,-0.170713
648.07,988.0,-0.110718
649.525,989.5,0.106453