Folder: matl-db/Wood/Calibration_Data/UMD

Note: Wood/Calibration_Data/UMD/README.md
# University of Maryland (UMD)

### Experimental Conditions: TGA/DSC
A NETZSCH STA 449 F3 Jupiter was used to simultaneously conduct Thermogravimetric Analysis (TGA) and Differential Scanning Calorimetry (DSC) experiments.

* Heating Rate: 10 K/min
* Temperature program
  - Initial Temperature: 294 K
  - Initial Isotherm: 1800 s (hold at 294 K for 1800 s)  
  - Maximum Temperature: 1098 K
  - Final Isotherm: 1800 s (hold at 1098 K for 1800 s)  
* Sample mass: 4 mg +/- 0.3 mg
* Sample geometry: Powdered
* Calibration type: Before each experiment, a baseline test was performed using an empty crucible. Temperature/Heat flow calibration were performed every 2 months (or 100 tests, whichever is sooner) using a set of 8 reference materials with transition temperature between 312-1081 K
* Crucible
  - Type: Pt-Rh
  - Volume: 85 uL
  - Diameter: 6.8 mm
  - Mass: 253.480 mg
  - Lid: True
  - Note: Pt-Rh crucibles (outer diameter 6.8mm / volume 85 uL) with a lid ( a small hole in the lid allowed for gaseous decomposition products to escape).
* Carrier Gas
  - Type: Nitrogen
  - Flow rate: 70 ml/min (50 mL/min purge, 20 mL/min protective)
  - Note: Ultra High Purity (UHP) Nitrogen
* Instrument
  - Type: NETZSCH STA 449 F3 Jupiter
  - Furnace Type: Platinum
  - Notes: None

| Test Name | O2 volume % |  Initial External Sample Mass (mg) | Sample Mass Prior to Heating Ramp
| --------- | :---------: | :------------------------: | :------------------------: |
|UMD\_STA\_N2\_10K\_R1 | 0 | 4.301| 4.066
|UMD\_STA\_N2\_10K\_R2 | 0 | 4.062| 3.842
|UMD\_STA\_N2\_10K\_R3 | 0 | 3.942| 3.904

**Notes:** **Initial External Sample Mass** refers to the mass of the sample before being inserted into the instrument. **Sample Mass Prior to Heating Ramp** refers to the mass of the sample at the beginning of the dynamic heating segment of the test. The discrepancy reflects moisture lost before the measurement begins and during the 1800 s isothermal segment prior to the heating ramp.

File: UMD_TGA_N2_10K_R1.csv
Time (s),Temperature (K),Mass (mg)
0.000,297.000,4.066
62.108,300.000,4.062
97.018,303.000,4.063
125.165,306.000,4.062
149.915,309.000,4.063
172.675,312.000,4.058
194.059,315.000,4.056
214.520,318.000,4.054
234.271,321.000,4.051
253.466,324.000,4.050
272.255,327.000,4.048
290.745,330.000,4.042
308.960,333.000,4.041
326.931,336.000,4.034
344.712,339.000,4.031
362.341,342.000,4.028
379.817,345.000,4.024
397.173,348.000,4.020
414.436,351.000,4.013
431.622,354.000,4.008
448.758,357.000,4.006
465.849,360.000,3.999
482.876,363.000,3.999
499.898,366.000,3.997
516.882,369.000,3.995
533.885,372.000,3.991
550.849,375.000,3.990
567.832,378.000,3.989
584.808,381.000,3.988
601.816,384.000,3.987
618.812,387.000,3.985
635.803,390.000,3.987
652.794,393.000,3.985
669.779,396.000,3.985
686.776,399.000,3.985
703.775,402.000,3.985
720.807,405.000,3.985
737.814,408.000,3.985
754.829,411.000,3.983
771.841,414.000,3.984
788.872,417.000,3.985
805.916,420.000,3.984
822.948,423.000,3.984
839.990,426.000,3.984
857.035,429.000,3.984
874.084,432.000,3.983
891.133,435.000,3.983
908.173,438.000,3.981
925.208,441.000,3.981
942.245,444.000,3.980
959.270,447.000,3.980
976.299,450.000,3.978
993.348,453.000,3.978
1010.392,456.000,3.978
1027.430,459.000,3.972
1044.474,462.000,3.969
1061.522,465.000,3.965
1078.545,468.000,3.961
1095.593,471.000,3.956
1112.647,474.000,3.952
1129.716,477.000,3.947
1146.767,480.000,3.941
1163.833,483.000,3.933
1180.877,486.000,3.926
1197.946,489.000,3.919
1214.986,492.000,3.912
1232.026,495.000,3.905
1249.084,498.000,3.896
1266.133,501.000,3.885
1283.216,504.000,3.876
1300.277,507.000,3.867
1317.360,510.000,3.859
1334.445,513.000,3.853
1351.518,516.000,3.842
1368.612,519.000,3.831
1385.702,522.000,3.815
1402.804,525.000,3.802
1419.901,528.000,3.789
1437.032,531.000,3.772
1454.172,534.000,3.756
1471.333,537.000,3.734
1488.485,540.000,3.718
1505.664,543.000,3.699
1522.858,546.000,3.670
1540.045,549.000,3.652
1557.238,552.000,3.625
1574.486,555.000,3.591
1591.700,558.000,3.570
1608.949,561.000,3.536
1626.209,564.000,3.497
1643.464,567.000,3.464
1660.751,570.000,3.428
1678.022,573.000,3.389
1695.317,576.000,3.346
1712.614,579.000,3.299
1729.933,582.000,3.252
1747.269,585.000,3.202
1764.606,588.000,3.153
1781.977,591.000,3.101
1799.345,594.000,3.048
1816.737,597.000,2.991
1834.153,600.000,2.928
1851.582,603.000,2.867
1869.017,606.000,2.804
1886.463,609.000,2.735
1903.927,612.000,2.664
1921.410,615.000,2.591
1938.917,618.000,2.517
1956.436,621.000,2.428
1973.986,624.000,2.354
1991.591,627.000,2.258
2009.184,630.000,2.166
2026.839,633.000,2.074
2044.498,636.000,1.974
2062.164,639.000,1.860
2079.823,642.000,1.746
2097.442,645.000,1.628
2114.995,648.000,1.511
2132.429,651.000,1.395
2149.739,654.000,1.296
2166.924,657.000,1.212
2184.071,660.000,1.155
2201.271,663.000,1.113
2218.616,666.000,1.089
2236.137,669.000,1.072
2253.715,672.000,1.058
2271.341,675.000,1.046
2288.991,678.000,1.038
2306.650,681.000,1.028
2324.324,684.000,1.017
2342.017,687.000,1.008
2359.727,690.000,0.998
2377.445,693.000,0.989
2395.186,696.000,0.981
2412.939,699.000,0.968
2430.722,702.000,0.960
2448.531,705.000,0.951
2466.353,708.000,0.943
2484.176,711.000,0.935
2502.034,714.000,0.926
2519.900,717.000,0.919
2537.788,720.000,0.913
2555.667,723.000,0.906
2573.575,726.000,0.898
2591.497,729.000,0.890
2609.405,732.000,0.885
2627.329,735.000,0.878
2645.269,738.000,0.874
2663.218,741.000,0.867
2681.153,744.000,0.862
2699.100,747.000,0.856
2717.041,750.000,0.854
2735.005,753.000,0.850
2752.939,756.000,0.841
2770.903,759.000,0.839
2788.855,762.000,0.835
2806.821,765.000,0.830
2824.800,768.000,0.827
2842.786,771.000,0.824
2860.763,774.000,0.821
2878.762,777.000,0.819
2896.767,780.000,0.815
2914.789,783.000,0.812
2932.819,786.000,0.808
2950.861,789.000,0.804
2968.915,792.000,0.800
2986.974,795.000,0.798
3005.030,798.000,0.794
3023.104,801.000,0.790
3041.173,804.000,0.789
3059.255,807.000,0.787
3077.327,810.000,0.783
3095.419,813.000,0.782
3113.503,816.000,0.781
3131.594,819.000,0.777
3149.683,822.000,0.774
3167.772,825.000,0.772
3185.852,828.000,0.771
3203.925,831.000,0.767
3222.017,834.000,0.764
3240.103,837.000,0.764
3258.193,840.000,0.762
3276.261,843.000,0.764
3294.342,846.000,0.757
3312.451,849.000,0.753
3330.546,852.000,0.753
3348.667,855.000,0.750
3366.793,858.000,0.747
3384.915,861.000,0.746
3403.039,864.000,0.744
3421.156,867.000,0.743
3439.280,870.000,0.741
3457.418,873.000,0.739
3475.545,876.000,0.735
3493.679,879.000,0.731
3511.817,882.000,0.730
3529.933,885.000,0.733
3548.044,888.000,0.730
3566.167,891.000,0.728
3584.281,894.000,0.726
3602.391,897.000,0.724
3620.515,900.000,0.720
3638.593,903.000,0.722
3656.694,906.000,0.723
3674.779,909.000,0.719
3692.866,912.000,0.716
3710.946,915.000,0.717
3729.023,918.000,0.716
3747.091,921.000,0.712
3765.146,924.000,0.714
3783.221,927.000,0.710
3801.276,930.000,0.710
3819.301,933.000,0.710
3837.341,936.000,0.707
3855.394,939.000,0.706
3873.418,942.000,0.705
3891.455,945.000,0.702
3909.496,948.000,0.702
3927.541,951.000,0.700
3945.582,954.000,0.699
3963.648,957.000,0.697
3981.715,960.000,0.696
3999.783,963.000,0.694
4017.877,966.000,0.693
4035.948,969.000,0.693
4054.057,972.000,0.692
4072.157,975.000,0.691
4090.256,978.000,0.690
4108.381,981.000,0.691
4126.502,984.000,0.687
4144.654,987.000,0.684
4162.817,990.000,0.687
4180.970,993.000,0.684
4199.133,996.000,0.681
4217.323,999.000,0.680
4235.533,1002.000,0.680
4253.740,1005.000,0.679
4271.964,1008.000,0.677
4290.201,1011.000,0.675
4308.439,1014.000,0.676
4326.691,1017.000,0.675
4344.967,1020.000,0.676
4363.213,1023.000,0.675
4381.495,1026.000,0.673
4399.770,1029.000,0.673
4418.067,1032.000,0.673
4436.361,1035.000,0.673
4454.691,1038.000,0.672
4472.989,1041.000,0.672
4491.317,1044.000,0.669
4509.619,1047.000,0.667
4527.945,1050.000,0.667
4546.273,1053.000,0.667
4564.597,1056.000,0.666
4582.921,1059.000,0.666
4601.270,1062.000,0.664
4619.636,1065.000,0.664
4638.010,1068.000,0.665
4656.394,1071.000,0.663
4674.794,1074.000,0.665
4693.218,1077.000,0.665
4711.646,1080.000,0.663
4730.086,1083.000,0.661
4748.533,1086.000,0.662
4751.618,1086.500,0.662

File: UMD_TGA_N2_10K_R3.csv
Time (s),Temperature (K),Mass (mg)
0.000,297.000,3.904
69.692,300.000,3.903
105.429,303.000,3.902
133.871,306.000,3.903
158.794,309.000,3.905
181.656,312.000,3.902
203.116,315.000,3.900
223.577,318.000,3.899
243.321,321.000,3.900
262.520,324.000,3.900
281.319,327.000,3.898
299.784,330.000,3.897
317.969,333.000,3.891
335.940,336.000,3.889
353.721,339.000,3.888
371.348,342.000,3.885
388.855,345.000,3.887
406.271,348.000,3.885
423.589,351.000,3.883
440.864,354.000,3.880
458.065,357.000,3.876
475.233,360.000,3.874
492.344,363.000,3.872
509.444,366.000,3.872
526.496,369.000,3.866
543.579,372.000,3.867
560.619,375.000,3.867
577.656,378.000,3.863
594.694,381.000,3.865
611.711,384.000,3.866
628.731,387.000,3.865
645.751,390.000,3.868
662.763,393.000,3.867
679.783,396.000,3.868
696.791,399.000,3.866
713.829,402.000,3.865
730.842,405.000,3.864
747.875,408.000,3.863
764.897,411.000,3.863
781.907,414.000,3.864
798.945,417.000,3.864
815.984,420.000,3.862
833.008,423.000,3.864
850.049,426.000,3.862
867.088,429.000,3.863
884.125,432.000,3.861
901.158,435.000,3.861
918.191,438.000,3.862
935.208,441.000,3.862
952.250,444.000,3.859
969.288,447.000,3.858
986.319,450.000,3.856
1003.363,453.000,3.856
1020.414,456.000,3.856
1037.461,459.000,3.853
1054.512,462.000,3.849
1071.565,465.000,3.846
1088.631,468.000,3.844
1105.663,471.000,3.838
1122.723,474.000,3.833
1139.791,477.000,3.827
1156.853,480.000,3.822
1173.937,483.000,3.811
1190.978,486.000,3.807
1208.054,489.000,3.797
1225.113,492.000,3.790
1242.156,495.000,3.781
1259.219,498.000,3.772
1276.284,501.000,3.765
1293.355,504.000,3.760
1310.429,507.000,3.751
1327.525,510.000,3.741
1344.599,513.000,3.733
1361.694,516.000,3.720
1378.775,519.000,3.710
1395.883,522.000,3.699
1412.993,525.000,3.685
1430.133,528.000,3.670
1447.275,531.000,3.654
1464.425,534.000,3.642
1481.602,537.000,3.623
1498.774,540.000,3.603
1515.960,543.000,3.585
1533.151,546.000,3.564
1550.339,549.000,3.541
1567.542,552.000,3.516
1584.763,555.000,3.486
1601.994,558.000,3.456
1619.231,561.000,3.430
1636.477,564.000,3.396
1653.710,567.000,3.360
1670.971,570.000,3.325
1688.246,573.000,3.286
1705.517,576.000,3.245
1722.785,579.000,3.202
1740.087,582.000,3.159
1757.393,585.000,3.110
1774.728,588.000,3.059
1792.069,591.000,3.007
1809.436,594.000,2.953
1826.835,597.000,2.897
1844.231,600.000,2.840
1861.644,603.000,2.778
1879.084,606.000,2.717
1896.531,609.000,2.648
1913.978,612.000,2.581
1931.481,615.000,2.510
1948.996,618.000,2.435
1966.531,621.000,2.357
1984.105,624.000,2.273
2001.698,627.000,2.185
2019.324,630.000,2.095
2036.983,633.000,1.998
2054.660,636.000,1.897
2072.334,639.000,1.788
2090.008,642.000,1.676
2107.644,645.000,1.561
2125.192,648.000,1.448
2142.637,651.000,1.333
2159.937,654.000,1.231
2177.129,657.000,1.160
2194.283,660.000,1.096
2211.511,663.000,1.061
2228.872,666.000,1.033
2246.378,669.000,1.017
2263.977,672.000,1.006
2281.601,675.000,0.991
2299.256,678.000,0.981
2316.903,681.000,0.971
2334.590,684.000,0.962
2352.289,687.000,0.953
2369.996,690.000,0.944
2387.716,693.000,0.939
2405.481,696.000,0.932
2423.233,699.000,0.923
2441.031,702.000,0.910
2458.829,705.000,0.902
2476.653,708.000,0.895
2494.491,711.000,0.886
2512.346,714.000,0.880
2530.209,717.000,0.871
2548.101,720.000,0.863
2565.993,723.000,0.862
2583.915,726.000,0.852
2601.849,729.000,0.843
2619.783,732.000,0.836
2637.728,735.000,0.831
2655.682,738.000,0.822
2673.643,741.000,0.818
2691.633,744.000,0.816
2709.604,747.000,0.812
2727.583,750.000,0.807
2745.564,753.000,0.802
2763.549,756.000,0.797
2781.522,759.000,0.793
2799.516,762.000,0.790
2817.501,765.000,0.783
2835.498,768.000,0.776
2853.494,771.000,0.773
2871.516,774.000,0.771
2889.525,777.000,0.766
2907.534,780.000,0.764
2925.567,783.000,0.762
2943.589,786.000,0.762
2961.623,789.000,0.758
2979.671,792.000,0.754
2997.710,795.000,0.750
3015.758,798.000,0.749
3033.813,801.000,0.745
3051.867,804.000,0.741
3069.929,807.000,0.738
3087.996,810.000,0.735
3106.059,813.000,0.734
3124.128,816.000,0.732
3142.207,819.000,0.730
3160.289,822.000,0.728
3178.370,825.000,0.724
3196.455,828.000,0.721
3214.554,831.000,0.717
3232.657,834.000,0.717
3250.767,837.000,0.714
3268.877,840.000,0.712
3286.990,843.000,0.708
3305.115,846.000,0.706
3323.245,849.000,0.704
3341.385,852.000,0.702
3359.513,855.000,0.699
3377.655,858.000,0.695
3395.789,861.000,0.693
3413.907,864.000,0.690
3432.041,867.000,0.689
3450.181,870.000,0.688
3468.286,873.000,0.687
3486.403,876.000,0.686
3504.507,879.000,0.686
3522.613,882.000,0.684
3540.713,885.000,0.682
3558.831,888.000,0.683
3576.923,891.000,0.678
3595.043,894.000,0.674
3613.146,897.000,0.672
3631.231,900.000,0.670
3649.336,903.000,0.670
3667.425,906.000,0.670
3685.514,909.000,0.664
3703.601,912.000,0.665
3721.682,915.000,0.665
3739.752,918.000,0.663
3757.849,921.000,0.662
3775.940,924.000,0.660
3794.037,927.000,0.659
3812.140,930.000,0.659
3830.243,933.000,0.657
3848.368,936.000,0.654
3866.489,939.000,0.651
3884.607,942.000,0.650
3902.741,945.000,0.650
3920.879,948.000,0.649
3939.023,951.000,0.649
3957.147,954.000,0.650
3975.298,957.000,0.645
3993.453,960.000,0.645
4011.631,963.000,0.645
4029.789,966.000,0.645
4047.983,969.000,0.643
4066.170,972.000,0.641
4084.382,975.000,0.640
4102.593,978.000,0.636
4120.811,981.000,0.635
4139.037,984.000,0.635
4157.262,987.000,0.635
4175.505,990.000,0.637
4193.771,993.000,0.635
4212.055,996.000,0.634
4230.334,999.000,0.628
4248.633,1002.000,0.630
4266.925,1005.000,0.629
4285.237,1008.000,0.626
4303.543,1011.000,0.628
4321.868,1014.000,0.631
4340.201,1017.000,0.628
4358.533,1020.000,0.629
4376.891,1023.000,0.627
4395.225,1026.000,0.626
4413.581,1029.000,0.623
4431.946,1032.000,0.623
4450.313,1035.000,0.624
4468.692,1038.000,0.622
4487.074,1041.000,0.620
4505.449,1044.000,0.622
4523.831,1047.000,0.620
4542.231,1050.000,0.618
4560.606,1053.000,0.618
4579.006,1056.000,0.618
4597.394,1059.000,0.617
4615.800,1062.000,0.617
4634.180,1065.000,0.616
4652.587,1068.000,0.614
4670.965,1071.000,0.614
4689.357,1074.000,0.612
4707.738,1077.000,0.612
4726.131,1080.000,0.614
4744.518,1083.000,0.610
4762.913,1086.000,0.609

File: UMD_Wood_TGA_N2_10K_R2.csv
Time (s),Temperature (K),Mass (mg)
0.000,296.000,3.842
67.950,299.000,3.838
103.526,302.000,3.835
131.935,305.000,3.831
156.862,308.000,3.829
179.717,311.000,3.832
201.216,314.000,3.827
221.726,317.000,3.826
241.537,320.000,3.821
260.782,323.000,3.818
279.625,326.000,3.814
298.154,329.000,3.810
316.405,332.000,3.804
334.409,335.000,3.801
352.210,338.000,3.795
369.848,341.000,3.791
387.332,344.000,3.786
404.720,347.000,3.779
422.008,350.000,3.774
439.221,353.000,3.771
456.363,356.000,3.768
473.463,359.000,3.764
490.539,362.000,3.758
507.569,365.000,3.755
524.606,368.000,3.753
541.608,371.000,3.755
558.619,374.000,3.753
575.644,377.000,3.752
592.653,380.000,3.751
609.655,383.000,3.750
626.692,386.000,3.750
643.739,389.000,3.747
660.829,392.000,3.747
677.817,395.000,3.746
694.819,398.000,3.746
711.829,401.000,3.745
728.838,404.000,3.748
745.856,407.000,3.748
762.871,410.000,3.747
779.905,413.000,3.748
796.944,416.000,3.748
814.075,419.000,3.747
831.032,422.000,3.747
848.093,425.000,3.743
865.122,428.000,3.745
882.179,431.000,3.743
899.216,434.000,3.745
916.253,437.000,3.745
933.280,440.000,3.747
950.310,443.000,3.747
967.356,446.000,3.744
984.390,449.000,3.740
1001.430,452.000,3.740
1018.464,455.000,3.742
1035.508,458.000,3.739
1052.533,461.000,3.739
1069.569,464.000,3.735
1086.607,467.000,3.731
1103.654,470.000,3.729
1120.683,473.000,3.727
1137.761,476.000,3.723
1154.800,479.000,3.719
1171.842,482.000,3.712
1188.896,485.000,3.704
1205.931,488.000,3.697
1222.962,491.000,3.688
1240.001,494.000,3.682
1257.021,497.000,3.675
1274.057,500.000,3.667
1291.108,503.000,3.659
1308.156,506.000,3.652
1325.200,509.000,3.643
1342.247,512.000,3.636
1359.314,515.000,3.626
1376.387,518.000,3.611
1393.467,521.000,3.600
1410.565,524.000,3.588
1427.660,527.000,3.576
1444.780,530.000,3.559
1461.925,533.000,3.543
1479.065,536.000,3.525
1496.220,539.000,3.507
1513.400,542.000,3.491
1530.546,545.000,3.472
1547.739,548.000,3.454
1564.933,551.000,3.426
1582.146,554.000,3.401
1599.362,557.000,3.373
1616.613,560.000,3.346
1633.843,563.000,3.313
1651.087,566.000,3.281
1668.352,569.000,3.244
1685.624,572.000,3.210
1702.899,575.000,3.173
1720.191,578.000,3.130
1737.493,581.000,3.089
1754.827,584.000,3.040
1772.185,587.000,2.996
1789.535,590.000,2.943
1806.921,593.000,2.893
1824.304,596.000,2.841
1841.729,599.000,2.785
1859.164,602.000,2.726
1876.595,605.000,2.665
1894.056,608.000,2.602
1911.540,611.000,2.535
1929.034,614.000,2.466
1946.544,617.000,2.398
1964.067,620.000,2.327
1981.635,623.000,2.251
1999.221,626.000,2.161
2016.833,629.000,2.077
2034.483,632.000,1.992
2052.168,635.000,1.892
2069.859,638.000,1.791
2087.573,641.000,1.682
2105.233,644.000,1.570
2122.832,647.000,1.459
2140.332,650.000,1.352
2157.705,653.000,1.250
2174.973,656.000,1.164
2192.175,659.000,1.102
2209.390,662.000,1.057
2226.721,665.000,1.027
2244.201,668.000,1.010
2261.776,671.000,0.995
2279.397,674.000,0.982
2297.052,677.000,0.972
2314.715,680.000,0.963
2332.397,683.000,0.954
2350.077,686.000,0.946
2367.779,689.000,0.935
2385.501,692.000,0.927
2403.240,695.000,0.920
2420.994,698.000,0.911
2438.770,701.000,0.902
2456.556,704.000,0.895
2474.348,707.000,0.887
2492.162,710.000,0.879
2509.963,713.000,0.872
2527.825,716.000,0.865
2545.668,719.000,0.856
2563.544,722.000,0.848
2581.427,725.000,0.839
2599.326,728.000,0.831
2617.213,731.000,0.827
2635.136,734.000,0.824
2653.075,737.000,0.815
2671.008,740.000,0.806
2688.960,743.000,0.803
2706.897,746.000,0.801
2724.842,749.000,0.797
2742.814,752.000,0.791
2760.774,755.000,0.789
2778.732,758.000,0.785
2796.708,761.000,0.781
2814.702,764.000,0.775
2832.673,767.000,0.773
2850.672,770.000,0.769
2868.682,773.000,0.763
2886.679,776.000,0.756
2904.691,779.000,0.752
2922.697,782.000,0.750
2940.738,785.000,0.749
2958.762,788.000,0.749
2976.816,791.000,0.745
2994.868,794.000,0.738
3012.905,797.000,0.734
3030.960,800.000,0.736
3048.996,803.000,0.733
3067.056,806.000,0.731
3085.093,809.000,0.726
3103.154,812.000,0.722
3121.213,815.000,0.720
3139.284,818.000,0.713
3157.362,821.000,0.711
3175.429,824.000,0.712
3193.510,827.000,0.709
3211.611,830.000,0.707
3229.711,833.000,0.707
3247.829,836.000,0.701
3265.950,839.000,0.695
3284.059,842.000,0.695
3302.194,845.000,0.691
3320.314,848.000,0.690
3338.454,851.000,0.689
3356.592,854.000,0.686
3374.738,857.000,0.682
3392.883,860.000,0.681
3411.044,863.000,0.679
3429.162,866.000,0.677
3447.312,869.000,0.672
3465.434,872.000,0.672
3483.570,875.000,0.670
3501.731,878.000,0.666
3519.852,881.000,0.663
3537.966,884.000,0.666
3556.098,887.000,0.663
3574.223,890.000,0.661
3592.332,893.000,0.655
3610.460,896.000,0.650
3628.574,899.000,0.649
3646.677,902.000,0.646
3664.758,905.000,0.647
3682.845,908.000,0.648
3700.920,911.000,0.647
3718.999,914.000,0.645
3737.096,917.000,0.643
3755.182,920.000,0.639
3773.235,923.000,0.637
3791.320,926.000,0.637
3809.402,929.000,0.634
3827.474,932.000,0.633
3845.544,935.000,0.631
3863.599,938.000,0.630
3881.660,941.000,0.630
3899.726,944.000,0.630
3917.784,947.000,0.630
3935.859,950.000,0.626
3953.932,953.000,0.622
3972.004,956.000,0.623
3990.095,959.000,0.621
4008.187,962.000,0.620
4026.285,965.000,0.619
4044.374,968.000,0.615
4062.489,971.000,0.615
4080.601,974.000,0.613
4098.714,977.000,0.615
4116.841,980.000,0.613
4134.983,983.000,0.608
4153.111,986.000,0.609
4171.265,989.000,0.610
4189.417,992.000,0.607
4207.572,995.000,0.605
4225.742,998.000,0.604
4243.938,1001.000,0.601
4262.128,1004.000,0.600
4280.332,1007.000,0.604
4298.544,1010.000,0.603
4316.770,1013.000,0.604
4334.999,1016.000,0.601
4353.255,1019.000,0.599
4371.510,1022.000,0.598
4389.768,1025.000,0.601
4408.056,1028.000,0.601
4426.344,1031.000,0.598
4444.650,1034.000,0.596
4462.926,1037.000,0.594
4481.225,1040.000,0.593
4499.526,1043.000,0.594
4517.822,1046.000,0.596
4536.126,1049.000,0.596
4554.438,1052.000,0.592
4572.762,1055.000,0.591
4591.110,1058.000,0.592
4609.468,1061.000,0.592
4627.832,1064.000,0.588
4646.179,1067.000,0.588
4664.544,1070.000,0.589
4682.899,1073.000,0.591
4701.294,1076.000,0.588
4719.701,1079.000,0.585
4738.113,1082.000,0.586
4756.540,1085.000,0.582
4765.764,1086.500,0.582