Folder: matl-db/Wood/Calibration_Data/UMET

Note: Wood/Calibration_Data/UMET/README.md
Experimental Conditions: TGA



UMET\_TGA\_N2\_10K

Instrument and furnace

type: Netzsch TG 209F1 Libra

Furnace : Ceramic
IDENTITY:  WOOD
PROJECT:   MaCFP-4 pyrolysis model calibration exercise  
Temperature Program

1 : 313K (with 3 vacuum purging)

2 : 313K isothermal (5min)

3 : 313K to 1073K 10K/min

4 : 1073K isothermal (5min)"
Initial sample moisture content (%)	NA
Sample geometry	: powdered  
Calibration type :

Temperature calibration were performed every 6 months using a set of 6 references materials : Melting Point Calibration :Metals: Pb, Sn, Bi, Zn, Al, Au

Before each experiment, a baseline test was performed using an empty crucible.
Crucible :

Type: Al2O3

Volume: 85 µl

No Lid  
Carrier gas and associated flow rate(s)

Type: Nitrogen

Flow rate: 40ml/min



Test Name	O2 volume %	Initial Sample Mass (mg)
UMET\_TGA\_N2\_10K\_R1	0	4.0488
UMET\_TGA\_N2\_10K\_R2	0	3.4049
UMET\_TGA\_N2\_10K\_R3	0	4.2213



Experimental Conditions: TGA



UMET\_TGA\_21%O2\_10K

Instrument and furnace

type: Netzsch TG 209F1 Libra

Furnace : Ceramic
IDENTITY:  WOOD
PROJECT:   MaCFP-4 pyrolysis model calibration exercise  
Temperature Program

1 : 313K (with 3 vacuum purging)

2 : 313K isothermal (5min)

3 : 313K to 1073K 10K/min

4 : 1073K isothermal (5min)"

Initial sample moisture content (%)	NA
Sample geometry	: powdered  
Calibration type :

Temperature calibration were performed every 6 months using a set of 6 references materials : Melting Point Calibration :Metals: Pb, Sn, Bi, Zn, Al, Au

Before each experiment, a baseline test was performed using an empty crucible.
Crucible :

Type: Al2O3

Volume: 85 µl

No Lid  
Carrier gas and associated flow rate(s)

Type: Nitrogen + Oxygen

Flow rate: 100ml/min

Test Name	O2 volume %	Initial Sample Mass (mg)
UMET\_TGA\_21%O2\_10K\_R1	0	2.3484
UMET\_TGA\_21%O2\_10K\_R2	0	4.0253
UMET\_TGA\_21%O2\_10K\_R3	0	4.7632



Experimental Conditions: TGA/DSC



UMET\_TGASTA\_N2\_3K / UMET\_DCSTA\_N2\_3K

Instrument and furnace

type: Netzsch STA 449 F1 Jupiter

Furnace : Pt
IDENTITY:  WOOD
PROJECT:   MaCFP-4 pyrolysis model calibration exercise  
Temperature Program

1 : 303K (with 3 vacuum purging)

2 : 303K isothermal (5min)

3 : 303K to 1173K 3K/min, Period 60s, amplitude 0,5K

4 : 1173K isothermal (5min)"

Initial sample moisture content (%)	NA
Sample geometry	: powdered  
Calibration type :

Temperature calibration were performed every 6 months using a set of 4 references materials : Biphenyl, Benzoic Acid, Cesium Chlorure, Baryum Carbonate

Before each experiment, a baseline test was performed using an empty crucible.
Crucible :

Type: Pt

Volume: 85 µl

with Lid  
Carrier gas and associated flow rate(s)

Type: Nitrogen

Flow rate: 60ml/min



Test Name		O2 volume %	Initial Sample Mass (mg)
UMET\_TGASTA\_N2\_3K\_R1		0	3.0439
UMET\_TGASTA\_N2\_3K\_R2		0	4.1092
UMET\_TGASTA\_N2\_3K\_R3		0	2.8869



conventional system endo up


Test Name		O2 volume %	Initial Sample Mass (mg)
UMET\_DSCSTA\_N2\_3K\_R1		0	3.0439
UMET\_

File: UMET_Cone_30KW_hor_R1.csv
Time (s),Mass (g),HRR (kW/m2)
0,101.3,0
8,101.3,0
16,101.3,0
24,101.3,0
32,100.648,25.49
40,100.089,67.01
48,98.970,103.79
56,97.666,116.83
64,97.666,119.00
72,97.107,116.87
80,95.709,113.01
88,94.870,108.97
96,95.150,105.49
104,94.497,102.20
112,93.286,98.72
120,93.752,95.75
128,91.888,93.38
136,91.981,91.69
144,90.863,90.89
152,89.279,90.71
160,90.118,90.56
168,90.211,90.20
176,88.813,90.13
184,87.602,89.95
192,86.670,89.70
200,84.620,89.09
208,86.111,88.23
216,84.713,87.19
224,84.620,86.28
232,83.967,85.45
240,84.992,84.49
248,83.222,83.98
256,81.917,83.54
264,82.383,83.51
272,81.172,83.28
280,81.358,82.22
288,81.172,80.67
296,80.147,79.89
304,79.494,80.28
312,78.190,80.65
320,78.097,80.43
328,79.122,80.06
336,78.190,79.92
344,77.072,80.19
352,76.326,80.05
360,75.581,79.52
368,74.835,78.29
376,75.487,77.66
384,74.649,78.22
392,75.022,79.69
400,73.810,80.56
408,73.437,80.90
416,73.065,80.68
424,72.971,80.30
432,71.667,79.71
440,70.176,79.48
448,70.176,79.39
456,70.176,78.98
464,69.337,78.10
472,69.337,77.86
480,68.778,77.71
488,68.499,77.11
496,68.126,76.10
504,67.008,75.27
512,66.355,74.56
520,65.610,73.23
528,65.796,72.35
536,64.957,72.30
544,64.492,73.07
552,64.398,74.43
560,63.653,76.81
568,63.094,79.51
576,63.094,81.08
584,62.535,80.92
592,61.323,80.84
600,60.764,81.13
608,59.925,81.46
616,60.391,80.47
624,60.019,79.78
632,59.180,79.95
640,58.528,81.64
648,58.528,83.47
656,57.875,84.34
664,57.130,83.46
672,56.850,81.68
680,56.943,79.90
688,55.359,78.25
696,55.359,75.84
704,54.427,73.56
712,54.241,72.03
720,53.868,69.95
728,53.775,67.90
736,53.216,67.05
744,53.216,67.28
752,52.377,67.14
760,52.005,66.08
768,51.725,65.46
776,51.539,66.27
784,50.607,67.12
792,50.700,66.78
800,50.141,66.08
808,49.582,65.32
816,49.302,64.85
824,48.929,63.92
832,48.836,63.29
840,48.184,62.66
848,48.184,62.12
856,47.066,61.88
864,48.184,62.05
872,46.320,62.49
880,46.413,63.01
888,45.948,63.54
896,45.295,64.17
904,44.643,63.99
912,44.736,62.59
920,44.270,61.12
928,42.872,60.57
936,43.152,60.15
944,43.525,59.24
952,43.152,57.95
960,43.152,56.84
968,41.009,55.97
976,40.915,55.10
984,40.636,53.93
992,41.288,53.38
1000,41.102,54.16
1008,39.890,55.26
1016,39.704,55.45
1024,39.797,55.40
1032,39.611,55.43
1040,38.772,55.61
1048,37.840,55.62
1056,37.840,55.22
1064,38.120,54.38
1072,37.840,53.26
1080,36.070,53.05
1088,37.281,53.62
1096,35.790,54.24
1104,35.977,54.28
1112,35.883,53.89
1120,37.281,53.98
1128,35.697,53.51
1136,35.045,52.98
1144,36.163,53.26
1152,35.697,54.41
1160,35.417,55.14
1168,34.858,55.50
1176,34.765,54.96
1184,35.045,54.31
1192,34.486,53.38
1200,34.206,53.67
1208,33.274,53.91
1216,33.554,54.30
1224,32.808,53.93
1232,33.181,53.41
1240,32.342,52.27
1248,32.156,51.60
1256,31.690,51.36
1264,31.597,51.88
1272,32.156,52.78
1280,30.851,53.56
1288,30.851,53.16
1296,30.665,52.66
1304,30.013,52.56
1312,30.013,52.53
1320,29.826,52.03
1328,29.547,51.57
1336,29.547,51.49
1344,29.454,51.44
1352,28.801,50.82
1360,28.708,50.03
1368,28.615,49.88
1376,28.056,49.71
1384,27.403,49.94
1392,27.869,49.58
1400,27.776,48.67
1408,27.590,47.91
1416,27.031,48.18
1424,26.938,48.28
1432,26.751,47.81
1440,26.565,46.77
1448,26.378,45.84
1456,25.353,45.00
1464,25.633,45.04
1472,25.260,45.34
1480,25.260,45.08
1488,24.981,44.64
1496,25.819,44.37
1504,24.701,44.52
1512,23.862,44.01
1520,23.583,43.54
1528,23.583,43.26
1536,23.117,43.27
1544,23.490,43.17
1552,22.651,42.44
1560,22.744,41.12
1568,22.651,40.18
1576,21.812,39.97
1584,22.371,40.19
1592,21.533,40.02
1600,21.440,39.37
1608,21.999,39.31
1616,21.160,39.44
1624,20.880,39.01
1632,20.508,38.56
1640,20.321,38.43
1648,20.880,38.30
1656,20.508,37.19
1664,20.135,35.91
1672,20.508,34.33
1680,19.762,33.27
1688,19.483,33.00
1696,19.296,33.72
1704,19.576,33.55
1712,18.644,32.84
1720,18.551,32.62
1728,18.551,32.54
1736,18.737,32.45
1744,18.551,31.51
1752,18.178,29.54
1760,18.085,27.53
1768,17.992,26.18
1776,18.271,25.78
1784,17.433,25.47
1792,17.526,25.19
1800,17.339,24.69
1808,17.060,24.32
1816,16.687,24.21
1824,16.873,23.76
1832,16.687,22.82
1840,16.594,21.97
1848,16.221,20.87
1856,15.848,20.58
1864,15.755,20.39
1872,16.128,19.85
1880,15.942,19.50
1888,15.755,19.69
1896,15.755,19.63
1904,15.010,19.61
1912,14.357,18.39
1920,15.755,16.44
1928,15.196,14.11
1936,13.798,13.23
1944,14.730,12.91
1952,14.544,12.48
1960,14.451,11.60
1968,14.730,10.96
1976,14.544,10.53
1984,14.451,10.12
1992,14.171,10.38
2000,13.985,10.30
2008,13.705,9.60
2016,13.892,9.05
2024,13.519,8.67
2032,13.892,7.97
2040,13.426,7.61
2048,13.612,7.28
2056,13.053,7.08
2064,13.239,6.34
2072,12.680,5.88
2080,13.146,5.51
2088,12.680,5.22
2096,12.773,4.56
2104,12.587,3.91
2112,12.587,3.51
2120,12.494,3.67
2128,12.307,4.26
2136,12.028,3.92
2144,12.028,2.40
2152,12.587,1.33
2160,11.189,1.49
2168,10.630,2.19
2176,11.485,2.83
2184,11.255,3.64
2192,11.024,3.94
2200,10.793,3.90
2206,10.620,3.83

File: UMET_Cone_30KW_hor_R2.csv
Time (s),Mass (g),HRR (kW/m2)
0,83.61,0
8,83.61,0
16,83.55,0
24,83.50,11.667
32,83.43,54.561
40,83.25,98.712
48,83.01,113.311
56,82.63,106.477
64,82.20,97.380
72,81.76,89.895
80,81.32,84.952
88,80.89,82.926
96,80.45,81.601
104,80.02,80.705
112,79.58,79.303
120,79.14,78.818
128,78.71,78.212
136,78.27,77.305
144,77.83,74.676
152,77.40,72.246
160,76.96,70.726
168,76.52,69.761
176,76.09,69.107
184,75.65,68.503
192,75.21,68.624
200,74.78,68.750
208,74.34,68.124
216,73.90,67.049
224,73.47,66.007
232,73.03,65.218
240,72.59,64.573
248,72.16,64.279
256,71.72,64.374
264,71.28,64.394
272,70.85,64.890
280,70.41,66.364
288,69.97,69.060
296,69.54,71.408
304,69.10,72.265
312,68.66,70.854
320,68.23,68.456
328,67.79,66.359
336,67.35,65.762
344,66.92,65.995
352,66.48,66.527
360,66.04,67.029
368,65.61,68.714
376,65.16,70.782
384,64.75,72.882
392,64.26,73.248
400,63.89,72.607
408,63.42,70.958
416,62.60,69.184
424,61.82,67.918
432,61.01,67.066
440,60.36,66.106
448,60.07,64.886
456,59.77,64.044
464,59.48,63.210
472,59.18,62.268
480,58.89,61.798
488,58.60,61.953
496,58.30,61.807
504,58.01,61.094
512,57.71,59.944
520,57.42,59.277
528,57.13,59.470
536,56.83,59.898
544,56.54,60.170
552,56.24,60.330
560,55.95,60.619
568,55.66,60.284
576,55.36,59.198
584,55.07,57.897
592,54.77,57.183
600,54.48,57.692
608,54.19,57.992
616,53.89,57.605
624,53.65,56.803
632,53.42,56.587
640,52.93,56.312
648,52.62,55.744
656,52.30,54.956
664,51.95,54.350
672,51.89,53.615
680,51.63,52.692
688,51.28,51.766
696,51.02,51.231
704,50.70,50.904
712,50.38,50.651
720,50.10,50.174
728,49.78,49.514
736,49.51,48.863
744,49.18,48.158
752,48.80,47.765
760,48.58,47.286
768,48.30,46.891
776,48.02,46.339
784,47.84,45.780
792,47.55,45.112
800,47.21,44.951
808,46.97,44.982
816,46.70,45.243
824,46.37,45.409
832,46.17,45.205
840,45.94,44.392
848,45.62,43.842
856,45.27,43.609
864,44.97,43.267
872,44.61,42.986
880,44.31,42.984
888,44.14,42.751
896,43.87,42.086
904,43.69,41.437
912,43.46,42.374
920,43.21,45.875
928,42.95,51.571
936,42.62,56.619
944,42.32,58.859
952,41.93,57.859
960,41.66,55.091
968,41.27,52.760
976,40.98,51.784
984,40.59,50.470
992,40.29,49.122
1000,40.09,48.396
1008,39.71,48.493
1016,39.47,49.274
1024,39.12,50.430
1032,38.76,51.165
1040,38.47,50.931
1048,38.13,50.507
1056,37.78,49.968
1064,37.59,49.487
1072,37.35,48.842
1080,37.10,47.943
1088,36.83,46.363
1096,36.55,45.337
1104,36.21,45.102
1112,35.93,44.977
1120,35.58,44.670
1128,35.24,43.666
1136,34.93,42.310
1144,34.65,41.424
1152,34.44,39.874
1160,34.17,36.295
1168,33.88,32.045
1176,33.68,29.780
1184,33.41,28.509
1192,33.16,27.335
1200,32.98,26.562
1208,32.75,25.940
1216,32.56,25.300
1224,32.38,24.879
1232,32.13,25.026
1240,31.87,25.147
1248,31.70,24.946
1256,31.38,24.729
1264,31.20,24.258
1272,31.03,23.188
1280,30.79,22.201
1288,30.64,21.504
1296,30.41,20.752
1304,30.16,19.993
1312,29.95,19.697
1320,29.72,20.162
1328,29.48,20.946
1336,29.29,21.029
1344,29.06,20.623
1352,28.87,19.660
1360,28.69,18.468
1368,28.46,17.680
1376,28.17,17.241
1384,27.88,17.464
1392,27.77,17.974
1400,27.59,18.244
1408,27.54,18.022
1416,27.49,17.479
1424,27.29,17.518
1432,27.15,17.614
1440,26.90,17.905
1448,26.65,17.755
1456,26.42,17.164
1464,26.13,15.964
1472,25.95,15.207
1480,25.76,14.892
1488,25.59,15.230
1496,25.44,15.502
1504,25.24,16.087
1512,25.04,16.493
1520,24.84,15.573
1528,24.67,14.554
1536,24.51,13.915
1544,24.39,13.763
1552,24.11,13.626
1560,23.93,13.594
1568,23.72,13.543
1576,23.44,13.574
1584,23.29,13.002
1592,23.13,12.097
1600,22.90,11.261
1608,22.84,11.346
1616,22.67,11.669
1624,22.47,12.141
1632,22.39,12.161
1640,22.15,12.157
1648,22.05,12.067
1656,21.99,12.322
1664,21.84,12.094
1672,21.79,11.757
1680,21.69,11.457
1688,21.40,11.610
1696,21.33,11.712
1704,21.38,11.454
1712,21.39,10.956
1720,21.53,10.593
1728,21.51,10.744
1736,21.35,10.487
1744,21.19,10.070
1752,21.03,9.720
1760,20.87,9.908
1768,20.71,10.278
1776,20.56,10.047
1784,20.40,9.624
1792,20.24,9.590
1800,20.08,9.431
1808,19.92,8.941
1816,19.76,8.869
1824,19.60,8.818
1832,19.44,8.756
1840,19.28,8.864
1848,19.12,8.944
1856,18.96,8.717
1864,18.80,8.475
1872,18.64,8.445
1880,18.48,8.087
1888,18.31,7.805
1896,18.15,7.942
1904,17.99,7.733
1912,17.87,6.725
1920,17.68,6.175
1928,17.59,6.606
1936,17.42,7.009
1944,17.18,7.171
1952,17.10,7.115
1960,16.88,6.436
1968,16.70,5.740
1976,16.62,5.213
1984,16.51,4.590
1992,16.46,3.761
2000,16.42,3.337
2008,16.37,3.543
2016,16.30,3.322
2024,16.12,3.868
2032,15.89,5.252
2040,15.74,6.163
2048,15.58,6.112
2056,15.49,5.211
2064,15.47,4.726
2072,15.35,5.199
2080,15.19,6.265
2088,15.11,6.534
2096,14.95,6.185
2104,14.79,5.346
2112,14.69,4.977
2120,14.51,4.375
2128,14.39,4.391
2136,14.29,4.230
2144,14.21,4.164
2152,14.17,3.713
2160,14.16,3.036
2168,14.00,1.983
2176,13.96,1.424
2184,13.75,1.758
2192,13.66,2.627
2200,13.63,2.435
2208,13.49,2.007
2216,13.41,1.707
2224,13.28,1.840
2232,13.13,1.921
2240,13.08,1.977
2248,12.93,2.307
2256,12.80,2.065
2264,12.74,1.665
2272,12.66,1.388
2280,12.58,1.370
2288,12.51,1.603
2296,12.34,1.467
2304,12.28,1.100
2312,12.25,0.454
2320,12.14,0.000
2328,12.10,0.000
2336,11.97,0.000
2344,11.86,0.000
2347,11.84,0.000

File: UMET_Cone_60KW_hor_R2.csv
Time (s),Mass (g),HRR (kW/m2)
0,96.64,0
7,96.64,35.73
14,96.64,97.99
21,96.64,148.43
28,95.880,169.75
35,94.551,172.99
42,94.361,170.07
49,93.126,163.89
56,92.841,157.46
63,91.037,151.68
70,90.847,147.34
77,89.992,143.81
84,89.138,139.92
91,88.758,136.59
98,87.998,134.15
105,87.998,133.21
112,86.953,132.81
119,86.763,132.82
126,85.624,133.34
133,85.624,134.10
140,84.199,133.94
147,83.250,132.91
154,82.870,131.53
161,82.585,131.37
168,81.540,131.29
175,81.540,130.72
182,81.445,128.91
189,80.495,126.99
196,79.071,125.78
203,79.641,124.63
210,78.311,123.81
217,76.697,123.11
224,77.267,122.77
231,77.077,122.14
238,76.507,121.46
245,75.842,120.96
252,76.222,120.82
259,74.607,120.81
266,74.702,120.59
273,73.088,120.10
280,72.993,119.38
287,72.328,118.55
294,71.853,117.72
301,71.853,116.49
308,71.379,114.39
315,69.764,112.56
322,70.144,111.70
329,69.194,111.57
336,68.245,110.91
343,68.624,109.38
350,67.865,107.73
357,67.770,106.22
364,67.200,104.80
371,66.345,104.05
378,66.155,102.97
385,65.206,102.04
392,65.111,101.22
399,64.826,100.55
406,63.496,100.23
413,63.496,100.17
420,63.781,100.39
427,63.021,100.28
434,62.262,99.46
441,62.452,98.33
448,61.027,97.20
455,60.457,96.02
462,60.077,95.42
469,60.267,94.70
476,60.457,94.32
483,59.887,93.69
490,58.368,93.42
497,58.463,92.79
504,57.988,92.20
511,57.133,91.56
518,57.418,91.09
525,56.469,90.30
532,55.994,89.22
539,56.374,88.45
546,55.994,88.29
553,54.949,88.38
560,53.904,88.70
567,54.569,89.10
574,53.619,89.66
581,52.860,89.08
588,53.050,88.75
595,53.145,88.80
602,51.910,89.24
609,51.340,88.75
616,51.910,87.82
623,50.011,86.48
630,49.441,85.39
637,50.581,84.72
644,50.011,84.46
651,49.726,84.55
658,49.156,84.82
665,49.251,85.81
672,48.206,86.17
679,47.921,85.32
686,47.257,83.90
693,47.542,82.82
700,46.782,82.17
707,46.877,81.60
714,46.022,81.42
721,45.832,81.04
728,44.882,80.37
735,45.452,79.60
742,44.313,79.57
749,44.218,79.57
756,43.458,79.02
763,43.173,78.43
770,43.173,78.16
777,42.223,78.13
784,42.413,77.58
791,41.274,77.04
798,41.748,76.60
805,40.229,76.30
812,40.229,76.07
819,40.039,75.66
826,39.944,75.29
833,39.374,74.53
840,39.374,73.21
847,38.235,71.71
854,38.994,70.14
861,37.950,69.60
868,37.855,69.57
875,37.950,70.06
882,36.905,70.30
889,37.380,69.46
896,36.715,68.49
903,35.860,67.39
910,36.145,67.36
917,35.291,67.01
924,35.101,66.85
931,34.721,66.04
938,35.006,65.10
945,34.531,64.12
952,33.771,64.37
959,33.961,65.23
966,33.771,65.71
973,33.961,65.23
980,32.916,64.84
987,32.537,64.04
994,32.727,63.51
1001,31.207,62.60
1008,31.587,62.12
1015,31.872,61.64
1022,31.112,61.47
1029,30.732,61.59
1036,31.112,61.50
1043,30.637,61.28
1050,30.067,61.03
1057,30.542,60.48
1064,29.972,59.30
1071,29.118,58.51
1078,28.263,58.21
1085,28.358,58.48
1092,28.643,58.55
1099,28.168,58.33
1106,27.408,57.94
1113,27.503,57.42
1120,26.364,56.84
1127,26.364,56.19
1134,26.269,55.36
1141,26.459,54.93
1148,25.984,54.60
1155,26.364,54.28
1162,25.319,53.69
1169,24.844,53.41
1176,25.034,53.10
1183,23.989,52.90
1190,23.325,52.12
1197,24.369,51.13
1204,23.800,49.84
1211,24.274,49.60
1218,23.230,49.69
1225,22.850,49.84
1232,22.090,49.54
1239,23.135,49.43
1246,22.185,48.89
1253,22.090,48.09
1260,21.140,47.35
1267,21.900,47.26
1274,21.615,46.95
1281,20.381,45.51
1288,20.950,43.26
1295,20.666,41.71
1302,20.286,41.20
1309,19.716,41.59
1316,20.001,41.37
1323,19.906,40.74
1330,19.431,39.70
1337,18.481,38.77
1344,18.576,38.22
1351,17.817,37.82
1358,19.146,37.10
1365,17.532,35.78
1372,17.817,34.15
1379,18.006,32.66
1386,17.247,31.65
1393,16.772,30.71
1400,16.677,30.14
1407,17.247,29.26
1414,16.867,28.26
1421,16.487,27.15
1428,16.962,26.02
1435,16.297,25.56
1442,16.582,25.29
1449,15.822,25.25
1456,16.107,24.73
1463,15.632,23.26
1470,15.347,21.91
1477,15.442,21.36
1484,14.778,21.73
1491,15.442,21.64
1498,14.588,20.56
1505,14.398,19.53
1512,14.778,19.13
1519,14.588,19.39
1526,14.208,18.92
1533,13.733,17.74
1540,13.638,16.04
1547,13.448,14.93
1554,13.543,14.67
1561,13.923,14.80
1568,14.208,14.66
1575,13.543,13.94
1582,12.973,12.94
1589,12.593,12.39
1596,12.403,12.01
1603,12.213,12.25
1610,12.498,12.83
1617,12.213,12.94
1624,11.834,12.30
1631,12.308,10.85
1638,12.783,9.98
1645,12.213,8.72
1652,11.359,7.68
1659,12.973,6.85
1666,11.739,6.66
1673,11.834,6.27
1680,11.169,5.83
1687,10.979,4.84
1694,11.359,3.95
1701,11.454,4.04
1708,10.979,4.60
1715,11.264,4.87
1722,10.789,4.19
1729,10.884,4.05
1736,10.409,4.40
1743,9.649,4.27
1750,10.694,3.26
1757,10.124,2.29
1764,10.124,1.89
1771,10.789,2.21
1778,9.554,2.31
1785,9.459,1.92
1792,9.174,1.04
1799,9.744,0.63
1806,7.560,0.26
1813,9.079,0.38
1820,9.649,0.35
1827,9.364,0.38
1834,9.554,0.36
1840,8.605,0.00

File: UMET_TGA_N2_10K_R1.csv
Time (s),Temperature (K),Mass (mg)
0,313.134,4.0284
18,316.134,4.0291
36,319.134,4.0298
54,322.134,4.0294
72,325.134,4.0296
90,328.134,4.0295
108,331.134,4.0293
126,334.134,4.0294
144,337.134,4.0298
162,340.134,4.0297
180,343.134,4.0282
198,346.134,4.0277
216,349.134,4.027
234,352.134,4.0278
252,355.134,4.0279
270,358.134,4.0274
288,361.134,4.0274
306,364.134,4.0266
324,367.134,4.0267
342,370.134,4.0277
360,373.134,4.0277
378,376.134,4.0272
396,379.134,4.0268
414,382.134,4.0271
432,385.134,4.0267
450,388.134,4.0264
468,391.134,4.0263
486,394.134,4.026
504,397.134,4.0257
522,400.134,4.0252
540,403.134,4.0249
558,406.134,4.0243
576,409.134,4.0232
594,412.134,4.0231
612,415.134,4.0208
630,418.134,4.0203
648,421.134,4.0192
666,424.134,4.0187
684,427.134,4.0165
702,430.134,4.015
720,433.134,4.0121
738,436.134,4.0104
756,439.134,4.0075
774,442.134,4.0046
792,445.134,4.0007
810,448.134,3.9961
828,451.134,3.9914
846,454.134,3.9857
864,457.134,3.9784
882,460.134,3.9718
900,463.134,3.9663
918,466.134,3.9594
936,469.134,3.9528
954,472.134,3.9436
972,475.134,3.9367
990,478.134,3.931
1008,481.134,3.9237
1026,484.134,3.9156
1044,487.134,3.9074
1062,490.134,3.8978
1080,493.134,3.8895
1098,496.134,3.8786
1116,499.134,3.8696
1134,502.134,3.8569
1152,505.134,3.8432
1170,508.134,3.8293
1188,511.134,3.8148
1206,514.134,3.7988
1224,517.134,3.7803
1242,520.134,3.7625
1260,523.134,3.7424
1278,526.134,3.7179
1296,529.134,3.6955
1314,532.134,3.671
1332,535.134,3.6445
1350,538.134,3.6176
1368,541.134,3.5887
1386,544.134,3.5594
1404,547.134,3.5287
1422,550.134,3.4983
1440,553.134,3.4641
1458,556.134,3.4292
1476,559.134,3.3924
1494,562.134,3.3551
1512,565.134,3.3135
1530,568.134,3.272
1548,571.134,3.2265
1566,574.134,3.1798
1584,577.134,3.1293
1602,580.134,3.0765
1620,583.134,3.0227
1638,586.134,2.9619
1656,589.134,2.902
1674,592.134,2.8367
1692,595.134,2.7686
1710,598.134,2.6972
1728,601.134,2.6241
1746,604.134,2.5376
1764,607.134,2.4602
1782,610.134,2.3838
1800,613.134,2.2963
1818,616.134,2.2082
1836,619.134,2.1141
1854,622.134,2.0169
1872,625.134,1.9138
1890,628.134,1.8117
1908,631.134,1.7009
1926,634.134,1.5841
1944,637.134,1.4662
1962,640.134,1.3442
1980,643.134,1.2251
1998,646.134,1.1095
2016,649.134,1.0169
2034,652.134,0.948
2052,655.134,0.892
2070,658.134,0.8622
2088,661.134,0.8452
2106,664.134,0.8341
2124,667.134,0.8245
2142,670.134,0.8176
2160,673.134,0.8116
2178,676.134,0.8041
2196,679.134,0.7966
2214,682.134,0.7891
2232,685.134,0.7835
2250,688.134,0.7766
2268,691.134,0.77
2286,694.134,0.764
2304,697.134,0.7558
2322,700.134,0.7507
2340,703.134,0.7457
2358,706.134,0.7385
2376,709.134,0.7323
2394,712.134,0.7267
2412,715.134,0.7204
2430,718.134,0.7139
2448,721.134,0.7093
2466,724.134,0.7034
2484,727.134,0.6991
2502,730.134,0.6946
2520,733.134,0.6895
2538,736.134,0.6842
2556,739.134,0.6785
2574,742.134,0.6743
2592,745.134,0.6671
2610,748.134,0.6632
2628,751.134,0.6587
2646,754.134,0.6544
2664,757.134,0.647
2682,760.134,0.6431
2700,763.134,0.6374
2718,766.134,0.6339
2736,769.134,0.6285
2754,772.134,0.6225
2772,775.134,0.6185
2790,778.134,0.6134
2808,781.134,0.6079
2826,784.134,0.604
2844,787.134,0.5973
2862,790.134,0.5943
2880,793.134,0.5887
2898,796.134,0.5843
2916,799.134,0.5795
2934,802.134,0.5741
2952,805.134,0.5677
2970,808.134,0.5637
2988,811.134,0.5592
3006,814.134,0.5531
3024,817.134,0.5486
3042,820.134,0.5437
3060,823.134,0.5378
3078,826.134,0.5342
3096,829.134,0.529
3114,832.134,0.5223
3132,835.134,0.5186
3150,838.134,0.5161
3168,841.134,0.5104
3186,844.134,0.5047
3204,847.134,0.498
3222,850.134,0.4933
3240,853.134,0.489
3258,856.134,0.4827
3276,859.134,0.4806
3294,862.134,0.4748
3312,865.134,0.4699
3330,868.134,0.4664
3348,871.134,0.4607
3366,874.134,0.4562
3384,877.134,0.4511
3402,880.134,0.4463
3420,883.134,0.4421
3438,886.134,0.4378
3456,889.134,0.4324
3474,892.134,0.4279
3492,895.134,0.4232
3510,898.134,0.419
3528,901.134,0.4142
3546,904.134,0.4103
3564,907.134,0.4059
3582,910.134,0.3988
3600,913.134,0.3958
3618,916.134,0.3908
3636,919.134,0.3857
3654,922.134,0.3816
3672,925.134,0.3785
3690,928.134,0.3738
3708,931.134,0.3695
3726,934.134,0.3635
3744,937.134,0.3623
3762,940.134,0.3571
3780,943.134,0.3527
3798,946.134,0.3496
3816,949.134,0.3444
3834,952.134,0.3424
3852,955.134,0.3383
3870,958.134,0.3351
3888,961.134,0.33
3906,964.134,0.326
3924,967.134,0.323
3942,970.134,0.3183
3960,973.134,0.3146
3978,976.134,0.3113
3996,979.134,0.3082
4014,982.134,0.3036
4032,985.134,0.2999
4050,988.134,0.2995
4068,991.134,0.2956
4086,994.134,0.2916
4104,997.134,0.2866
4122,1000.134,0.2823
4140,1003.134,0.2805
4158,1006.134,0.2765
4176,1009.134,0.2727
4194,1012.134,0.2691
4212,1015.134,0.2652
4230,1018.134,0.2634
4248,1021.134,0.2601
4266,1024.134,0.2572
4284,1027.134,0.2536
4302,1030.134,0.251
4320,1033.134,0.2477
4338,1036.134,0.2441
4356,1039.134,0.2416
4374,1042.134,0.2377
4392,1045.134,0.2359
4410,1048.134,0.2327
4428,1051.134,0.2314
4446,1054.134,0.2272
4464,1057.134,0.2239
4482,1060.134,0.221
4500,1063.134,0.2178
4518,1066.134,0.2161
4536,1069.134,0.2122
4554,1072.134,0.2097
4557,1072.634,0.2092