Folder: matl-db/Wood/Calibration_Data/UMET (part 2)

File: UMET_TGA_N2_10K_R3.csv
Time (s),Temperature (K),Mass (mg)
0,313.134,4.2207
18,316.134,4.2201
36,319.134,4.2216
54,322.134,4.221
72,325.134,4.221
90,328.134,4.2207
108,331.134,4.2215
126,334.134,4.2212
144,337.134,4.2211
162,340.134,4.2194
180,343.134,4.2195
198,346.134,4.2188
216,349.134,4.2187
234,352.134,4.2186
252,355.134,4.2183
270,358.134,4.2179
288,361.134,4.2186
306,364.134,4.2191
324,367.134,4.219
342,370.134,4.22
360,373.134,4.22
378,376.134,4.2193
396,379.134,4.2188
414,382.134,4.2193
432,385.134,4.2187
450,388.134,4.2185
468,391.134,4.2186
486,394.134,4.219
504,397.134,4.2177
522,400.134,4.217
540,403.134,4.2162
558,406.134,4.2153
576,409.134,4.2153
594,412.134,4.2147
612,415.134,4.2132
630,418.134,4.2139
648,421.134,4.2125
666,424.134,4.212
684,427.134,4.2095
702,430.134,4.2079
720,433.134,4.2058
738,436.134,4.2037
756,439.134,4.2006
774,442.134,4.1962
792,445.134,4.1914
810,448.134,4.1854
828,451.134,4.1813
846,454.134,4.1748
864,457.134,4.1692
882,460.134,4.1622
900,463.134,4.1548
918,466.134,4.1487
936,469.134,4.1401
954,472.134,4.1322
972,475.134,4.1242
990,478.134,4.1177
1008,481.134,4.1102
1026,484.134,4.1012
1044,487.134,4.0915
1062,490.134,4.0841
1080,493.134,4.0736
1098,496.134,4.0634
1116,499.134,4.0514
1134,502.134,4.0396
1152,505.134,4.0291
1170,508.134,4.0132
1188,511.134,3.9987
1206,514.134,3.9812
1224,517.134,3.9645
1242,520.134,3.9429
1260,523.134,3.9219
1278,526.134,3.8984
1296,529.134,3.8734
1314,532.134,3.8481
1332,535.134,3.822
1350,538.134,3.7943
1368,541.134,3.7646
1386,544.134,3.7338
1404,547.134,3.7024
1422,550.134,3.6695
1440,553.134,3.6358
1458,556.134,3.6003
1476,559.134,3.5621
1494,562.134,3.5206
1512,565.134,3.4801
1530,568.134,3.4363
1548,571.134,3.3891
1566,574.134,3.3419
1584,577.134,3.2889
1602,580.134,3.2355
1620,583.134,3.1771
1638,586.134,3.1168
1656,589.134,3.0529
1674,592.134,2.986
1692,595.134,2.9164
1710,598.134,2.8427
1728,601.134,2.7653
1746,604.134,2.6716
1764,607.134,2.5976
1782,610.134,2.5052
1800,613.134,2.4263
1818,616.134,2.3328
1836,619.134,2.2417
1854,622.134,2.1333
1872,625.134,2.0347
1890,628.134,1.9205
1908,631.134,1.8102
1926,634.134,1.6897
1944,637.134,1.5665
1962,640.134,1.4408
1980,643.134,1.3156
1998,646.134,1.1949
2016,649.134,1.1051
2034,652.134,1.0235
2052,655.134,0.9652
2070,658.134,0.9316
2088,661.134,0.9125
2106,664.134,0.9013
2124,667.134,0.8905
2142,670.134,0.8834
2160,673.134,0.8746
2178,676.134,0.8684
2196,679.134,0.8616
2214,682.134,0.8538
2232,685.134,0.8473
2250,688.134,0.8398
2268,691.134,0.8332
2286,694.134,0.8267
2304,697.134,0.8202
2322,700.134,0.8155
2340,703.134,0.8079
2358,706.134,0.801
2376,709.134,0.7953
2394,712.134,0.7901
2412,715.134,0.7826
2430,718.134,0.7787
2448,721.134,0.7733
2466,724.134,0.7656
2484,727.134,0.7612
2502,730.134,0.755
2520,733.134,0.7505
2538,736.134,0.745
2556,739.134,0.7413
2574,742.134,0.7368
2592,745.134,0.7309
2610,748.134,0.727
2628,751.134,0.7226
2646,754.134,0.7174
2664,757.134,0.7092
2682,760.134,0.7047
2700,763.134,0.701
2718,766.134,0.6971
2736,769.134,0.6917
2754,772.134,0.6864
2772,775.134,0.6816
2790,778.134,0.678
2808,781.134,0.6727
2826,784.134,0.6689
2844,787.134,0.6647
2862,790.134,0.6608
2880,793.134,0.6537
2898,796.134,0.6512
2916,799.134,0.6441
2934,802.134,0.6406
2952,805.134,0.6353
2970,808.134,0.6309
2988,811.134,0.6271
3006,814.134,0.6208
3024,817.134,0.6158
3042,820.134,0.6128
3060,823.134,0.6043
3078,826.134,0.5994
3096,829.134,0.5953
3114,832.134,0.591
3132,835.134,0.5864
3150,838.134,0.5808
3168,841.134,0.5766
3186,844.134,0.5703
3204,847.134,0.5674
3222,850.134,0.5612
3240,853.134,0.558
3258,856.134,0.5523
3276,859.134,0.5476
3294,862.134,0.5435
3312,865.134,0.5392
3330,868.134,0.5348
3348,871.134,0.5296
3366,874.134,0.5244
3384,877.134,0.5207
3402,880.134,0.5155
3420,883.134,0.5121
3438,886.134,0.507
3456,889.134,0.5024
3474,892.134,0.4988
3492,895.134,0.4935
3510,898.134,0.4898
3528,901.134,0.4862
3546,904.134,0.4823
3564,907.134,0.4776
3582,910.134,0.473
3600,913.134,0.4699
3618,916.134,0.4635
3636,919.134,0.4611
3654,922.134,0.4568
3672,925.134,0.4537
3690,928.134,0.449
3708,931.134,0.4449
3726,934.134,0.4411
3744,937.134,0.4373
3762,940.134,0.4323
3780,943.134,0.4295
3798,946.134,0.428
3816,949.134,0.4237
3834,952.134,0.4189
3852,955.134,0.4161
3870,958.134,0.4138
3888,961.134,0.409
3906,964.134,0.4064
3924,967.134,0.401
3942,970.134,0.4002
3960,973.134,0.3937
3978,976.134,0.3919
3996,979.134,0.3894
4014,982.134,0.3857
4032,985.134,0.3819
4050,988.134,0.3782
4068,991.134,0.3747
4086,994.134,0.3711
4104,997.134,0.3667
4122,1000.134,0.3657
4140,1003.134,0.3646
4158,1006.134,0.3619
4176,1009.134,0.356
4194,1012.134,0.3521
4212,1015.134,0.3508
4230,1018.134,0.3488
4248,1021.134,0.3458
4266,1024.134,0.3428
4284,1027.134,0.3401
4302,1030.134,0.3364
4320,1033.134,0.333
4338,1036.134,0.332
4356,1039.134,0.3263
4374,1042.134,0.3256
4392,1045.134,0.3218
4410,1048.134,0.3177
4428,1051.134,0.3156
4446,1054.134,0.3142
4464,1057.134,0.3099
4482,1060.134,0.3084
4500,1063.134,0.3052
4518,1066.134,0.3003
4536,1069.134,0.2997
4554,1072.134,0.2975
4557,1072.634,0.2977

File: UMET_TGA_O2-21_10K_R3.csv
Time (s),Temperature (K),Mass (mg)
0,313.14,4.7632
18,316.14,4.7624
36,319.14,4.7623
54,322.14,4.7621
72,325.14,4.7611
90,328.14,4.761
108,331.14,4.7606
126,334.14,4.7598
144,337.14,4.7591
162,340.14,4.759
180,343.14,4.7584
198,346.14,4.7577
216,349.14,4.7572
234,352.14,4.7566
252,355.14,4.7557
270,358.14,4.7552
288,361.14,4.7546
306,364.14,4.754
324,367.14,4.7526
342,370.14,4.7526
360,373.14,4.7525
378,376.14,4.7516
396,379.14,4.7518
414,382.14,4.7515
432,385.14,4.7513
450,388.14,4.7507
468,391.14,4.7501
486,394.14,4.7493
504,397.14,4.749
522,400.14,4.7488
540,403.14,4.7481
558,406.14,4.747
576,409.14,4.7465
594,412.14,4.7448
612,415.14,4.744
630,418.14,4.7431
648,421.14,4.7411
666,424.14,4.7389
684,427.14,4.7371
702,430.14,4.7347
720,433.14,4.7322
738,436.14,4.7293
756,439.14,4.7263
774,442.14,4.7219
792,445.14,4.717
810,448.14,4.7121
828,451.14,4.7074
846,454.14,4.7013
864,457.14,4.6954
882,460.14,4.6883
900,463.14,4.6816
918,466.14,4.6747
936,469.14,4.6671
954,472.14,4.6601
972,475.14,4.6511
990,478.14,4.6435
1008,481.14,4.6349
1026,484.14,4.6242
1044,487.14,4.6157
1062,490.14,4.6044
1080,493.14,4.5928
1098,496.14,4.5799
1116,499.14,4.5676
1134,502.14,4.5516
1152,505.14,4.5359
1170,508.14,4.5183
1188,511.14,4.4986
1206,514.14,4.4782
1224,517.14,4.4557
1242,520.14,4.4306
1260,523.14,4.4041
1278,526.14,4.3747
1296,529.14,4.3426
1314,532.14,4.3102
1332,535.14,4.2756
1350,538.14,4.238
1368,541.14,4.1988
1386,544.14,4.1565
1404,547.14,4.113
1422,550.14,4.0655
1440,553.14,4.0141
1458,556.14,3.9598
1476,559.14,3.9024
1494,562.14,3.8397
1512,565.14,3.7735
1530,568.14,3.7023
1548,571.14,3.6172
1566,574.14,3.538
1584,577.14,3.4374
1602,580.14,3.3341
1620,583.14,3.2253
1638,586.14,3.1067
1656,589.14,2.9746
1674,592.14,2.8199
1692,595.14,2.6313
1710,598.14,2.4022
1728,601.14,2.1351
1746,604.14,1.8856
1764,607.14,1.712
1782,610.14,1.6244
1800,613.14,1.5627
1818,616.14,1.5165
1836,619.14,1.4789
1854,622.14,1.447
1872,625.14,1.418
1890,628.14,1.3916
1908,631.14,1.3654
1926,634.14,1.3389
1944,637.14,1.3154
1962,640.14,1.2911
1980,643.14,1.268
1998,646.14,1.2437
2016,649.14,1.2205
2034,652.14,1.1968
2052,655.14,1.174
2070,658.14,1.15
2088,661.14,1.1262
2106,664.14,1.1017
2124,667.14,1.0771
2142,670.14,1.053
2160,673.14,1.0281
2178,676.14,1.0019
2196,679.14,0.9754
2214,682.14,0.9485
2232,685.14,0.9214
2250,688.14,0.892
2268,691.14,0.8624
2286,694.14,0.8305
2304,697.14,0.7979
2322,700.14,0.7632
2340,703.14,0.727
2358,706.14,0.6901
2376,709.14,0.6524
2394,712.14,0.6137
2412,715.14,0.5758
2430,718.14,0.5368
2448,721.14,0.4964
2466,724.14,0.4537
2484,727.14,0.408
2502,730.14,0.3586
2520,733.14,0.3048
2538,736.14,0.2465
2556,739.14,0.0622
2574,742.14,0.0158
2592,745.14,0.0155
2610,748.14,0.0151
2628,751.14,0.0144
2646,754.14,0.0139
2664,757.14,0.0137
2682,760.14,0.0133
2700,763.14,0.014
2718,766.14,0.0139
2736,769.14,0.0141
2754,772.14,0.0135
2772,775.14,0.0131
2790,778.14,0.0133
2808,781.14,0.0135
2826,784.14,0.013
2844,787.14,0.0134
2862,790.14,0.0133
2880,793.14,0.0129
2898,796.14,0.013
2916,799.14,0.0123
2934,802.14,0.0123
2952,805.14,0.0123
2970,808.14,0.0123
2988,811.14,0.0121
3006,814.14,0.0113
3024,817.14,0.011
3042,820.14,0.0107
3060,823.14,0.0109
3078,826.14,0.0104
3096,829.14,0.0105
3114,832.14,0.0098
3132,835.14,0.0096
3150,838.14,0.0089
3168,841.14,0.0081
3186,844.14,0.0083
3204,847.14,0.0076
3222,850.14,0.0078
3240,853.14,0.0074
3258,856.14,0.0076
3276,859.14,0.0069
3294,862.14,0.0064
3312,865.14,0.0064
3330,868.14,0.0061
3348,871.14,0.0063
3366,874.14,0.0061
3384,877.14,0.0054
3402,880.14,0.0052
3420,883.14,0.0048
3438,886.14,0.0049
3456,889.14,0.0045
3474,892.14,0.0048
3492,895.14,0.0047
3510,898.14,0.0048
3528,901.14,0.0047
3546,904.14,0.0045
3564,907.14,0.0051
3582,910.14,0.0052
3600,913.14,0.0051
3618,916.14,0.0047
3636,919.14,0.0053
3654,922.14,0.0047
3672,925.14,0.005
3690,928.14,0.0047
3708,931.14,0.0045
3726,934.14,0.0043
3744,937.14,0.004
3762,940.14,0.0044
3780,943.14,0.0046
3798,946.14,0.0044
3816,949.14,0.0036
3834,952.14,0.003
3852,955.14,0.0023
3870,958.14,0.0022
3888,961.14,0.0019
3906,964.14,0.0011
3924,967.14,0.0017
3942,970.14,0.0018
3960,973.14,0.0028
3978,976.14,0.0023
3996,979.14,0.0028
4014,982.14,0.0026
4032,985.14,0.0033
4050,988.14,0.0041
4068,991.14,0.0034
4086,994.14,0.0028
4104,997.14,0.0032
4122,1000.14,0.0031
4140,1003.14,0.0034
4158,1006.14,0.0042
4176,1009.14,0.004
4194,1012.14,0.0037
4212,1015.14,0.0038
4230,1018.14,0.0033
4248,1021.14,0.0033
4266,1024.14,0.003
4284,1027.14,0.003
4302,1030.14,0.0034
4320,1033.14,0.0031
4338,1036.14,0.0032
4356,1039.14,0.0026
4374,1042.14,0.0028
4392,1045.14,0.0032
4410,1048.14,0.0031
4428,1051.14,0.0031
4446,1054.14,0.0024
4464,1057.14,0.0021
4482,1060.14,0.0018
4500,1063.14,0.001
4518,1066.14,0.0007
4536,1069.14,0.001
4554,1072.14,0.0001
4557,1072.64,0

File: UMET_Wood_Cone_30kW_hor_R3.csv
Time (s),Mass (g),HRR (kW/m2)
0,110.935,0.07
8,110.540,1.86
16,109.134,3.68
24,109.567,5.53
32,108.161,7.29
40,107.674,29.56
48,106.452,75.61
56,105.873,124.05
64,105.295,142.81
72,104.532,144.05
80,103.402,139.38
88,103.835,134.05
96,102.521,129.37
104,101.942,124.80
112,101.640,119.99
120,101.061,115.21
128,99.563,111.15
136,98.248,108.64
144,98.406,107.35
152,98.011,106.40
160,97.525,105.30
168,96.578,104.17
176,94.344,102.77
184,94.133,102.01
192,95.118,101.87
200,94.448,101.37
208,93.501,100.14
216,94.487,99.47
224,92.896,99.58
232,91.490,99.26
240,91.095,98.53
248,91.437,98.11
256,90.398,98.13
264,90.280,97.76
272,89.333,96.65
280,88.571,95.88
288,87.532,95.33
296,86.678,94.92
304,87.295,94.78
312,87.268,95.18
320,86.598,95.84
328,86.295,96.48
336,84.705,96.74
344,84.310,96.26
352,83.548,95.00
360,83.705,93.08
368,83.219,91.09
376,82.824,89.70
384,82.798,89.36
392,82.495,89.05
400,81.641,87.81
408,80.510,85.91
416,80.208,84.32
424,78.617,83.50
432,78.315,82.91
440,77.828,82.04
448,78.077,80.92
456,76.763,79.87
464,77.656,79.63
472,76.526,79.82
480,75.763,79.65
488,76.013,79.14
496,74.790,78.81
504,73.476,78.85
512,74.369,78.71
520,73.515,78.33
528,72.936,77.74
536,71.990,77.18
544,71.135,76.81
552,71.477,75.84
560,70.990,74.13
568,70.320,71.67
576,70.017,69.56
584,68.978,68.44
592,68.860,67.48
600,68.649,66.42
608,67.151,65.65
616,67.216,66.00
624,66.914,66.52
632,66.059,66.22
640,65.297,65.54
648,65.546,64.78
656,62.293,64.69
664,62.204,64.70
672,61.936,64.75
680,60.954,65.00
688,61.133,65.56
696,60.597,66.06
704,60.061,66.08
712,59.526,65.64
720,59.079,64.65
728,58.543,63.94
736,58.276,64.20
744,57.740,64.86
752,57.740,64.60
760,57.293,63.58
768,56.936,62.65
776,56.579,62.49
784,56.401,63.11
792,55.686,64.21
800,55.329,64.22
808,55.329,62.67
816,55.329,59.03
824,55.061,55.71
832,53.990,54.37
840,53.722,54.69
848,53.722,54.58
856,53.276,54.15
864,53.454,54.32
872,53.008,54.00
880,52.115,52.33
888,51.937,51.01
896,51.669,50.30
904,49.972,49.89
912,51.490,49.76
920,48.722,50.10
928,50.597,50.30
936,50.240,50.39
944,50.419,50.63
952,49.615,49.45
960,49.437,47.45
968,48.812,45.50
976,48.455,44.32
984,48.544,43.06
992,48.365,43.15
1000,47.830,43.34
1008,47.562,42.88
1016,46.848,41.12
1024,47.383,40.03
1032,46.669,39.53
1040,46.312,40.49
1048,46.848,40.92
1056,45.955,40.98
1064,45.865,39.69
1072,46.133,38.85
1080,45.151,37.83
1088,44.616,36.63
1096,44.705,35.66
1104,44.348,35.63
1112,43.633,37.34
1120,43.455,38.32
1128,43.276,38.63
1136,42.919,38.98
1144,42.651,39.82
1152,42.383,40.69
1160,42.294,40.71
1168,41.669,40.90
1176,41.223,41.24
1184,40.687,42.72
1192,40.866,43.32
1200,40.062,44.11
1208,40.419,43.51
1216,39.794,42.33
1224,39.794,41.90
1232,39.794,42.17
1240,39.348,41.88
1248,38.812,41.70
1256,38.902,42.55
1264,38.009,43.10
1272,38.009,43.28
1280,37.741,43.14
1288,37.562,42.62
1296,37.205,41.82
1304,36.759,41.12
1312,36.312,39.74
1320,36.580,37.62
1328,36.045,36.55
1336,35.598,37.44
1344,35.330,38.57
1352,35.420,38.95
1360,35.062,39.44
1368,34.616,40.47
1376,34.705,40.86
1384,34.348,41.10
1392,33.366,41.70
1400,33.634,41.88
1408,33.098,41.29
1416,32.920,40.84
1424,32.384,40.67
1432,32.473,41.21
1440,32.116,42.26
1448,31.580,42.06
1456,31.045,41.62
1464,31.402,41.59
1472,30.866,40.92
1480,31.134,39.72
1488,31.134,39.10
1496,30.241,38.98
1504,29.884,38.63
1512,29.884,38.50
1520,29.259,38.35
1528,29.616,37.38
1536,28.902,37.04
1544,28.634,37.13
1552,28.723,36.56
1560,27.652,35.49
1568,27.831,35.03
1576,27.741,34.63
1584,27.474,33.79
1592,27.474,33.38
1600,27.027,32.88
1608,27.027,31.56
1616,25.866,29.99
1624,26.134,29.09
1632,25.688,28.58
1640,26.224,28.47
1648,25.420,28.77
1656,25.866,29.96
1664,24.706,31.78
1672,24.706,32.48
1680,24.795,30.90
1688,24.349,28.36
1696,24.438,25.80
1704,23.813,24.46
1712,23.634,24.31
1720,23.545,24.31
1728,23.277,23.24
1736,23.009,22.00
1744,22.652,21.23
1752,22.742,20.92
1760,22.742,21.47
1768,22.474,22.97
1776,22.027,23.50
1784,21.938,23.48
1792,21.938,23.86
1800,21.313,24.12
1808,21.760,23.60
1816,20.956,23.30
1824,20.510,23.52
1832,20.599,23.16
1840,20.510,22.98
1848,20.599,22.54
1856,19.974,22.30
1864,20.242,21.39
1872,19.974,20.92
1880,19.527,20.70
1888,18.813,20.46
1896,19.617,19.95
1904,18.813,19.51
1912,18.992,18.79
1920,18.724,18.02
1928,18.635,17.51
1936,17.742,16.83
1944,18.188,16.05
1952,18.188,16.18
1960,17.831,15.99
1968,17.831,15.53
1976,17.206,14.37
1984,17.563,13.57
1992,17.206,12.52
2000,17.117,11.63
2008,17.385,11.02
2016,16.670,11.46
2024,16.760,11.09
2032,16.760,10.56
2040,16.224,10.14
2048,16.403,10.48
2056,15.778,9.99
2064,15.867,9.36
2072,14.885,9.29
2080,15.599,8.61
2088,15.421,7.56
2096,15.242,6.05
2104,14.706,4.92
2112,15.153,4.20
2120,14.974,3.80
2128,14.260,3.41
2136,14.796,4.10
2144,14.528,4.38
2152,14.081,2.86
2160,14.528,1.71
2168,13.724,1.19
2176,13.635,1.68
2184,13.903,2.61
2192,13.099,3.87
2200,13.724,3.52
2208,13.546,2.64
2216,13.367,1.67
2224,13.546,1.28
2232,12.653,1.06
2240,12.564,1.24
2248,12.296,0.82
2256,12.296,0.65
2264,12.117,0.86
2272,11.849,1.98
2280,11.939,2.69
2288,12.653,2.40
2296,11.314,1.46
2304,11.046,0.90
2312,11.314,0.88
2320,11.046,0.54
2328,11.581,0.23
2336,10.510,0.05
2342,10.867,0.00

File: UMET_Wood_Cone_60kW_hor_R1.csv
Time (s),Mass (g),HRR (kW/m2)
0,84.67,0
8,84.67,45.20
16,84.05,102.62
24,83.08,135.11
32,82.29,136.29
40,82.55,129.44
48,81.32,122.60
56,82.02,117.70
64,80.70,112.70
72,79.29,108.00
80,78.85,103.34
88,78.06,100.33
96,77.09,98.61
104,77.09,97.40
112,76.29,96.04
120,75.94,95.22
128,75.24,95.59
136,75.15,96.10
144,74.00,95.97
152,73.12,95.30
160,73.21,95.13
168,72.06,95.65
176,71.80,96.59
184,70.47,96.84
192,71.18,96.11
200,70.56,95.65
208,68.98,94.85
216,68.80,94.61
224,68.01,94.63
232,68.01,95.13
240,66.42,95.06
248,66.68,94.73
256,65.80,93.89
264,65.27,93.93
272,64.66,93.74
280,63.95,93.09
288,63.16,91.50
296,63.16,90.38
304,62.63,90.09
312,62.01,90.45
320,61.66,90.35
328,60.78,90.43
336,60.34,90.87
344,60.16,90.38
352,59.63,89.07
360,59.01,88.22
368,57.87,88.10
376,57.95,88.52
384,56.54,88.60
392,57.07,88.30
400,56.02,87.53
408,55.49,87.48
416,55.05,87.25
424,54.78,86.46
432,53.81,86.06
440,53.46,86.22
448,52.84,86.65
456,52.49,86.41
464,52.05,86.14
472,51.43,85.89
480,50.64,86.08
488,50.81,85.29
496,49.76,83.97
504,49.67,82.83
512,49.14,81.75
520,49.05,81.01
528,47.99,81.38
536,47.90,82.73
544,47.02,83.35
552,46.32,82.93
560,46.76,81.92
568,45.52,80.92
576,45.43,79.77
584,45.17,79.33
592,43.76,80.23
600,44.11,81.80
608,43.94,83.16
616,43.05,83.43
624,42.70,82.66
632,42.00,81.26
640,41.56,80.05
648,41.38,78.47
656,41.64,76.77
664,40.59,76.56
672,40.50,77.78
680,39.09,78.95
688,39.09,79.09
696,38.38,78.27
704,38.65,76.95
712,37.32,75.94
720,37.68,75.95
728,37.50,76.09
736,36.35,75.67
744,36.27,74.22
752,35.56,73.23
760,35.30,72.45
768,35.47,72.23
776,34.33,71.92
784,33.88,71.88
792,33.36,71.91
800,33.18,71.42
808,32.30,70.93
816,32.21,71.85
824,32.12,73.10
832,31.86,72.94
840,31.59,70.57
848,30.97,68.71
856,30.89,68.09
864,30.27,68.53
872,29.12,67.96
880,29.48,67.45
888,28.77,66.30
896,28.07,65.05
904,28.42,64.00
912,27.89,64.18
920,26.83,64.63
928,27.45,64.17
936,26.04,63.32
944,27.18,62.17
952,25.68,60.95
960,25.77,59.87
968,25.16,59.03
976,24.71,59.14
984,24.63,58.99
992,24.01,58.23
1000,24.19,57.54
1008,23.57,56.54
1016,23.13,55.60
1024,23.13,54.97
1032,22.86,54.93
1040,22.86,54.89
1048,21.54,54.70
1056,22.33,54.38
1064,21.89,53.84
1072,21.45,53.52
1080,20.84,53.56
1088,19.87,53.54
1096,20.48,52.88
1104,19.69,51.81
1112,20.31,50.57
1120,20.31,49.68
1128,19.34,48.71
1136,19.34,47.81
1144,18.45,47.62
1152,18.54,48.00
1160,18.98,48.11
1168,17.31,47.80
1176,17.31,47.36
1184,17.31,46.71
1192,17.13,45.61
1200,16.96,43.68
1208,17.04,42.28
1216,16.16,41.11
1224,15.55,40.16
1232,15.02,39.71
1240,14.84,39.28
1248,15.72,38.49
1256,14.40,38.60
1264,14.75,38.20
1272,13.78,36.70
1280,13.52,34.23
1288,13.61,32.91
1296,13.52,32.90
1304,13.52,33.05
1312,14.13,32.45
1320,12.28,31.04
1328,12.90,29.37
1336,12.02,28.10
1344,12.11,27.34
1352,12.46,27.17
1360,12.28,26.89
1368,11.40,25.64
1376,11.31,24.93
1384,11.14,24.85
1392,11.58,25.37
1400,10.78,24.37
1408,10.43,21.98
1416,10.70,21.03
1424,9.73,21.29
1432,10.34,21.52
1440,9.02,20.66
1448,9.37,20.10
1456,9.55,18.58
1464,8.84,17.37
1472,9.55,17.05
1480,9.46,17.30
1488,9.29,16.60
1496,8.49,15.79
1504,8.23,15.51
1512,8.67,15.93
1520,7.61,16.14
1528,7.79,15.12
1536,8.32,13.77
1544,7.70,12.32
1552,7.35,11.60
1560,6.90,11.45
1568,6.46,12.20
1576,6.82,13.52
1584,6.29,14.31
1592,7.35,14.44
1600,6.29,13.26
1608,5.85,10.99
1616,5.93,8.62
1624,5.76,6.67
1632,6.29,5.65
1640,6.11,4.36
1648,5.32,3.52
1656,5.76,2.94
1664,5.32,3.09
1672,5.58,3.00
1680,5.23,3.30
1688,4.70,3.67
1696,5.41,3.78
1704,4.79,3.94
1712,4.35,4.72
1720,4.52,5.21
1728,4.17,4.03
1736,3.82,1.73
1744,4.17,0.64
1752,4.70,1.05
1760,4.08,2.18
1768,3.73,3.06
1776,4.00,2.66
1784,2.94,1.68
1792,2.58,0.19
1800,2.94,-0.65
1808,2.76,-1.49
1816,2.41,-1.80
1824,3.03,-1.60
1832,2.32,-0.61
1840,2.85,0.00
1848,20.60,22.54
1856,19.97,22.30
1864,20.24,21.39
1872,19.97,20.92
1880,19.53,20.70
1888,18.81,20.46
1896,19.62,19.95
1904,18.81,19.51
1912,18.99,18.79
1920,18.72,18.02
1928,18.63,17.51
1936,17.74,16.83
1944,18.19,16.05
1952,18.19,16.18
1960,17.83,15.99
1968,17.83,15.53
1976,17.21,14.37
1984,17.56,13.57
1992,17.21,12.52
2000,17.12,11.63
2008,17.38,11.02
2016,16.67,11.46
2024,16.76,11.09
2032,16.76,10.56
2040,16.22,10.14
2048,16.40,10.48
2056,15.78,9.99
2064,15.87,9.36
2072,14.88,9.29
2080,15.60,8.61
2088,15.42,7.56
2096,15.24,6.05
2104,14.71,4.92
2112,15.15,4.20
2120,14.97,3.80
2128,14.26,3.41
2136,14.80,4.10
2144,14.53,4.38
2152,14.08,2.86
2160,14.53,1.71
2168,13.72,1.19
2176,13.63,1.68
2184,13.90,2.61
2192,13.10,3.87
2200,13.72,3.52
2208,13.55,2.64
2216,13.37,1.67
2224,13.55,1.28
2232,12.65,1.06
2240,12.56,1.24
2248,12.30,0.82
2256,12.30,0.65
2264,12.12,0.86
2272,11.85,1.98
2280,11.94,2.69
2288,12.65,2.40
2296,11.31,1.46
2304,11.05,0.90
2312,11.31,0.88
2320,11.05,0.54
2328,11.58,0.23
2336,10.51,0.05
2342,10.87,0.00

File: UMET_Wood_Cone_60kW_hor_R3.csv
Time (s),Mass (g),HRR (kW/m2)
0,85.16,0.00
7,85.16,12.92
14,85.16,103.66
21,85.16,145.03
28,84.865,157.40
35,83.782,157.63
42,82.306,154.90
49,83.290,145.75
56,81.715,142.87
63,80.731,137.29
70,80.042,132.26
77,79.550,129.81
84,78.468,126.88
91,77.976,125.38
98,78.172,124.83
105,77.090,124.57
112,76.204,123.67
119,75.417,120.70
126,74.433,117.52
133,74.334,114.46
140,73.744,111.99
147,73.744,109.18
154,72.858,106.17
161,72.661,104.25
168,71.775,102.33
175,70.988,102.17
182,70.890,104.28
189,70.102,105.88
196,69.610,104.34
203,67.937,102.44
210,67.445,101.73
217,67.544,100.71
224,67.150,98.79
231,65.870,98.74
238,65.969,98.97
245,65.870,98.68
252,65.477,100.25
259,64.788,100.89
266,64.690,100.58
273,63.509,99.19
280,63.410,97.46
287,63.410,96.49
294,61.934,96.79
301,61.934,95.82
308,60.753,95.27
315,60.261,95.60
322,61.048,95.81
329,59.375,95.84
336,59.178,94.79
343,58.785,94.52
350,59.080,93.09
357,58.292,91.81
364,57.407,90.15
371,56.718,88.93
378,56.915,88.69
385,56.619,87.86
392,55.438,88.17
399,55.734,86.86
406,55.045,85.94
413,54.651,86.08
420,54.257,86.55
427,53.372,85.74
434,52.978,85.13
441,53.569,84.93
448,52.289,84.80
455,52.486,83.17
462,51.797,82.97
469,51.403,82.29
476,51.305,82.59
483,50.124,81.91
490,49.730,81.16
497,49.632,81.28
504,49.730,80.57
511,48.549,78.96
518,48.451,78.14
525,47.664,75.88
532,47.270,75.52
539,47.762,75.54
546,47.073,74.69
553,46.679,73.21
560,46.286,72.81
567,45.892,71.64
574,44.613,72.28
581,44.908,71.59
588,45.203,71.55
595,45.006,71.19
602,43.530,70.54
609,43.727,70.90
616,43.825,71.22
623,43.235,70.07
630,43.136,69.21
637,42.841,68.38
644,42.152,68.76
651,41.168,69.70
658,40.971,69.06
665,41.168,68.16
672,41.070,67.49
679,39.790,66.42
686,39.692,65.13
693,40.086,64.88
700,39.200,64.18
707,38.905,62.80
714,38.609,62.32
721,38.412,61.36
728,37.527,61.56
735,37.330,60.73
742,37.231,60.00
749,36.838,59.79
756,37.035,59.07
763,36.543,58.62
770,36.543,58.53
777,35.558,57.56
784,35.558,58.06
791,35.066,57.83
798,34.574,56.47
805,33.885,56.76
812,34.082,56.55
819,34.377,56.93
826,33.393,56.84
833,32.901,57.03
840,31.425,56.63
847,32.114,56.22
854,32.901,56.44
861,31.917,56.11
868,31.720,55.53
875,30.834,54.54
882,31.031,54.04
889,30.638,53.67
896,30.834,53.35
903,29.949,53.14
910,30.342,53.53
917,29.260,53.26
924,29.161,52.77
931,30.244,52.39
938,28.768,51.53
945,28.374,49.96
952,27.882,51.07
959,27.784,51.96
966,28.079,50.97
973,27.488,50.11
980,26.701,49.58
987,26.996,48.17
994,26.701,48.05
1001,26.406,49.10
1008,25.914,47.83
1015,25.914,48.10
1022,25.028,46.80
1029,25.028,45.77
1036,24.339,45.50
1043,24.536,47.44
1050,24.339,47.34
1057,24.437,46.02
1064,24.339,45.53
1071,24.241,45.55
1078,23.355,45.93
1085,22.469,46.40
1092,23.552,44.48
1099,22.568,44.05
1106,22.764,43.86
1113,21.977,43.88
1120,21.780,43.35
1127,22.469,41.93
1134,21.682,41.10
1141,21.780,40.25
1148,21.583,39.05
1155,21.091,38.63
1162,20.304,38.16
1169,21.091,36.40
1176,19.713,37.30
1183,20.009,37.97
1190,19.812,37.42
1197,19.320,38.29
1204,19.910,36.36
1211,18.828,35.00
1218,18.926,34.08
1225,18.434,32.85
1232,19.123,33.56
1239,18.729,32.83
1246,18.336,33.17
1253,18.237,33.84
1260,17.450,33.75
1267,17.745,33.84
1274,17.745,32.20
1281,17.056,32.75
1288,16.564,30.34
1295,16.663,29.79
1302,16.761,30.06
1309,16.072,30.00
1316,16.269,29.51
1323,16.466,28.99
1330,15.974,27.93
1337,15.088,27.90
1344,15.482,28.53
1351,14.990,27.43
1358,15.186,27.51
1365,14.793,25.90
1372,13.907,25.29
1379,14.301,24.56
1386,13.316,23.10
1393,14.301,22.60
1400,14.005,20.52
1407,13.710,20.35
1414,13.710,19.68
1421,12.628,18.99
1428,13.021,18.78
1435,12.529,20.84
1442,12.628,19.61
1449,13.218,17.51
1456,12.234,17.59
1463,12.135,16.52
1470,12.135,13.93
1477,12.529,13.52
1484,11.643,12.29
1491,12.234,12.10
1498,12.332,11.13
1505,11.053,11.19
1512,11.545,11.43
1519,11.545,10.93
1526,11.151,10.85
1533,9.970,11.49
1540,10.856,10.57
1547,10.954,11.01
1554,10.659,10.00
1561,10.659,11.90
1568,10.462,10.89
1575,9.970,9.00
1582,9.380,8.67
1589,9.675,8.24
1596,9.577,9.82
1603,9.970,9.55
1610,9.281,8.41
1617,9.577,8.39
1624,9.085,8.42
1631,8.888,7.71
1638,9.380,6.55
1645,9.085,5.80
1652,8.297,6.35
1659,8.592,5.56
1666,8.494,6.07
1673,8.789,5.28
1680,8.592,4.64
1687,8.002,4.55
1694,8.100,4.18
1701,7.411,2.93
1708,7.215,4.09
1715,8.396,3.08
1722,7.608,2.32
1729,7.018,1.89
1736,6.624,1.49
1743,7.608,0.44
1750,7.215,0.39
1757,7.411,0.32
1764,6.919,0.15
1771,7.313,3.23
1778,6.919,4.97
1785,6.821,2.89
1792,6.821,3.50
1799,7.018,2.71
1806,6.919,1.32
1813,6.526,1.21
1820,6.132,0.17
1827,7.018,0.00
1834,7.018,0.00
1840,6.723,0.00