Folder: matl-db/Wood/Calibration_Data/UMET (part 3)

File: UMET_Wood_TGA_N2_10K_R2.csv
Time (s),Temperature (K),Mass (mg)
0,313.134,3.4047
18,316.134,3.4041
36,319.134,3.4064
54,322.134,3.406
72,325.134,3.4052
90,328.134,3.4061
108,331.134,3.4059
126,334.134,3.4055
144,337.134,3.4053
162,340.134,3.4046
180,343.134,3.4044
198,346.134,3.404
216,349.134,3.4036
234,352.134,3.4037
252,355.134,3.4026
270,358.134,3.4035
288,361.134,3.4037
306,364.134,3.4029
324,367.134,3.4033
342,370.134,3.404
360,373.134,3.404
378,376.134,3.4035
396,379.134,3.403
414,382.134,3.4033
432,385.134,3.4029
450,388.134,3.4022
468,391.134,3.402
486,394.134,3.4022
504,397.134,3.402
522,400.134,3.4017
540,403.134,3.4008
558,406.134,3.4004
576,409.134,3.3999
594,412.134,3.3996
612,415.134,3.398
630,418.134,3.3967
648,421.134,3.3964
666,424.134,3.3951
684,427.134,3.3939
702,430.134,3.3927
720,433.134,3.3906
738,436.134,3.3878
756,439.134,3.3855
774,442.134,3.3826
792,445.134,3.3782
810,448.134,3.3727
828,451.134,3.3692
846,454.134,3.3643
864,457.134,3.3584
882,460.134,3.3532
900,463.134,3.3479
918,466.134,3.3419
936,469.134,3.3362
954,472.134,3.3301
972,475.134,3.3244
990,478.134,3.3187
1008,481.134,3.3127
1026,484.134,3.306
1044,487.134,3.2979
1062,490.134,3.2914
1080,493.134,3.284
1098,496.134,3.2726
1116,499.134,3.2648
1134,502.134,3.2567
1152,505.134,3.2429
1170,508.134,3.2298
1188,511.134,3.2202
1206,514.134,3.2048
1224,517.134,3.1884
1242,520.134,3.1716
1260,523.134,3.1541
1278,526.134,3.1344
1296,529.134,3.1141
1314,532.134,3.0932
1332,535.134,3.0707
1350,538.134,3.0474
1368,541.134,3.0253
1386,544.134,2.9989
1404,547.134,2.9737
1422,550.134,2.9471
1440,553.134,2.9185
1458,556.134,2.889
1476,559.134,2.8571
1494,562.134,2.8257
1512,565.134,2.791
1530,568.134,2.754
1548,571.134,2.717
1566,574.134,2.6778
1584,577.134,2.636
1602,580.134,2.5913
1620,583.134,2.5432
1638,586.134,2.4942
1656,589.134,2.4402
1674,592.134,2.3863
1692,595.134,2.3283
1710,598.134,2.2646
1728,601.134,2.202
1746,604.134,2.1373
1764,607.134,2.0707
1782,610.134,2.0004
1800,613.134,1.9291
1818,616.134,1.8546
1836,619.134,1.7698
1854,622.134,1.6934
1872,625.134,1.604
1890,628.134,1.5186
1908,631.134,1.4222
1926,634.134,1.3253
1944,637.134,1.2172
1962,640.134,1.1185
1980,643.134,1.0148
1998,646.134,0.9256
2016,649.134,0.8503
2034,652.134,0.7898
2052,655.134,0.7486
2070,658.134,0.7261
2088,661.134,0.7144
2106,664.134,0.7077
2124,667.134,0.6997
2142,670.134,0.6911
2160,673.134,0.6875
2178,676.134,0.6813
2196,679.134,0.6751
2214,682.134,0.6693
2232,685.134,0.6627
2250,688.134,0.6574
2268,691.134,0.6521
2286,694.134,0.6462
2304,697.134,0.6416
2322,700.134,0.6352
2340,703.134,0.6291
2358,706.134,0.6237
2376,709.134,0.6187
2394,712.134,0.6142
2412,715.134,0.6079
2430,718.134,0.6038
2448,721.134,0.5965
2466,724.134,0.5936
2484,727.134,0.5888
2502,730.134,0.5844
2520,733.134,0.5796
2538,736.134,0.5746
2556,739.134,0.5677
2574,742.134,0.5641
2592,745.134,0.5581
2610,748.134,0.5534
2628,751.134,0.549
2646,754.134,0.5431
2664,757.134,0.5368
2682,760.134,0.5325
2700,763.134,0.5286
2718,766.134,0.5243
2736,769.134,0.5176
2754,772.134,0.5123
2772,775.134,0.5076
2790,778.134,0.5023
2808,781.134,0.4966
2826,784.134,0.4925
2844,787.134,0.4875
2862,790.134,0.4821
2880,793.134,0.4777
2898,796.134,0.4702
2916,799.134,0.4678
2934,802.134,0.4638
2952,805.134,0.4566
2970,808.134,0.4518
2988,811.134,0.4462
3006,814.134,0.4416
3024,817.134,0.4365
3042,820.134,0.4304
3060,823.134,0.4247
3078,826.134,0.4213
3096,829.134,0.4149
3114,832.134,0.4097
3132,835.134,0.406
3150,838.134,0.4002
3168,841.134,0.3939
3186,844.134,0.3896
3204,847.134,0.3851
3222,850.134,0.3785
3240,853.134,0.375
3258,856.134,0.3699
3276,859.134,0.364
3294,862.134,0.3595
3312,865.134,0.3542
3330,868.134,0.3473
3348,871.134,0.3453
3366,874.134,0.3393
3384,877.134,0.3349
3402,880.134,0.3288
3420,883.134,0.3238
3438,886.134,0.3179
3456,889.134,0.3134
3474,892.134,0.3095
3492,895.134,0.305
3510,898.134,0.2982
3528,901.134,0.2943
3546,904.134,0.2902
3564,907.134,0.2866
3582,910.134,0.2805
3600,913.134,0.2763
3618,916.134,0.2716
3636,919.134,0.2673
3654,922.134,0.2614
3672,925.134,0.256
3690,928.134,0.2521
3708,931.134,0.2487
3726,934.134,0.2448
3744,937.134,0.2411
3762,940.134,0.2361
3780,943.134,0.232
3798,946.134,0.2282
3816,949.134,0.2244
3834,952.134,0.2186
3852,955.134,0.2147
3870,958.134,0.2107
3888,961.134,0.2065
3906,964.134,0.2029
3924,967.134,0.1979
3942,970.134,0.1954
3960,973.134,0.1905
3978,976.134,0.1886
3996,979.134,0.1834
4014,982.134,0.1791
4032,985.134,0.1748
4050,988.134,0.171
4068,991.134,0.1685
4086,994.134,0.1623
4104,997.134,0.1612
4122,1000.134,0.1552
4140,1003.134,0.1531
4158,1006.134,0.149
4176,1009.134,0.1429
4194,1012.134,0.142
4212,1015.134,0.1378
4230,1018.134,0.1349
4248,1021.134,0.133
4266,1024.134,0.1295
4284,1027.134,0.1257
4302,1030.134,0.1221
4320,1033.134,0.1206
4338,1036.134,0.1141
4356,1039.134,0.1117
4374,1042.134,0.1095
4392,1045.134,0.1076
4410,1048.134,0.1041
4428,1051.134,0.1005
4446,1054.134,0.0998
4464,1057.134,0.0932
4482,1060.134,0.0927
4500,1063.134,0.0888
4518,1066.134,0.0846
4536,1069.134,0.0829
4554,1072.134,0.0799
4557,1072.634,0.0799

File: UMET_Wood_TGA_O2-21_10K_R1.csv
Time (s),Temperature (K),Mass (mg)
0,313.14,2.3484
18,316.14,2.3481
36,319.14,2.3476
54,322.14,2.3473
72,325.14,2.3467
90,328.14,2.3467
108,331.14,2.3463
126,334.14,2.3456
144,337.14,2.3445
162,340.14,2.3442
180,343.14,2.3437
198,346.14,2.3434
216,349.14,2.3434
234,352.14,2.3426
252,355.14,2.3422
270,358.14,2.3418
288,361.14,2.3414
306,364.14,2.3409
324,367.14,2.3399
342,370.14,2.3398
360,373.14,2.3396
378,376.14,2.3394
396,379.14,2.3394
414,382.14,2.3389
432,385.14,2.3387
450,388.14,2.3384
468,391.14,2.3383
486,394.14,2.338
504,397.14,2.3376
522,400.14,2.3368
540,403.14,2.3363
558,406.14,2.3353
576,409.14,2.3346
594,412.14,2.3336
612,415.14,2.3329
630,418.14,2.3323
648,421.14,2.3311
666,424.14,2.3298
684,427.14,2.3283
702,430.14,2.3268
720,433.14,2.3253
738,436.14,2.3235
756,439.14,2.3207
774,442.14,2.3174
792,445.14,2.314
810,448.14,2.311
828,451.14,2.3079
846,454.14,2.3046
864,457.14,2.3009
882,460.14,2.2971
900,463.14,2.2936
918,466.14,2.2907
936,469.14,2.287
954,472.14,2.283
972,475.14,2.2792
990,478.14,2.2748
1008,481.14,2.2702
1026,484.14,2.2654
1044,487.14,2.2601
1062,490.14,2.2548
1080,493.14,2.2485
1098,496.14,2.2412
1116,499.14,2.234
1134,502.14,2.2246
1152,505.14,2.2142
1170,508.14,2.2059
1188,511.14,2.1941
1206,514.14,2.1824
1224,517.14,2.1718
1242,520.14,2.1586
1260,523.14,2.1449
1278,526.14,2.1304
1296,529.14,2.1146
1314,532.14,2.0979
1332,535.14,2.0807
1350,538.14,2.0621
1368,541.14,2.043
1386,544.14,2.0224
1404,547.14,2.0007
1422,550.14,1.9779
1440,553.14,1.9526
1458,556.14,1.9268
1476,559.14,1.8984
1494,562.14,1.8688
1512,565.14,1.8369
1530,568.14,1.8027
1548,571.14,1.764
1566,574.14,1.7247
1584,577.14,1.6811
1602,580.14,1.6339
1620,583.14,1.5827
1638,586.14,1.5284
1656,589.14,1.468
1674,592.14,1.3984
1692,595.14,1.313
1710,598.14,1.203
1728,601.14,1.0829
1746,604.14,0.952
1764,607.14,0.8513
1782,610.14,0.7862
1800,613.14,0.7471
1818,616.14,0.7219
1836,619.14,0.7023
1854,622.14,0.6858
1872,625.14,0.6722
1890,628.14,0.659
1908,631.14,0.6466
1926,634.14,0.6351
1944,637.14,0.6234
1962,640.14,0.6121
1980,643.14,0.6012
1998,646.14,0.59
2016,649.14,0.5784
2034,652.14,0.5676
2052,655.14,0.5566
2070,658.14,0.5455
2088,661.14,0.5339
2106,664.14,0.522
2124,667.14,0.5105
2142,670.14,0.4992
2160,673.14,0.4876
2178,676.14,0.475
2196,679.14,0.4622
2214,682.14,0.4491
2232,685.14,0.4359
2250,688.14,0.4224
2268,691.14,0.4076
2286,694.14,0.3928
2304,697.14,0.3775
2322,700.14,0.3614
2340,703.14,0.3443
2358,706.14,0.3276
2376,709.14,0.3107
2394,712.14,0.2941
2412,715.14,0.2762
2430,718.14,0.2581
2448,721.14,0.2386
2466,724.14,0.2188
2484,727.14,0.1982
2502,730.14,0.1763
2520,733.14,0.1519
2538,736.14,0.1278
2556,739.14,0.1014
2574,742.14,0.0723
2592,745.14,0.0419
2610,748.14,0.0217
2628,751.14,0.0151
2646,754.14,0.0126
2664,757.14,0.0117
2682,760.14,0.0115
2700,763.14,0.0115
2718,766.14,0.0112
2736,769.14,0.0112
2754,772.14,0.0106
2772,775.14,0.0109
2790,778.14,0.011
2808,781.14,0.0109
2826,784.14,0.0108
2844,787.14,0.0102
2862,790.14,0.01
2880,793.14,0.0096
2898,796.14,0.0097
2916,799.14,0.0095
2934,802.14,0.0098
2952,805.14,0.0097
2970,808.14,0.0092
2988,811.14,0.0089
3006,814.14,0.0086
3024,817.14,0.0084
3042,820.14,0.0081
3060,823.14,0.0077
3078,826.14,0.0075
3096,829.14,0.0079
3114,832.14,0.0075
3132,835.14,0.008
3150,838.14,0.0069
3168,841.14,0.007
3186,844.14,0.0066
3204,847.14,0.0061
3222,850.14,0.0064
3240,853.14,0.0065
3258,856.14,0.0064
3276,859.14,0.0062
3294,862.14,0.0063
3312,865.14,0.0063
3330,868.14,0.0061
3348,871.14,0.0066
3366,874.14,0.0069
3384,877.14,0.0062
3402,880.14,0.0059
3420,883.14,0.0059
3438,886.14,0.0054
3456,889.14,0.0053
3474,892.14,0.005
3492,895.14,0.0049
3510,898.14,0.0051
3528,901.14,0.0053
3546,904.14,0.0053
3564,907.14,0.0054
3582,910.14,0.0056
3600,913.14,0.0054
3618,916.14,0.0053
3636,919.14,0.0052
3654,922.14,0.0046
3672,925.14,0.0043
3690,928.14,0.0041
3708,931.14,0.0035
3726,934.14,0.0033
3744,937.14,0.0033
3762,940.14,0.0035
3780,943.14,0.0039
3798,946.14,0.004
3816,949.14,0.0036
3834,952.14,0.0024
3852,955.14,0.002
3870,958.14,0.0023
3888,961.14,0.0024
3906,964.14,0.0018
3924,967.14,0.0016
3942,970.14,0.0017
3960,973.14,0.0028
3978,976.14,0.0025
3996,979.14,0.0029
4014,982.14,0.0027
4032,985.14,0.0024
4050,988.14,0.0023
4068,991.14,0.0023
4086,994.14,0.0024
4104,997.14,0.0033
4122,1000.14,0.0035
4140,1003.14,0.0037
4158,1006.14,0.0038
4176,1009.14,0.0037
4194,1012.14,0.003
4212,1015.14,0.0024
4230,1018.14,0.0027
4248,1021.14,0.0011
4266,1024.14,0.0012
4284,1027.14,0.0011
4302,1030.14,0.0008
4320,1033.14,0.0008
4338,1036.14,0.0008
4356,1039.14,0.0008
4374,1042.14,0.0008
4392,1045.14,0.0005
4410,1048.14,0.0006
4428,1051.14,0.0001
4446,1054.14,0.0004
4464,1057.14,0
4482,1060.14,0.0005
4500,1063.14,0.0009
4518,1066.14,0.0009
4536,1069.14,0.0012
4554,1072.14,0.0009
4557,1072.64,0.0009

File: UMET_Wood_TGA_O2-21_10K_R2.csv
Time (s),Temperature (K),Mass (mg)
0,313.14,4.0253
18,316.14,4.0249
36,319.14,4.0249
54,322.14,4.025
72,325.14,4.0241
90,328.14,4.0237
108,331.14,4.0235
126,334.14,4.0231
144,337.14,4.0223
162,340.14,4.0218
180,343.14,4.0214
198,346.14,4.0208
216,349.14,4.0204
234,352.14,4.0209
252,355.14,4.021
270,358.14,4.0204
288,361.14,4.0195
306,364.14,4.0189
324,367.14,4.0177
342,370.14,4.0173
360,373.14,4.017
378,376.14,4.0163
396,379.14,4.0161
414,382.14,4.0151
432,385.14,4.0147
450,388.14,4.014
468,391.14,4.0136
486,394.14,4.0133
504,397.14,4.0125
522,400.14,4.0117
540,403.14,4.0108
558,406.14,4.0099
576,409.14,4.0094
594,412.14,4.0084
612,415.14,4.0079
630,418.14,4.0068
648,421.14,4.0056
666,424.14,4.0043
684,427.14,4.0027
702,430.14,4.0008
720,433.14,3.9984
738,436.14,3.9957
756,439.14,3.993
774,442.14,3.99
792,445.14,3.9865
810,448.14,3.9822
828,451.14,3.9777
846,454.14,3.9721
864,457.14,3.9667
882,460.14,3.961
900,463.14,3.9553
918,466.14,3.9492
936,469.14,3.9418
954,472.14,3.9339
972,475.14,3.9273
990,478.14,3.9208
1008,481.14,3.9131
1026,484.14,3.9059
1044,487.14,3.8972
1062,490.14,3.8883
1080,493.14,3.8789
1098,496.14,3.8678
1116,499.14,3.8564
1134,502.14,3.8425
1152,505.14,3.8286
1170,508.14,3.8136
1188,511.14,3.797
1206,514.14,3.7785
1224,517.14,3.7604
1242,520.14,3.7395
1260,523.14,3.7172
1278,526.14,3.691
1296,529.14,3.6652
1314,532.14,3.6372
1332,535.14,3.6087
1350,538.14,3.5789
1368,541.14,3.5457
1386,544.14,3.5106
1404,547.14,3.4719
1422,550.14,3.4332
1440,553.14,3.3924
1458,556.14,3.3476
1476,559.14,3.2985
1494,562.14,3.2483
1512,565.14,3.1937
1530,568.14,3.1358
1548,571.14,3.0721
1566,574.14,3.0038
1584,577.14,2.9302
1602,580.14,2.8356
1620,583.14,2.7569
1638,586.14,2.6498
1656,589.14,2.5432
1674,592.14,2.4201
1692,595.14,2.2743
1710,598.14,2.098
1728,601.14,1.8843
1746,604.14,1.6597
1764,607.14,1.4816
1782,610.14,1.3861
1800,613.14,1.3244
1818,616.14,1.2811
1836,619.14,1.247
1854,622.14,1.2182
1872,625.14,1.1933
1890,628.14,1.1701
1908,631.14,1.1473
1926,634.14,1.127
1944,637.14,1.1075
1962,640.14,1.0871
1980,643.14,1.067
1998,646.14,1.0473
2016,649.14,1.0282
2034,652.14,1.0082
2052,655.14,0.9878
2070,658.14,0.9684
2088,661.14,0.9482
2106,664.14,0.9276
2124,667.14,0.9074
2142,670.14,0.8878
2160,673.14,0.867
2178,676.14,0.8455
2196,679.14,0.8237
2214,682.14,0.8017
2232,685.14,0.7799
2250,688.14,0.7563
2268,691.14,0.7319
2286,694.14,0.7072
2304,697.14,0.682
2322,700.14,0.6552
2340,703.14,0.6264
2358,706.14,0.5973
2376,709.14,0.5671
2394,712.14,0.5372
2412,715.14,0.5053
2430,718.14,0.4736
2448,721.14,0.4417
2466,724.14,0.4084
2484,727.14,0.3736
2502,730.14,0.336
2520,733.14,0.2963
2538,736.14,0.2553
2556,739.14,0.2105
2574,742.14,0.1603
2592,745.14,0.0307
2610,748.14,0.0155
2628,751.14,0.0134
2646,754.14,0.0121
2664,757.14,0.0118
2682,760.14,0.0115
2700,763.14,0.0115
2718,766.14,0.0112
2736,769.14,0.0109
2754,772.14,0.0106
2772,775.14,0.0104
2790,778.14,0.0103
2808,781.14,0.0103
2826,784.14,0.0101
2844,787.14,0.0099
2862,790.14,0.0096
2880,793.14,0.0095
2898,796.14,0.0092
2916,799.14,0.0092
2934,802.14,0.0091
2952,805.14,0.0087
2970,808.14,0.0086
2988,811.14,0.0085
3006,814.14,0.0081
3024,817.14,0.0079
3042,820.14,0.0073
3060,823.14,0.0071
3078,826.14,0.0063
3096,829.14,0.0065
3114,832.14,0.0061
3132,835.14,0.0059
3150,838.14,0.0051
3168,841.14,0.0053
3186,844.14,0.0054
3204,847.14,0.0054
3222,850.14,0.006
3240,853.14,0.005
3258,856.14,0.0048
3276,859.14,0.0056
3294,862.14,0.006
3312,865.14,0.0059
3330,868.14,0.0058
3348,871.14,0.0056
3366,874.14,0.0061
3384,877.14,0.0059
3402,880.14,0.0054
3420,883.14,0.005
3438,886.14,0.0048
3456,889.14,0.0046
3474,892.14,0.0046
3492,895.14,0.0045
3510,898.14,0.005
3528,901.14,0.0048
3546,904.14,0.0048
3564,907.14,0.0052
3582,910.14,0.0051
3600,913.14,0.0054
3618,916.14,0.0055
3636,919.14,0.0053
3654,922.14,0.0046
3672,925.14,0.0045
3690,928.14,0.0045
3708,931.14,0.0042
3726,934.14,0.0043
3744,937.14,0.0038
3762,940.14,0.0043
3780,943.14,0.0044
3798,946.14,0.0031
3816,949.14,0.0023
3834,952.14,0.0018
3852,955.14,0.0007
3870,958.14,0.0014
3888,961.14,0.0015
3906,964.14,0.0008
3924,967.14,0.0009
3942,970.14,0.0006
3960,973.14,0.0019
3978,976.14,0.002
3996,979.14,0.0023
4014,982.14,0.0022
4032,985.14,0.0014
4050,988.14,0.0018
4068,991.14,0.0018
4086,994.14,0.0011
4104,997.14,0.0013
4122,1000.14,0.0013
4140,1003.14,0.001
4158,1006.14,0.0013
4176,1009.14,0.0012
4194,1012.14,0.0007
4212,1015.14,0.0006
4230,1018.14,0.0006
4248,1021.14,0.001
4266,1024.14,0.0009
4284,1027.14,0.0009
4302,1030.14,0.0007
4320,1033.14,0.0008
4338,1036.14,0.0011
4356,1039.14,0.0013
4374,1042.14,0.0014
4392,1045.14,0.0012
4410,1048.14,0.0011
4428,1051.14,0.001
4446,1054.14,0.0008
4464,1057.14,0.0004
4482,1060.14,0.0006
4500,1063.14,0.0006
4518,1066.14,0.0007
4536,1069.14,0.0004
4554,1072.14,0.0002
4557,1072.64,0.0002