Folder: matl-db/PMMA/Material_Properties

Note: PMMA/Material_Properties/MaCFP_PMMA_BoWFZJ_A.json
{
    "Material": "MaCFP PMMA",

    "Lab": "BoWFZJ",
    
    "Calibration": [
        {
            "Model": "FDS",
            "Method": "PROPTI",
            "Scope": "Kinetics",
            "Data": {
                "Type": "TGA",
                "Heating Rate": [2.5,5,15,20],
                "Source": "LCCP"
            }
        },
        {
            "Model": "FDS",
            "Method": "PROPTI",
            "Scope": [
                "Heat Capcity", 
                "Heat of Pyrolysis",
                "Density",
                "Conductivity",
                "Emissivity"
            ],
            "Data": {
                "Type": "Gasification",
                "Heat Flux": 60,
                "Source": "UMD" 
            }
        }
    ],
            
    "Kinetics": {
        "Number of Reactions": 2,
        "Reaction Network": "Parallel",
        "Pre-exponential": [99996.5, 1.67093e11],
        "Activation Energy": [64117.2, 162715],
        "Reaction Order": [1, 1],
        "Initial Mass Fraction": [0.025, 0.975],
        "Solid Yield": [0.001, 0.001]
    },
    
    "Thermodynamics": {
        "Heat Capacity": {
            "Form": "Component Specific",
            "Value": [1956.52, 1214.9] 
        },
        "Heat of Pyrolysis": {
            "Form": "Single Value", 
            "Value": 403.302e3 
        },
        "Density": {
            "Form": "Component Specific",
            "Value": [1168.49, 1085.97] 
        }
    },
    
    "Transport": {
        "Conductivity": {
            "Form": "Component Specific",
            "Value": [0.116978, 0.2629418] 
        },
        "Mass Diffusivity": {
            "Form": "None"
        },
        "Absorption": {
            "Form": "None"
        },
        "Emissivity": {
            "Form": "Component Specific",
            "Value": [0.768990, 0.407040] 
        }
    }

}

Note: PMMA/Material_Properties/MaCFP_PMMA_BUW-FZJ_B.json
{
    "Material": "MaCFP PMMA",

    "Lab": "BUW-FZJ",
    
    "Calibration": [
        {
            "Model": "FDS",
            "Method": "PROPTI",
            "Scope": [
                "Kinetics",
                "Heat Capcity", 
                "Heat of Pyrolysis",
                "Density",
                "Conductivity",
                "Emissivity"
            ],
            "Data": [
                {
                    "Type": "Gasification",
                    "Heat Flux": [25,60],
                    "Source": "UMD" 
                },
                {
                    "Type": "TGA",
                    "Heating Rate": [2.5,5,15,20],
                    "Source": "LCCP"
                }
            ]
        }
    ],
            
    "Kinetics": {
        "Number of Reactions": 2,
        "Reaction Network": "Parallel",
        "Pre-exponential": [56864.9,6.71256e12],
        "Activation Energy": [56864.9,180974.37],
        "Reaction Order": [1, 1],
        "Initial Mass Fraction": [0.025, 0.975],
        "Solid Yield": [0.001, 0.001]
    },
    
    "Thermodynamics": {
        "Heat Capacity": {
            "Form": "Component Specific",
            "Value": [2201.18,1295.17] 
        },
        "Heat of Pyrolysis": {
            "Form": "Single Value", 
            "Value": 787.891e3 
        },
        "Density": {
            "Form": "Component Specific",
            "Value": [1207.84,842.116] 
        }
    },
    
    "Transport": {
        "Conductivity": {
            "Form": "Component Specific",
            "Value": [0.166161,0.369026] 
        },
        "Mass Diffusivity": {
            "Form": "None"
        },
        "Absorption": {
            "Form": "None"
        },
        "Emissivity": {
            "Form": "Component Specific",
            "Value": [0.989735,0.98859] 
        }
    }

}

Note: PMMA/Material_Properties/MaCFP_PMMA_GIDAZE+.json
{
    "Material": "MaCFP PMMA",

    "Lab": "GIDAZE+",
    
    "Calibration": [
        {
            "Model": "Gpyro",
            "Method": "Trial and Error",
            "Scope": "Kinetics",
            "Data": {
                "Type": "TGA",
                "Heating Rate": [5,10,30],
                "Source": ["Lille","UMET","LCCP","UMD","GIDAZE+","Literature"]
            }
        },
        {
            "Method": "Literature",
            "Scope": [
                "Heat Capacity", 
                "Heat of Pyrolysis",
                "Density",
                "Conductivity",
                "Absorption",
                "Emissivity"
            ]
        }
    ],
            
    "Kinetics": {
        "Number of Reactions": 1,
        "Reaction Network": "None",
        "Pre-exponential": 2.00e8,
        "Activation Energy": 1.3e5,
        "Reaction Order": 1,
        "Initial Mass Fraction": 1,
        "Solid Yield": 0
    },
    
    "Thermodynamics": {
        "Heat Capacity": {
            "Form": "Gpyro Power Law",
            "Base Value": 1200,
            "Exponent": 1.2,
            "Reference Temperature": 300
        },
        "Heat of Pyrolysis": {
            "Form": "Single Value", 
            "Value": 5.4e5
        },
        "Density": {
            "Form": "Single Value",
            "Value": 1210 
        }
    },
    
    "Transport": {
        "Conductivity": {
            "Form": "Gpyro Power Law",
            "Base Value": 0.2,
            "Exponent": -1.2,
            "Reference Temperature": 300
        },
        "Mass Diffusivity": {
            "Form": "None"
        },
        "Absorption": {
            "Form": "Single Value",
            "Value": 2.87e3 
        },
        "Emissivity": {
            "Form": "Single Value",
            "Value": 0.96
        }
    }

}

Note: PMMA/Material_Properties/MaCFP_PMMA_Sandia_4.json
{
    "Material": "MaCFP PMMA",

    "Lab": "Sandia",
    
    "Calibration": [
        {
            "Model": "Sierra",
            "Method": "Gradient Based Optimization",
            "Scope": "Kinetics",
            "Data": {
                "Type": "TGA",
                "Heating Rate": [1, 2, 5, 20, 50],
                "Source": "UMET"
            }
        }
    ],
            
    "Kinetics": {
        "Number of Reactions": 2,
        "Reaction Network": "Series",
        "Pre-exponential": [1340225, 2.42e19],
        "Activation Energy": [82390, 256782],
        "Reaction Order": [1.0, 1.91],
        "Initial Mass Fraction": [1,0],
        "Solid Yield": [0.95, 1.91] 
    }

}

Note: PMMA/Material_Properties/MaCFP_PMMA_Sandia_5.json
{
    "Material": "MaCFP PMMA",

    "Lab": "Sandia",
    
    "Calibration": [
        {
            "Model": "Sierra",
            "Method": "Gradient Based Optimization",
            "Scope": "Kinetics",
            "Data": {
                "Type": "TGA",
                "Heating Rate": [1, 50],
                "Source": "Sandia"
            }
        }
    ],
            
    "Kinetics": {
        "Number of Reactions": 2,
        "Reaction Network": "Parallel",
        "Pre-exponential": [1.78e11, 3.56e24],
        "Activation Energy": [121466, 315616],
        "Reaction Order": [1.0, 3.14],
        "Initial Mass Fraction": [0.09,0.91],
        "Solid Yield": [0.0004, 0.0001] 
    }

}

Note: PMMA/Material_Properties/MaCFP_PMMA_Sandia_6.json
{
    "Material": "MaCFP PMMA",

    "Lab": "Sandia",
    
    "Calibration": [
        {
            "Model": "Sierra",
            "Method": "Gradient Based Optimization",
            "Scope": "Kinetics",
            "Data": {
                "Type": "TGA",
                "Heating Rate": [1, 2, 5, 20, 50],
                "Source": "UMET"
            }
        }
    ],
            
    "Kinetics": {
        "Number of Reactions": 2,
        "Reaction Network": "Parallel",
        "Pre-exponential": [46391, 2.73e19],
        "Activation Energy": [78308, 257315],
        "Reaction Order": [1.0, 1.92],
        "Initial Mass Fraction": [0.05,0.95],
        "Solid Yield": [0.0001, 0.0001] 
    }

}

File: MaCFP_PMMA_Aalto_II.json
{
    "Material": "MaCFP-2 PMMA",

    "Lab": "Aalto",

    "Calibration": [
        {
            "Model": "MATLAB",
            "Method": "Genetic Algorithm",
            "Scope": "Kinetics",
            "Data": {
                "Type": "TGA",
                "Heating Rate": [1,2,5,10,20,50],
                "Source": "Lille"
            }
        },
        {
            "Model": "MATLAB",
            "Method": "Genetic Algorithm",
            "Scope": "Heat of Pyrolysis",
            "Data": {
                "Type": "DSC",
                "Heating Rate": 10,
                "Source": "UMD"
            }
        },
        {
            "Model": "MATLAB",
            "Method": "Genetic Algorithm",
            "Scope": ["Heat Capcity","Conductivity"],
            "Data": {
                "Type": "Gasification",
                "Heat Flux": [25, 50, 65],
                "Source": ["DBI_Lund","Aalto","Technical Institute of Fire protection in prague"]
            }
        },
        {
            "Method": "Direct Measurement",
            "Scope": ["Absorption","Emissivity"],
            "Data": ["UV-Vis", "FTIR"]
        },
        {
            "Method": "Literature",
            "Scope": "Density"
        }
    ],

    "Kinetics": {
        "Number of Reactions": 3,
        "Reaction Network": "Parallel",
        "Pre-exponential": [5.06e-3, 9.24e7, 9.59e11],
        "Activation Energy": [5.66e3, 9.11e4, 1.72e5],
        "Reaction Order": [1, 1, 1],
        "Initial Mass Fraction": [0.013, 0.027, 0.96],
        "Solid Yield": [0, 0, 0]
    },

    "Thermodynamics": {
        "Heat Capacity": {
            "Form": "Linear",
            "Slope": 3.6
            "Intercept": 2.81e2
        },
        "Heat of Pyrolysis": {
            "Form": "Reaction Specific",
            "Value": [2.26e6, 5.0e5, 8.33e5]
        },
        "Density": {
            "Form": "Single Value",
            "Value": 1210
        }
    },

    "Transport": {
        "Conductivity": {
            "Form": "Linear",
            "Slope": -7.06e-5
            "Intercept": 1.90e-1
        },
        "Mass Diffusivity": {
            "Form": "None"
        },
        "Absorption": {
            "Form": "Temprature-function*depth-function",
            "Value": [1.067e-1 -4.942e-3 3.362e-2 1.037e-4 1.560e3 -4.218e-1 -9.680e2]
        },
        "Emissivity": {
            "Form": "Single Value",
            "Value": 0.914
        }
    }

}

File: MaCFP_PMMA_DBI_3.json
{
    "Material": "MaCFP PMMA",

    "Lab": "DBI",

    "Calibration": [
        {
            "Method": "Manual",
            "Scope": "Kinetics",
            "Data": {
                "Type": "TGA",
                "Heating Rate": 20,
                "Source": "DBI_Lund",
                "Filename": "DBILund_TGA_20Kpm_1.csv"
            },
            "Smoothing": "Loess"
        },
        {
            "Method": "Direct Measurement",
            "Scope": "Conductivity",
            "Data": "Heat Flow Meter",
            "Device": "HFM 446 Medium, Netzsch"
        },
        {
            "Method": "Direct Measurement",
            "Scope": ["Heat Capacity","Heat of Pyrolysis"],
            "Data": "STA",
            "Heating Rate": 20,
            "Device": "STA 449 F3 Jupiter, Netzsch"
        },
        {
            "Method": "Direct Measurement",
            "Scope": "Density"
        }
    ],

    "Kinetics": {
        "Number of Reactions": 1,
        "Reaction Network": "None",
        "Pre-exponential": 2.7925e8,
        "Activation Energy": 1.2969e5,
        "Reaction Order": 0.866,
        "Solid Yield": 0
    },

    "Thermodynamics": {
        "Heat Capacity": {
            "Form": "Table",
            "Temperatures": [35, 40, 100, 140],
            "Values": [1800, 1700, 1600, 1400]
        },
        "Heat of Pyrolysis": {
            "Form": "Single Value",
            "Value": 6.3167e5
        },
        "Density": {
            "Form": "Single Value",
            "Value": 1181.5
        }
    },

    "Transport": {
        "Conductivity": {
            "Form": "Table",
            "Temperatures": [19.9, 24.9, 29.8,
                             34.7, 39.6, 44.6,
                             49.5, 54.4, 59.3,
                             64.2],
            "Values": [0.17331, 0.17384, 0.17402,
                      0.17448, 0.17609, 0.17784,
                      0.17862, 0.17821, 0.17775,
                      0.17770]
        },
        "Mass Diffusivity": {
            "Form": "None"
        },
        "Absorption": {
            "Form": "None"
        },
        "Emissivity": {
            "Form": "Single Value",
            "Value": 1.0
        }
    }

}