Folder: matl-db/PMMA/Calibration_Data/Aalto

Note: PMMA/Calibration_Data/Aalto/README.md
# Aalto University

### Test Summary
Standard cone calorimeter and gasification tests were carried out on 100 x 100 x 6 mm slabs of cast black PMMA  in a controlled atmosphere cone calorimeter manufactured by Concept Equipment (UK). Before each test, the temperature of the conical heater element was calibrated such that All tests were carried out under the heat flux of 65 kW/m2.   

Sample back surface temperature was measured with three K-type thermocouples (locations described below). In the cone experiments 1 and 3, and gasification experiment 1, back surface temperatures 2, 2 and 3, respectively, were abandoned due to poor installation of the thermocouple. In the cone calorimeter test 3, back surface temperature 1 signal was not acquired between 24 and 80 seconds due to a thermocouple failure. The thermocouple however resumed correct operation and gave consistent data for the rest of the test, so back surface temperature 1 is assumed as a linear ramp between the available valid measurement points.  

The sample was observed to be entirely consumed in all of the experiments, leading to a zero final mass. The measured load cell signals during the experiments are not fully consistent with the weighed sample masses. The likely reason is that the thermocouples, connected to the sample, caused slight tension to the sample and affected the load cell signal. In the reported experimental data, the initial mass is assumed as the weighed value. The final value might thus be nonzero for the reasons above.



#### Experimental Conditions
* Sample Surface Area: 0.01 m2 (nominal)
* Sample holder dimensions:
    - Square pan otherwise complying with specifications of standard ISO 5660-1, except for a 1 cm hole drilled in a corner next to the handle to allow for the passage of thermocouples below the sample.
    - Retainer frame: None
* Backing Insulation: two layers (each ~1 cm thick) of ceramic wool with a density of 65 kg/m3 as specified in standard ISO 5660-1 [1]; its other thermal properties are not known.
* Thermocouple locations 
    - Sample back surface temperature was measured with three K-type thermocouples. Thermocouples were run between the wool layers to the measurement locations, where they were punctured through the upper wool layer to its top surface. 
    - Back Surface Temperature 1: 15 mm away from center
    - Back Surface Temperature 2: sample center point 
    - Back Surface Temperature 3: 15 mm away from center (opposite direction of TC1)

##### Cone calorimeter
* Extraction flow rate: 24L/s
* Sample chamber doors were closed
* Air intake grilles on the bottom of the chamber were kept open.
* Note: For consistency with datasets submitted by other institutions, cone calorimeter HRR measurements submitted by Aalto have been normalized by sample surface area (nominal) to provide HRR per unit area [kW/m2]


##### Gasification Tests
* Extraction flow rate: 7.7 L/s
* Sample chamber doors were closed
* Air int

File: Aalto_Cone_65kW_1.csv
Time,Mass,HRR,Back Surface Temperature 1,Back Surface Temperature 2,Back Surface Temperature 3
[s],[g],[kW/m2],[K],[K],[K]
0,71.67,0,307,307,306
2,72.14,0,308,307,307
4,72.22,0,308,307,307
6,72.35,0,308,307,307
8,72.38,0,308,307,307
10,72.42,0,308,307,308
12,72.43,217.9,308,307,308
14,72.44,294.3,309,307,308
16,72.38,479.2,309,308,308
18,72.3,557.95,309,308,308
20,71.82,608.4,310,308,309
22,71.57,660,310,308,309
24,70.88,687.9,310,309,309
26,70.57,705.9,311,309,310
28,69.74,716.5,312,309,310
30,69.41,740.5,313,310,311
32,68.76,734,313,311,312
34,68.25,746.2,314,311,313
36,67.9,776.7,315,312,314
38,67.32,794.5,316,313,315
40,66.39,753.5,318,313,316
42,65.64,772.5,320,315,317
44,65.27,793.6,321,316,319
46,64.7,820.1,322,316,319
48,63.94,789.3,324,318,321
50,63.55,790.7,326,319,323
52,62.93,823.2,327,321,325
54,61.98,816.6,329,323,327
56,61.54,790.7,331,324,329
58,60.98,805.6,333,326,332
60,59.95,790.8,336,328,334
62,59.18,746.1,338,330,337
64,59.18,752.4,339,331,337
66,58.22,790.4,341,334,341
68,57.84,774.4,343,335,344
70,56.89,780.6,345,337,346
72,56.51,778.4,348,340,348
74,55.56,774.8,350,343,352
76,55.18,770.6,352,345,354
78,54.23,772.4,355,347,357
80,53.84,811.4,358,351,361
82,52.82,779.7,360,354,363
84,52.38,802.2,362,356,366
86,51.76,798.7,365,360,369
88,51.36,799.6,366,361,370
90,50.36,822.4,368,363,372
92,49.98,786.1,368,365,373
94,49.42,825.4,370,366,374
96,48.32,794.3,371,367,374
98,47.86,804.8,372,368,375
100,46.89,822,375,370,377
102,46.5,785.9,377,371,378
104,45.52,808,379,373,380
106,45.12,777.7,381,375,382
108,44.56,806.8,384,378,383
110,43.45,825.3,386,380,386
112,43.45,836.9,387,381,387
114,42.39,815.4,391,383,389
116,41.9,809,393,386,393
118,40.92,821.5,396,388,395
120,40.51,857.4,398,390,397
122,39.52,810.9,401,393,400
124,39.13,844.6,404,395,402
126,38.11,859.1,406,399,406
128,37.68,866.6,409,400,409
130,36.65,872,412,403,411
132,36.22,872.9,416,405,414
134,35.54,867.3,418,409,417
136,34.51,892,421,412,420
138,34.08,920.9,424,415,423
140,32.94,955,427,418,426
142,32.48,929.5,431,422,431
144,31.41,917.7,434,425,434
146,31.41,936.5,435,426,435
148,30.14,968.2,440,430,440
150,29.66,970,443,433,443
152,28.55,1125.3,446,437,447
154,28.08,974.3,451,442,450
156,26.92,1049.4,455,445,456
158,26.43,1002.75,458,449,460
160,25.25,1001.9,462,452,464
162,24.75,1019.2,468,457,469
164,23.36,1037.9,472,461,473
166,22.84,1055.9,477,466,478
168,21.58,1031,482,470,482
170,21.06,1039.3,488,476,487
172,20.23,1045.1,493,480,493
174,19.72,1067.4,497,484,498
176,18.34,1091.2,510,490,505
178,17.81,1126.6,532,499,513
180,16.53,1092,543,514,522
182,15.98,1181.1,553,523,536
184,14.55,1123.7,563,531,546
186,13.98,1163.8,575,543,556
188,12.57,1209.1,585,549,570
190,11.95,1520.5,596,557,577
192,10.48,1261.6,608,566,588
194,9.75,1254.6,621,574,600
196,8.26,1162.45,648,582,610
198,8.26,1123.5,661,592,623
200,6.75,969.3,686,604,647
202,5.53,778.9,745,655,725
204,4.99,619.8,795,718,788
206,4.4,547.3,869,777,840
208,3.61,474.5,905,830,885
210,3,400,923,882,919
212,3.07,331.9,942,908,948
214,2.51,287.4,965,931,968
216,2.32,248.6,986,957,984
218,2.04,210.1,1022,991,1008
220,1.69,197.4,1091,1023,1023
222,1.55,168.1,1123,1051,1033
224,1.27,140.8,1132,1081,1058
226,1.17,121,1157,1090,1070
228,1.07,100,1164,1092,1075
230,0.91,83.4,1146,1114,1087
232,0.86,71.5,1139,1129,1096
234,0.81,65.5,1096,1127,1111
236,0.76,54.1,1032,1105,1119
238,0.69,46.4,981,1051,1114
240,0.66,39.7,935,1028,1100
242,0.59,36.5,882,1008,1061
244,0.58,33.8,882,997,1030
246,0.53,30.8,878,983,1017
248,0.51,26,867,969,993
250,0.5,26.9,827,962,983
252,0.48,22.6,839,954,972
254,0.47,16.5,813,949,963
256,0.42,17.8,828,947,955
258,0.42,17.9,831,945,953
260,0.42,12.8,817,941,946
262,0.41,13.3,815,937,944
264,0.39,13.9,815,936,941
266,0.39,8.8,823,937,942
268,0.38,9.6,820,936,943
270,0.37,9.2,805,937,936
272,0.37,9.7,811,936,936
274,0.37,3.8,815,936,934
276,0.37,3.7,804,937,932
278,0.36,4.2,805,929,930
280,0.37,3.8,814,929,930
282,0.36,3.4,805,928,931
284,0.36,3.8,818,927,926
286,0.37,3.4,822,927,930
288,0.36,3.5,819,931,926
290,0.36,3.1,830,932,926
292,0.36,3.5,823,934,927
294,0.36,4.3,817,934,927
296,0.37,4.3,808,930,926
298,0.37,11.6,827,932,927
300,0.37,4,830,933,927
302,0.37,3.5,801,932,929
304,0.37,3.8,819,931,923
306,0.36,3.6,818,933,922
308,0.37,2.8,824,934,924
310,0.36,2.4,810,932,925
312,0.36,2,794,931,923
314,0.36,1.2,823,933,922
316,0.37,0.7,821,934,921
318,0.36,0,822,936,919
320,0.37,0,810,937,920
322,0.36,0,807,936,920
324,0.36,0,804,936,921
326,0.37,0,806,934,921
328,0.36,0,809,933,921
330,0.37,0,810,933,921
332,0.37,0,807,937,922
334,0.36,0,812,938,917
336,0.36,0,821,938,918
338,0.36,0,809,937,916
340,0.37,0,787,937,921
342,0.36,0,782,934,921
344,0.36,0,799,933,924
346,0.36,0,810,929,924
348,0.37,0,818,929,925
350,0.36,0,811,932,923
352,0.36,0,785,934,923
354,0.37,0,805,934,919
356,0.36,0,816,935,914
358,0.36,5.6,811,934,920
360,0.37,0,817,932,923
362,0.38,0,826,931,924
364,0.37,0,828,930,923
366,0.35,0.4,831,932,922
368,0.36,0.8,836,933,919
370,0.37,0.4,828,935,920
372,0.37,0.4,834,936,919
374,0.37,0,821,936,919
376,0.37,0,825,935,919
378,0.37,0,795,936,919
380,0.37,0,787,937,918
382,0.37,0,813,937,921
384,0.37,0,812,935,921
386,0.38,0,815,934,920
388,0.37,0,807,934,924
390,0.38,0,804,935,923
392,0.38,0,791,935,921
394,0.37,0,801,934,921
396,0.37,0,807,934,922
398,0.37,0,803,937,919
400,0.37,0,796,938,918
402,0.38,0,805,937,922
404,0.38,0,806,935,924
406,0.37,0,804,932,926
408,0.37,0,797,933,927
410,0.37,0,807,932,927
412,0.38,0,812,933,924
414,0.37,0.4,807,934,923
416,0.37,0,809,934,924
418,0.36,0.8,821,933,924
420,0.36,0.8,823,933,924
422,0.37,0.8,816,936,923
424,0.37,0.8,817,935,924
426,0.37,0.8,801,932,924
428,0.37,0.8,801,935,921
430,0.36,0.4,814,936,920
432,0.37,0.4,806,935,920
434,0.37,0,819,934,923
436,0.37,0,820,936,922
438,0.37,0,820,937,921
440,0.38,0,823,937,921
442,0.37,0,819,935,923
444,0.37,0,811,936,921
446,0.38,0,817,937,920
448,0.38,0,826,937,920
450,0.38,0,822,937,919
452,0.38,0,821,935,921
454,0.38,0,824,935,921
456,0.38,0,810,936,918
458,0.39,0,820,938,918
460,0.39,0,840,938,917
462,0.38,0,842,938,916
464,0.39,0,813,935,920
466,0.37,0,802,935,922
468,0.38,0,805,936,923
470,0.38,0,803,934,920
472,0.37,0,810,934,922
474,0.35,0,810,935,922
476,0.36,0,795,937,922
478,0.36,5.3,806,938,921
480,0.36,0,809,939,920
482,0.36,0,823,938,922
484,0.36,0,819,937,922
486,0.35,0,827,935,919
488,0.36,0,815,938,921
490,0.36,0,812,938,921
492,0.36,0,812,938,918
494,0.36,0,812,939,918
496,0.36,0,819,937,920
498,0.37,0,823,939,921
500,0.36,0,815,939,920
502,0.37,0,814,940,920
504,0.37,0,810,939,920
506,0.36,0,816,940,921
508,0.37,0,824,938,923
510,0.37,0,814,938,923
512,0.38,0,817,939,922
514,0.37,0,801,939,922
516,0.38,0,793,936,922
518,0.37,0,820,936,922
520,0.37,0,797,933,922
521,0.38,0,801,933,921

File: Aalto_Cone_65kW_2.csv
Time,Mass,HRR,Back Surface Temperature 1,Back Surface Temperature 3
[s],[g],[kW/m2],[K],[K]
0,71.76,0,299,298
2,72.73,0,300,298
4,72.8,0,300,298
6,75.04,0,300,298
8,75.68,0,300,298
10,76.48,0,300,299
12,76.5,58.8,300,299
14,76.36,201.2,300,299
16,76.35,468.7,300,299
18,76.2,463,300,299
20,75.91,567,300,299
22,75.15,599.8,301,299
24,74.77,620.9,301,299
26,73.68,663.8,302,300
28,73.23,692.4,302,300
30,72.53,726.5,302,300
32,71.09,873,303,301
34,70.6,765.4,304,301
36,69.83,768.2,305,302
38,69.19,766.4,305,302
40,67.92,784.5,306,303
42,67.41,763,307,304
44,66.23,761.7,308,305
46,65.31,775.9,309,306
48,64.86,789.1,311,307
50,63.8,800,312,308
52,63.29,844.8,314,309
54,62.82,787,315,310
56,61.86,781.7,316,311
58,61.45,794.7,318,313
60,60.34,763.4,321,314
62,59.97,768.5,323,316
64,58.95,780.5,325,318
66,58.52,737.6,327,319
68,57.84,757.9,330,321
70,57.43,738.9,332,324
72,56.82,763.6,334,326
74,56.82,753.5,337,326
76,55.82,759.1,340,329
78,55.39,772.9,342,331
80,54.37,778.7,346,333
82,54.16,805.9,349,336
84,53.13,760,352,338
86,52.74,798.2,354,341
88,51.82,777.7,359,342
90,51.39,777.4,361,346
92,50.54,787.8,362,348
94,50.14,815.8,362,350
96,49.19,768.1,363,352
98,49.19,762.8,363,353
100,48.1,749.8,364,354
102,47.72,775.5,365,356
104,46.79,774.2,367,358
106,46.34,787.3,369,360
108,45.28,780.6,371,362
110,44.85,811.9,373,364
112,43.77,788.5,375,367
114,43.39,808,377,369
116,42.73,824.6,381,371
118,41.65,813.3,383,374
120,41.17,828.3,385,376
122,40.16,825.6,388,378
124,39.75,791.9,391,381
126,38.61,834.5,393,384
128,38.61,858.6,395,385
130,37.54,855.7,397,387
132,37.03,815.2,401,390
134,35.93,841.2,404,392
136,35.52,849.8,407,396
138,34.49,853.9,409,399
140,34,881.7,412,402
142,33.25,883.5,416,405
144,32.12,936.4,419,409
146,31.69,944.5,422,412
148,30.61,918.3,425,415
150,30.11,939.3,429,417
152,28.96,1169.1,433,422
154,28.54,969,436,425
156,27.41,991.8,440,428
158,26.82,980.5,443,432
160,25.57,984.2,447,435
162,25.15,1004.2,453,439
164,24.74,979.5,457,444
166,23.59,1004.1,460,449
168,23.07,1006.8,467,453
170,21.83,1005.1,472,459
172,21.35,1041.1,476,464
174,20.56,1039.2,480,468
176,19.75,1025.9,491,475
178,18.71,1084.9,500,485
180,18.07,1068.1,523,493
182,17,1122.9,532,501
184,16.28,1166.4,546,510
186,14.88,1312.7,555,522
188,14.47,1162.3,562,532
190,13.1,1273.6,570,541
192,12.4,1263.4,578,550
194,10.73,1214.8,592,560
196,10.21,1252.5,601,576
198,9.08,1197.7,619,587
200,8.36,1046,641,599
202,7.08,887.7,687,612
204,6.59,769.2,739,644
206,5.88,637.7,791,696
208,6.12,622.6,836,734
210,5.88,471.7,871,810
212,5.13,425,899,847
214,4.79,374.2,933,879
216,4.08,320.3,943,923
218,3.82,281.5,962,949
220,3.51,248.1,986,967
222,3.37,221.6,1002,992
224,2.71,185.7,1046,997
226,2.58,154.5,1060,1015
228,2.32,133.3,1072,1030
230,1.97,116.4,1084,1032
232,1.35,102.3,1092,1041
234,1.18,85.8,1108,1046
236,1.09,74.6,1099,1055
238,1.02,64.6,1018,1056
240,0.97,58.7,997,1064
242,0.89,55,997,1078
244,0.9,48.5,970,1085
246,0.85,45.4,962,1099
248,0.84,35,948,1123
250,0.73,30,939,1137
252,0.64,25.1,941,1139
254,0.58,20.1,927,1097
256,0.58,15.1,919,1053
258,0.47,15.8,919,1028
260,0.37,11.5,920,1012
262,0.34,12,919,997
264,0.25,7.6,919,983
266,0.3,8,921,974
268,0.2,7.3,914,968
270,0.19,3.3,900,963
272,0.25,3.3,904,955
274,0.2,3.8,907,950
276,0.14,3.8,899,947
278,0.26,4.3,906,946
280,0.29,3,904,944
282,0.42,0,909,941
284,0.46,0,908,936
286,0.51,0,910,936
288,0.54,0,902,936
290,0.55,0,905,938
292,0.56,0,907,935
294,0.52,0,906,933
296,0.6,0,905,928
298,0.62,0,906,928
300,0.66,0,910,926
302,0.73,0,896,927
304,0.81,0,900,928
306,0.8,0,892,928
308,0.8,0,887,925
310,0.84,0,894,927
312,0.95,0,891,927
314,0.83,0,887,922
316,0.98,0,886,926
318,1,0,893,926
320,1.01,0,889,929
322,1.01,0,886,927
324,1.04,0,899,926
326,1.09,0,895,925
328,1.15,0,895,925
330,1.17,0,896,923
332,1.16,0,903,923
334,1.19,0,898,922
336,1.24,6.2,899,922
338,1.37,0,893,921
340,1.36,0,894,921
342,1.32,0,896,923
344,1.37,0,892,921
346,1.39,0,900,918
348,0.86,0,896,916
350,0.88,0,893,914
352,0.82,0,890,917
354,0.87,0,895,919
356,0.83,0,892,918
358,0.86,0,895,920
360,0.91,0,897,922
362,0.94,0,888,918
364,0.92,0,889,921
366,0.94,0,891,919
368,0.97,0,890,917
370,0.98,0,891,920
372,1.03,0,895,919
374,1.02,0,893,920
376,1,0,889,920
378,0.95,0,897,922
380,0.89,0,895,925
382,0.9,0,893,922
384,0.92,0,892,919
386,0.92,0,895,920
388,1,0,900,923
390,1,0,902,922
392,1.04,0,897,921
394,0.94,0,896,921
396,0.99,0,899,920
398,0.93,0,896,917
400,0.88,6.2,894,918
402,0.95,0,895,916
404,0.97,0,894,914
406,0.91,0,895,915
408,0.97,0,896,918
410,0.87,0,895,916
412,0.86,0,890,917
414,0.8,0,884,916
416,0.84,0,887,918
418,0.77,0,891,920
420,0.72,0,891,920
422,0.72,0,895,919
424,0.74,0,891,920
426,0.7,0,888,921
428,0.7,0,894,923
430,0.77,0,887,923
432,0.75,0,892,924
434,0.76,0,889,926
436,0.67,0,893,926
438,0.67,0,890,925
440,0.73,0,887,926
442,0.66,0,894,925
444,0.59,0,902,927
446,0.66,0,904,927
448,0.68,0,900,922
450,0.68,0,899,922
452,0.7,0,902,919
454,0.58,0,900,919
456,0.64,0,902,918
458,0.75,0,898,919
460,0.75,0,895,919
462,0.75,0,890,920
464,0.7,0,895,916
466,0.66,0,897,920
468,0.67,0,898,918
470,0.56,0,898,920
472,0.61,0,896,920
474,0.61,0,894,920
476,0.69,0,900,921
478,0.81,0,900,922
480,0.61,0,891,922
482,0.58,0,890,926
484,0.47,0,892,924
486,0.49,0,889,923
488,0.55,0,890,922
490,0.47,0,887,923
492,0.57,0,885,926
494,0.61,0,885,921
496,0.61,0,886,921
498,0.49,0,891,919
500,0.52,0,896,917
502,0.49,0,899,921
504,0.54,0,896,920
506,0.51,0,895,920
508,0.51,0,897,922
510,0.49,0,897,920
512,0.47,0,900,921
514,0.4,0,891,921
516,0.44,0,892,922
518,0.49,0,894,921
520,0.45,0,894,923
521,0.45,0,894,924

File: Aalto_Cone_65kW_3.csv
Time,Mass,HRR,Back Surface Temperature 1,Back Surface Temperature 3
[s],[g],[kW/m2],[K],[K]
0,72.88,0,304,303
2,72.76,0.5,304,304
4,72.78,0.9,304,304
6,72.94,0,305,304
8,72.94,1.3,305,305
10,72.93,0,305,305
12,72.93,29.5,305,305
14,72.81,159.3,306,305
16,72.75,289.6,306,305
18,72.43,438.8,306,306
20,72.24,543.6,306,306
22,71.52,616.5,306,306
24,71.18,652.9,308,307
26,70.25,668.3,309,308
28,70.08,706.4,311,309
30,69.29,707.7,313,309
32,68.92,733.7,314,311
34,68,762.7,316,312
36,67.59,777.3,318,313
38,67,775.1,319,315
40,65.94,745.5,321,317
42,65.54,765,323,318
44,64.47,793.4,324,320
46,64.06,795.3,326,323
48,63.05,826.2,328,325
50,62.63,792.5,329,327
52,62.04,804.3,331,329
54,61.56,793.9,332,331
56,60.58,762.3,334,333
58,60.15,779.8,336,336
60,59.19,804.6,337,338
62,58.78,786.8,339,342
64,57.71,763.1,341,344
66,57.28,769.3,342,347
68,56.24,758.6,344,350
70,55.83,886.3,346,352
72,54.76,777,347,355
74,54.76,758.8,349,357
76,53.68,774.5,351,360
78,53.25,801.8,352,362
80,52.24,783.3,353,366
82,51.81,774,353,368
84,50.79,760.4,356,370
86,50.39,796.4,358,374
88,49.41,781.9,360,376
90,48.99,788,363,379
92,48.54,781.6,364,381
94,47.79,792.7,363,384
96,47.46,812.3,364,386
98,46.46,786.4,366,388
100,46.03,789,368,388
102,45.38,788.7,369,389
104,44.38,826.9,371,390
106,43.96,923,373,391
108,42.97,789.1,376,393
110,42.48,824.5,378,396
112,41.5,815.3,380,398
114,41.09,976,382,400
116,40.5,824.9,386,402
118,39.35,829.1,388,406
120,38.94,816.3,390,408
122,37.95,847.6,393,410
124,37.52,841.4,396,413
126,36.91,843.2,398,416
128,36.43,855.1,401,417
130,35.61,853.9,404,421
132,34.49,869.6,406,424
134,34.07,862.3,409,427
136,33.56,864.7,412,429
138,32.95,864.1,415,432
140,31.83,871.2,418,435
142,31.37,867,421,438
144,30.31,875.6,424,441
146,29.87,931.7,427,445
148,28.7,939.1,431,448
150,28.24,975.1,435,451
152,27.13,954,439,455
154,26.64,1097,442,460
156,25.91,994.8,446,464
158,24.82,985.5,450,467
160,24.36,986.4,455,471
162,23.16,998.3,458,475
164,22.67,982.9,462,481
166,21.42,995.9,467,486
168,20.84,1012.1,473,490
170,19.56,1032.8,478,496
172,19.06,991.4,483,501
174,18.23,1017.9,487,505
176,17.45,1074.8,491,509
178,16.24,1068.7,502,516
180,15.72,1114.6,513,533
182,14.39,1067.6,524,550
184,14.42,1089.9,354,566
186,14.09,1118.3,541,580
188,12.7,1166.8,550,590
190,12.09,1229.6,559,600
192,10.57,1300.9,576,610
194,9.97,1293.7,583,624
196,8.61,1222.5,594,634
198,7.96,1242.5,607,645
200,7,1237,627,653
202,5.45,1099.4,649,685
204,5.16,902,676,719
206,3.71,766.3,727,767
208,3.21,675.3,815,829
210,2.49,562.3,854,902
212,1.68,483,896,941
214,1.36,430.2,927,973
216,0.71,353.1,949,993
218,0.5,311.3,976,1016
220,0,270.8,990,1027
222,-0.12,230.3,1004,1045
224,-0.46,239.2,1020,1064
226,-0.58,184.2,1058,1101
228,-0.82,153.5,1068,1140
230,-0.91,140.4,1086,1147
232,-0.98,121.9,1113,1149
234,-1.16,105.1,1122,1177
236,-1.19,94.2,1114,1180
238,-1.27,80.2,1091,1217
240,-1.39,63.1,1074,1150
242,-1.43,58.2,1061,1039
244,-1.48,51.4,1027,1010
246,-1.51,44.3,1000,909
248,-1.61,42.8,988,887
250,-1.64,37.1,971,883
252,-1.65,31.9,962,878
254,-1.69,26.1,958,846
256,-1.74,26.8,945,836
258,-1.76,19.1,936,833
260,-1.78,19.5,928,831
262,-1.79,20.2,925,837
264,-1.8,15.2,919,825
266,-1.83,15.9,919,806
268,-1.83,14.9,924,811
270,-1.81,25.8,915,807
272,-1.82,14.3,911,811
274,-1.83,14,905,797
276,-1.83,13.7,895,812
278,-1.85,13.7,893,842
280,-1.85,13.4,884,835
282,-1.84,13.1,877,819
284,-1.85,12.2,883,840
286,-1.83,6.6,888,841
288,-1.84,7.5,885,860
290,-1.84,7.3,895,846
292,-1.85,6.6,901,844
294,-1.84,5.9,899,833
296,-1.86,5.9,902,841
298,-1.87,5.1,896,824
300,-1.86,4.4,887,839
302,-1.85,4,877,849
304,-1.85,4.4,882,850
306,-1.84,3.6,892,843
308,-1.86,3.2,899,845
310,-1.85,2.4,894,849
312,-1.83,1.6,898,851
314,-1.88,1.2,894,854
316,-1.87,0.7,895,854
318,-1.84,0.3,891,845
320,-1.84,1.2,897,855
322,-1.83,1.2,894,842
324,-1.81,0.8,893,840
326,-1.75,1.2,898,852
328,-1.75,1.6,899,858
330,-1.77,1.6,894,862
332,-1.77,1.6,891,861
334,-1.78,2,891,857
336,-1.81,2,883,854
338,-1.8,2,888,839
340,-1.78,2,884,845
342,-1.81,2,882,853
344,-1.84,2,889,833
346,-1.82,1.6,886,838
348,-1.82,1.2,891,840
350,-1.82,0.4,894,831
352,-1.84,0,887,838
354,-1.86,0,886,843
356,-1.88,0,896,844
358,-1.88,0,892,825
360,-1.9,0,890,849
362,-1.89,0,894,857
364,-1.88,0,894,838
366,-1.91,0,890,844
368,-1.88,0,894,842
370,-1.9,5.3,886,849
372,-1.9,0,893,853
374,-1.9,0,893,852
376,-1.91,0,887,845
378,-1.93,0,895,846
380,-1.95,0,901,852
382,-1.92,0,901,849
384,-1.94,0,893,852
386,-1.95,0,891,846
388,-1.95,0,886,851
390,-1.92,0,888,844
392,-1.91,0.4,887,854
394,-1.96,0.8,881,852
396,-1.98,0.8,889,849
398,-1.97,0.8,891,848
400,-1.96,0.4,898,835
402,-1.97,0,897,837
404,-2,0,897,829
406,-1.98,0,894,832
408,-2.01,0,902,836
410,-2.04,0,889,831
412,-2.07,5.3,886,850
414,-2.06,0,893,841
416,-2.05,0,887,847
418,-2.06,0,886,835
420,-2.03,0,893,851
422,-2.02,0,895,851
424,-2.06,0,895,853
426,-2.04,0,890,852
428,-2.06,0,883,851
430,-2.03,0,889,843
432,-2.06,0,893,835
434,-2.09,0,891,845
436,-2.08,0,898,839
438,-2.1,0,901,846
440,-2.09,0,901,857
442,-2.11,0,903,857
444,-2.1,0,898,857
446,-2.11,0,887,845
448,-2.09,0.8,882,857
450,-2.1,0.8,876,856
452,-2.06,0.8,879,858
454,-2.09,0.8,890,853
456,-2.06,0,889,851
458,-2.09,0,889,843
460,-2.09,0,893,849
462,-2.07,0,895,844
464,-2.08,0,892,835
466,-2.1,0,901,846
468,-2.11,0,897,848
470,-2.06,0,898,851
472,-2.06,0,886,852
474,-2.07,0,892,855
476,-2.07,0,887,865
478,-2.05,0,892,852
480,-2.07,0,891,830
482,-2.1,0,891,840
484,-2.1,0,898,817
486,-2.1,0,902,837
488,-2.11,0,896,855
490,-2.09,0,886,840
492,-2.09,0,895,847
494,-2.06,0,898,845
496,-2.03,0,896,850
498,-2.09,0.4,902,835
500,-2.07,0.9,897,858
502,-2.08,0.9,897,844
504,-2.06,6.2,883,858
506,-2.07,0.9,884,861
508,-2.03,0.4,881,854
510,-2.02,0,887,851
511,-2.02,0,894,852

File: Aalto_Gasification_65kW_1.csv
Time,Mass,Back Surface Temperature 1,Back Surface Temperature 2
[s],[g],[K],[K]
0,67.02,318,320
2,68.9,318,320
4,69.3,318,320
6,70.03,318,320
8,70.2,318,320
10,70.54,318,320
12,70.66,318,321
14,70.81,318,321
16,70.9,318,321
18,71.03,319,321
20,71.07,319,321
22,71.05,319,321
24,70.97,319,321
26,70.8,320,322
28,70.42,320,322
30,70.26,320,323
32,69.96,321,323
34,69.46,321,324
36,69.25,322,325
38,68.71,322,325
40,68.48,323,326
42,68.11,324,327
44,67.87,324,328
46,67.51,325,329
48,66.84,326,330
50,66.58,327,331
52,65.88,328,333
54,65.56,330,335
56,65.05,331,336
58,64.77,331,337
60,64.36,332,338
62,63.63,334,340
64,63.35,335,342
66,62.67,337,344
68,62.38,338,345
70,61.64,339,347
72,61.35,341,350
74,60.9,343,352
76,60.2,344,353
78,59.92,346,355
80,59.14,348,357
82,58.84,349,360
84,58.15,351,362
86,57.92,353,363
88,57.23,354,365
90,56.95,356,366
92,56.56,358,369
94,55.83,360,370
96,55.53,361,371
98,55.18,362,372
100,54.71,364,374
102,53.89,366,376
104,53.53,367,377
106,53.11,369,379
108,52.33,370,381
110,52.03,373,383
112,51.25,375,385
114,50.89,376,387
116,50.16,378,388
118,49.86,380,391
120,49.43,382,393
122,48.63,384,394
124,48.33,386,396
126,47.58,388,399
128,47.26,390,401
130,46.95,391,403
132,46.31,393,404
134,45.51,395,406
136,45.2,398,409
138,44.43,400,411
140,44.11,402,413
142,43.33,404,416
144,43.01,406,418
146,42.22,408,420
148,42.22,410,421
150,41.45,412,424
152,40.77,414,426
154,40.44,417,430
156,39.65,420,432
158,39.32,422,434
160,38.52,424,436
162,38.17,426,439
164,37.31,429,441
166,36.97,432,444
168,36.14,434,447
170,35.79,436,449
172,35.25,439,452
174,34.39,441,454
176,34.04,445,457
178,33.15,447,461
180,32.8,449,464
182,31.94,452,467
184,31.57,455,469
186,30.98,459,473
188,30.02,462,476
190,29.64,465,479
192,29.1,467,482
194,28.11,472,487
196,27.73,474,490
198,26.73,478,493
200,26.73,479,495
202,25.78,483,499
204,25.4,487,505
206,24.45,493,510
208,24.07,497,518
210,23.11,501,525
212,22.71,506,533
214,21.75,509,541
216,21.35,515,545
218,20.36,520,553
220,19.94,525,558
222,19.29,530,563
224,18.28,534,568
226,17.78,542,573
228,16.73,547,580
230,16.29,553,585
232,15.22,559,590
234,14.79,564,596
236,13.72,572,603
238,13.27,578,613
240,12.18,584,617
242,11.72,591,625
244,10.57,599,635
246,10.14,616,653
248,9.18,638,694
250,8.82,663,726
252,8.32,688,758
254,7.62,721,787
256,7.4,748,818
258,6.89,775,835
260,6.68,798,843
262,6.43,816,829
264,6.01,830,828
266,5.82,847,834
268,5.46,856,837
270,5.28,864,848
272,5.13,872,850
274,4.84,879,855
276,4.73,886,860
278,4.58,895,872
280,4.3,899,880
282,4.2,903,878
284,4.11,908,889
286,3.91,911,888
288,3.71,916,890
290,3.64,922,896
292,3.53,927,903
294,3.37,929,896
296,3.3,933,900
298,3.17,936,908
300,3.12,940,910
302,3.05,942,906
304,2.93,944,913
306,2.88,947,923
308,2.84,949,924
310,2.77,950,915
312,2.67,952,912
314,2.63,955,909
316,2.55,956,916
318,2.51,957,912
320,2.48,958,916
322,2.41,961,915
324,2.38,962,915
326,2.34,963,911
328,2.27,964,915
330,2.25,966,913
332,2.19,967,917
334,2.17,968,917
336,2.14,969,909
338,2.08,969,915
340,2.07,971,919
342,2.03,973,920
344,2.01,973,919
346,1.98,975,930
348,1.94,975,920
350,1.93,976,911
352,1.9,975,911
354,1.88,974,916
356,1.84,974,911
358,1.83,975,911
360,1.83,976,921
362,1.81,977,919
364,1.77,976,913
366,1.76,976,920
368,1.74,977,922
370,1.71,978,922
372,1.69,978,922
374,1.68,978,931
376,1.65,977,921
378,1.65,977,915
380,1.63,976,921
382,1.62,975,918
384,1.59,974,920
386,1.58,974,914
388,1.56,975,914
390,1.54,974,917
392,1.52,974,917
394,1.52,972,911
396,1.49,972,908
398,1.47,971,919
400,1.47,969,906
402,1.46,967,902
404,1.45,966,908
406,1.43,966,915
408,1.41,966,920
410,1.4,965,914
412,1.39,964,913
414,1.38,963,908
416,1.37,959,901
418,1.36,958,908
420,1.35,958,906
422,1.34,957,906
424,1.34,957,906
426,1.33,957,906
428,1.31,957,904
430,1.31,956,908
432,1.3,955,901
434,1.29,953,896
436,1.29,953,899
438,1.27,952,906
440,1.27,951,906
442,1.27,952,910
444,1.26,950,909
446,1.25,949.5,906
448,1.26,948,906
450,1.24,948,912
452,1.23,947,905
454,1.23,945,903
456,1.22,945,904
458,1.21,945,910
460,1.22,946,906
462,1.21,945,903
464,1.21,944,905
466,1.21,943,900
468,1.21,942,897
470,1.2,942,899
472,1.2,941,901
474,1.19,940,905
476,1.19,940,903
478,1.19,940,904
480,1.2,940,901
482,1.2,940,901
484,1.19,940,903
486,1.19,940,903
488,1.19,940,905
490,1.19,939,910
492,1.19,939,907
494,1.18,938,899
496,1.18,938,901
498,1.18,937,899
500,1.18,937,898
502,1.18,937,895
504,1.18,936,891
506,1.18,935,892