Folder: matl-db/PMMA/Calibration_Data/Aalto (part 2)

File: Aalto_Gasification_65kW_2.csv
Time,Mass,Back Surface Temperature 1,Back Surface Temperature 2,Back Surface Temperature 3
[s],[g],[K],[K],[K]
0,73.89,327,327,328
2,72.93,328,328,328
4,72.9,328,328,328
6,72.75,328,328,328
8,72.68,328,328,328
10,72.51,328,328,329
12,72.45,328,328,329
14,72.31,328,328,329
16,72.26,328,329,329
18,72.16,329,329,329
20,72.09,329,329,329
22,71.81,329,329,329
24,71.63,329,329,330
26,71.16,330,330,330
28,70.96,330,330,331
30,70.43,330,330,331
32,70.2,331,331,331
34,69.62,332,331,332
36,69.37,332,332,333
38,68.96,333,333,333
40,68.66,334,333,334
42,68.23,334,335,334
44,67.51,335,336,335
46,67.24,337,336,336
48,66.51,338,338,338
50,66.22,339,339,338
52,65.74,340,340,339
54,65.44,340,341,340
56,64.72,342,342,341
58,64.43,344,344,342
60,63.94,345,346,344
62,63.16,346,347,345
64,62.8,347,348,347
66,62.32,350,350,348
68,61.58,351,352,350
70,61.28,353,354,351
72,60.49,354,356,353
74,60.17,357,358,355
76,59.72,359,361,358
78,58.85,360,363,360
80,58.53,362,365,362
82,57.72,365,367,363
84,57.72,366,369,365
86,57,368,370,367
88,56.64,369,372,368
90,56.17,371,374,369
92,55.43,372,375,371
94,55.12,373,375,372
96,54.36,374,376,372
98,53.98,375,377,373
100,53.24,376,378,374
102,52.93,378,379,375
104,52.48,380,381,377
106,51.68,381,382,378
108,51.36,383,383,379
110,50.61,385,385,381
112,50.29,386,387,383
114,49.47,388,389,384
116,49.16,389,390,386
118,48.72,391,392,387
120,47.91,394,393,389
122,47.59,395,395,390
124,47.21,396,396,391
126,46.45,398,398,393
128,46.14,400,400,394
130,45.62,402,402,397
132,44.8,404,404,398
134,44.44,406,406,400
136,43.94,408,407,402
138,43.14,410,410,404
140,42.81,412,412,406
142,41.96,414,413,407
144,41.64,416,415,409
146,41.26,417,417,410
148,40.74,419,418,412
150,39.96,421,420,414
152,39.62,423,422,416
154,39.06,426,425,418
156,38.2,428,427,420
158,37.86,431,430,423
160,36.99,433,432,425
162,36.65,435,434,426
164,35.77,437,436,428
166,35.43,440,438,431
168,34.89,443,441,433
170,33.96,445,443,436
172,33.41,448,446,437
174,33,450,448,439
176,32.44,453,450,441
178,32.03,455,453,443
180,31.17,457,455,446
182,30.81,460,457,448
184,30.29,464,460,450
186,29.32,466,463,452
188,28.87,468,465,456
190,28.33,471,468,458
192,27.34,474,471,460
194,26.89,478,475,462
196,26.27,481,477,466
198,25.29,484,480,469
200,24.88,487,483,471
202,23.89,492,486,474
204,23.47,494,491,478
206,22.41,498,494,481
208,21.99,502,496,484
210,21.34,509,500,486
212,20.35,515,505,489
214,19.86,521,509,494
216,19.21,528,513,497
218,18.11,537,518,501
220,18.11,543,524,502
222,16.98,551,531,508
224,16.47,558,538,511
226,15.41,570,547,514
228,14.97,577,556,521
230,13.87,583,561,525
232,13.43,588,565,530
234,12.32,593,569,535
236,11.86,599,575,541
238,10.74,604,579,548
240,10.27,609,584,552
242,9.54,614,590,556
244,8.41,623,596,560
246,7.94,629,605,567
248,6.81,635,611,574
250,6.34,646,618,581
252,5.28,663,625,588
254,4.85,684,635,596
256,3.87,715,669,604
258,3.53,765,700,616
260,2.79,820,745,630
262,2.79,860,764,646
264,2.04,885,814,704
266,1.81,898,831,740
268,1.29,905,840,772
270,1.09,901,840,808
272,0.81,902,854,825
274,0.41,907,853,835
276,0.26,919,866,848
278,-0.12,920,870,858
280,-0.24,921,872,868
282,-0.44,931,881,875
284,-0.56,942,900,885
286,-0.77,944,906,894
288,-1,946,899,898
290,-1.09,943,896,903
292,-1.29,950,903,908
294,-1.38,959,912,913
296,-1.53,958,911,917
298,-1.6,952,913,919
300,-1.7,947,917,923
302,-1.83,953,915,924
304,-1.88,962,919,925
306,-2,965,919,928
308,-2.04,957,919,931
310,-2.14,955,915,931
312,-2.18,961,916,932
314,-2.24,964,920,935
316,-2.34,960,919,938
318,-2.38,946,914,938
320,-2.42,954,922,939
322,-2.5,955,922,941
324,-2.52,948,918,943
326,-2.59,954,925,944
328,-2.61,951,928,946
330,-2.67,948,928,947
332,-2.69,945,928,949
334,-2.73,947,928,951
336,-2.75,945,926,952
338,-2.81,943,924,952
340,-2.83,933,919,954
342,-2.87,927,922,953
344,-2.89,933,918,951
346,-2.92,948,916,947
348,-2.96,949,921,948
350,-2.98,947,925,947
352,-3.01,938,917,947
354,-3.02,928,914,947
356,-3.06,929,915,946
358,-3.07,942,915,942
360,-3.09,942,915,942
362,-3.13,943,920,944
364,-3.14,943,922,942
366,-3.18,927,916,937
368,-3.19,919,911,935
370,-3.21,922,909,933
372,-3.23,918,912,933
374,-3.24,920,910,930
376,-3.25,929,913,932
378,-3.29,925,906,930
380,-3.3,924,912,931
382,-3.32,914,910,933
384,-3.33,923,914,928
386,-3.36,926,916,927
388,-3.37,924,908,926
390,-3.39,922,906,925
392,-3.4,923,903,924
394,-3.41,914,900,921
396,-3.41,915,902,923
398,-3.44,918,907,923
400,-3.45,926,910,926
402,-3.46,931,908,924
404,-3.48,923,905,923
406,-3.49,921,903,921
408,-3.5,909,902,920
410,-3.51,909,902,920
412,-3.52,918,908,918
414,-3.54,913,900,916
416,-3.54,911,900,915
418,-3.55,910,896,913
420,-3.57,916,903,912
422,-3.57,914,906,911
424,-3.58,925,909,913
426,-3.6,921,909,911
428,-3.59,917,908,912
430,-3.6,915,902,912
432,-3.62,910,899,912
434,-3.62,912,898,912
436,-3.62,910,895,911
438,-3.62,917,900,912
440,-3.63,923,900,911
442,-3.63,924,899,913
444,-3.64,913,896,912
446,-3.64,904,894,910
448,-3.65,910,896,909
450,-3.65,908,897,911
452,-3.65,910,895,910
454,-3.66,908,893,911
456,-3.66,911,899,912
458,-3.67,909,902,910
460,-3.68,914,904,909
462,-3.68,915,897,910
464,-3.69,919,899,911
466,-3.69,918,901,909
468,-3.69,916,896,906
470,-3.7,911,899,908
472,-3.7,912,899,909
474,-3.69,909,901,908
476,-3.7,915,902,907
478,-3.71,916,902,907
480,-3.71,916,905,906
482,-3.71,908,907,904
484,-3.72,915,902,909
486,-3.72,910,900,909
488,-3.72,913,906,904
490,-3.74,914,905,906
492,-3.73,913,899,907
494,-3.74,911,903,907
496,-3.74,914,905,906
498,-3.75,918,908,908
500,-3.75,916,903,906
502,-3.75,913,902,906
504,-3.75,913,902,907
506,-3.75,912,902,905
508,-3.76,912,896,903
510,-3.76,912,899,907
512,-3.76,912,901,908
514,-3.76,915,903,908
516,-3.77,919,903,907
518,-3.78,912,901,909
520,-3.78,907,893,905
522,-3.78,907,894,905
524,-3.78,914,898,905
526,-3.79,913,899,903
528,-3.79,909,902,902
530,-3.79,910,898,903
532,-3.8,903,895,900
534,-3.8,904,898,902
536,-3.79,905,902,904
538,-3.8,917,905,904
540,-3.81,920,907,905
542,-3.81,919,907,907
544,-3.81,913,905,907
546,-3.81,914,896,905
548,-3.81,916,900,905
550,-3.82,915,903,907
551,-3.82,914,903,906

File: Aalto_Gasification_65kW_3.csv
Time,Mass,Back Surface Temperature 1,Back Surface Temperature 2,Back Surface Temperature 3
[s],[g],[K],[K],[K]
0,69.76,329,331,331
2,69.46,330,331,331
4,69.49,330,331,332
6,69.55,330,331,332
8,69.6,330,331,332
10,69.68,330,331,332
12,69.73,330,331,332
14,69.73,330,331,332
16,69.72,330,332,332
18,69.7,331,332,332
20,69.68,331,332,332
22,69.59,331,332,333
24,69.28,332,332,333
26,69.12,332,333,333
28,68.68,332,333,334
30,68.48,333,334,334
32,68.14,334,334,334
34,67.57,334,335,335
36,67.57,335,335,335
38,66.97,336,336,336
40,66.72,337,337,337
42,66.12,338,338,338
44,65.82,339,339,338
46,65.18,340,341,340
48,64.92,341,342,341
50,64.26,343,343,342
52,63.98,345,345,343
54,63.31,346,347,344
56,63.04,347,348,346
58,62.38,349,350,347
60,62.24,351,352,348
62,61.69,352,353,350
64,61.4,353,354,351
66,60.71,355,356,353
68,60.37,358,359,354
70,59.64,360,362,357
72,59.35,362,363,358
74,58.64,365,365,360
76,58.35,368,367,362
78,57.93,370,370,364
80,57.1,371,371,366
82,56.74,372,372,367
84,56.03,372,372,368
86,55.73,373,373,369
88,54.99,374,374,370
90,54.99,375,374,371
92,54.25,376,376,373
94,53.95,378,377,374
96,53.2,380,379,375
98,52.89,382,381,378
100,52.04,383,382,379
102,51.74,385,384,381
104,51,387,387,382
106,50.69,389,388,385
108,50.2,390,389,386
110,49.38,392,391,388
112,49.07,395,394,390
114,48.56,397,395,391
116,48.2,398,396,392
118,47.72,400,399,394
120,46.96,402,401,396
122,46.65,404,402,398
124,45.82,406,404,400
126,45.51,409,406,402
128,45,411,409,404
130,44.22,413,411,406
132,43.85,415,413,408
134,43.08,417,415,410
136,42.76,420,417,412
138,41.97,422,419,414
140,41.65,424,421,416
142,41.14,426,423,418
144,40.81,428,425,420
146,39.86,430,427,422
148,39.53,434,429,424
150,38.72,435,432,427
152,38.39,437,434,429
154,37.57,440,436,431
156,37.23,443,439,433
158,36.69,446,441,435
160,35.81,448,444,437
162,35.47,451,446,441
164,34.96,453,448,443
166,33.98,456,451,444
168,33.98,458,452,446
170,33.1,461,456,449
172,32.74,463,458,451
174,31.78,467,462,454
176,31.41,469,464,458
178,30.5,472,466,460
180,30.12,475,469,462
182,29.2,479,472,464
184,28.82,482,476,467
186,27.88,486,479,471
188,27.5,489,482,474
190,26.85,492,485,477
192,25.83,497,488,480
194,25.43,500,493,485
196,24.49,504,497,488
198,24.49,506,498,490
200,23.33,513,504,496
202,22.94,518,510,500
204,21.98,524,514,504
206,21.52,529,520,508
208,20.56,534,525,513
210,20.15,541,532,520
212,19.58,547,536,526
214,18.41,555,542,531
216,18,570,549,535
218,16.96,579,562,542
220,16.52,588,569,549
222,15.46,595,576,555
224,14.83,601,581,562
226,14.38,608,589,569
228,13.29,613,593,580
230,12.84,619,599,585
232,11.74,624,604,591
234,11.28,636,611,597
236,10.11,645,622,602
238,10.11,651,626,607
240,8.78,674,637,612
242,8.35,711,658,619
244,7.78,750,692,631
246,6.87,784,720,660
248,6.54,830,756,684
250,5.88,863,807,730
252,5.64,884,832,756
254,5.3,896,845,779
256,4.77,907,844,799
258,4.54,912,842,817
260,4.29,912,844,834
262,4.08,910,852,843
264,3.79,914,856,858
266,3.41,920,846,861
268,3.27,921,860,872
270,2.98,917,886,881
272,2.86,932,882,889
274,2.59,930,876,897
276,2.48,934,863,902
278,2.34,938,870,909
280,2.12,952,872,911
282,2.03,949,878,917
284,1.91,951,885,922
286,1.84,950,887,925
288,1.67,944,881,928
290,1.55,952,891,931
292,1.5,961,887,936
294,1.43,952,879,938
296,1.38,951,885,938
298,1.27,959,888,940
300,1.23,959,890,943
302,1.17,937,889,948
304,1.08,939,891,950
306,1.04,935,890,952
308,0.97,933,889,956
310,0.93,950,895,957
312,0.9,947,887,958
314,0.84,952,891,962
316,0.81,953,893,964
318,0.77,951,892,968
320,0.72,938,892,969
322,0.7,945,890,970
324,0.64,941,891,971
326,0.63,950,899,972
328,0.59,953,898,971
330,0.57,938,891,971
332,0.54,934,883,971
334,0.51,936,887,967
336,0.49,950,892,968
338,0.45,943,883,967
340,0.44,932,882,966
342,0.41,926,880,965
344,0.39,923,885,962
346,0.37,929,891,962
348,0.36,933,894,959
350,0.34,928,884,957
352,0.32,918,882,955
354,0.29,930,892,957
356,0.28,924,897,955
358,0.26,920,889,954
360,0.25,926,892,955
362,0.22,923,889,953
364,0.21,927,889,948
366,0.2,914,880,947
368,0.17,911,877,947
370,0.17,911,882,943
372,0.16,918,890,944
374,0.14,917,893,945
376,0.13,911,883,944
378,0.12,915,880,942
380,0.11,904,887,941
382,0.11,903,877,942
384,0.1,906,885,939
386,0.08,907,879,938
388,0.08,909,874,938
390,0.07,916,875,941
392,0.06,921,877,938
394,0.05,928,880,940
396,0.05,922,879,939
398,0.04,921,878,935
400,0.03,912,874,935
402,0.02,911,873,930
404,0.02,910,880,929
406,0.01,906,876,929
408,0.01,902,880,931
410,0,907,879,931
412,0,908,878,929
414,-0.01,903,873,929
416,-0.02,907,882,928
418,-0.02,896,876,927
420,-0.02,893,873,928
422,-0.03,907,874,928
424,-0.03,908,875,928
426,-0.03,902,883,926
428,-0.03,907,878,926
430,-0.04,906,877,928
432,-0.04,901,871,925
434,-0.05,903,871,924
436,-0.04,899,875,922
438,-0.05,907,875,925
440,-0.05,901,882,927
442,-0.06,892,874,924
444,-0.06,897,872,924
446,-0.05,890,875,923
448,-0.06,900,874,921
450,-0.06,905,880,922
452,-0.07,902,877,924
454,-0.07,907,880,925
456,-0.07,911,878,926
458,-0.07,900,880,928
460,-0.07,906,876,925
462,-0.07,909,878,925
464,-0.07,913,884,924
466,-0.08,904,873,922
468,-0.07,902,873,923
470,-0.07,901,873,922
472,-0.07,900,883,921
474,-0.07,904,881,923
476,-0.08,904,883,923
478,-0.07,904,879,923
480,-0.08,901,881,924
482,-0.08,905,880,925
484,-0.08,903,879,925
486,-0.08,903,876,926
488,-0.09,908,877,926
490,-0.08,907,870,923
492,-0.08,901,878,923
494,-0.08,903,877,924
496,-0.09,907,877,924
498,-0.09,906,882,923
500,-0.09,911,882,924
502,-0.09,898,880,923
504,-0.09,901,875,922
506,-0.09,906,879,923
508,-0.09,912,876,923
510,-0.09,904,871,921
512,-0.1,902,872,920
514,-0.09,904,873,921
516,-0.09,914,875,921
518,-0.1,909,872,922
520,-0.09,906,875,921
522,-0.09,908,879,920
524,-0.09,909,881,921
526,-0.09,906,879,919
528,-0.1,905,878,920
530,-0.1,898,870,922
532,-0.1,903,879,922
534,-0.09,906,876,921
536,-0.1,901,878,922
538,-0.09,911,877,921
540,-0.1,901,874,920
542,-0.1,908,883,921
544,-0.1,900,877,923
546,-0.09,895,876,920
548,-0.1,900,877,923
550,-0.1,903,878,924
552,-0.1,906,877,924
553,-0.1,906,880,922