Folder: matl-db/PMMA/Calibration_Data/DBI-Lund

Note: PMMA/README.md
# Poly(methyl methacrylate), PMMA

This folder holds measurement data, calibrated material property datasets, and results of numerical simulations related to the pyrolysis of case black PMMA. The specific material of interest is a nominally 6 mm (0.236 inch) thick, black, cast PMMA manufactured by Evonik under the tradename: ACRYLITE cast black 9H01 GT. Note: the identification of any commercial product or trade name does not imply endorsement or recommendation by the National Institute of Standards and Technology, NIST (or any other contributing institution).

|Folder Name| Description|
|---|---|
|Calibration_Data| Experimental measurements (e.g., TGA, DSC, Cone Calorimeter) used for pyrolysis model calibration (i.e., material property determination)|
|Calibration_Results|Results of numerical simulations demonstrating the ability of proposed material property sets to accurately *reproduce* relevant model calibration data|
|Computational_Results|Model predictions of sample decomposition in response to idealized zero- and one-dimensional heating scenarios (used for model to model comparison)|
|Material_Properties|Pyrolysis models (i.e., material property sets) organized in a standard .json format|
|Validation_Data|Experimental Measurements (sample mass loss and back surface temperature rise during anaerobic gasification of PMMA under external thermal radiation) for Pyrolysis Model Validation |
|Validation_Results|Results of numerical simulations demonstrating the ability of proposed material property sets to *predict* measured material decomposition behavior (used for model validation)|

File: DBI-Lund_Cone_50kW_1.csv
Time,Mass,HRR,Back Surface Temperature 1
[s],[g],[kW/m2],[K]
0,73.92,1.9288,297.256
2,73.8672,1.49626,297.25
4,74.08865,0.910551,297.185
6,74.0261,0.250522,297.092
8,73.9532,0.265585,297.017
10,73.6345,0.310308,296.934
12,73.5971,0.462362,296.902
14,73.5872,0.599139,296.835
16,73.5479,0.708425,296.807
18,73.5488,0.339581,296.823
20,73.5464,0.237368,296.9
22,73.5526,0.251508,297.055
24,73.5094,-0.624896,297.366
26,73.4673,8.66409,297.675
28,73.3793,105.754,297.921
30,73.4569,183.52,298.898
32,73.4178,291.202,299.467
34,73.0608,384.346,300.343
36,72.6375,433.97,301.584
38,72.2584,474.737,302.831
40,71.8468,511.746,304.403
42,71.37251,510.852,305.502
44,70.927,545.921,307.109
46,70.4392,552.044,309.311
48,69.9877,564.705,310.437
50,69.4945,569.339,312.56
52,69.0108,578.722,314.984
54,68.558,600.669,316.508
56,68.06961,564.71,319.777
58,67.5619,590.203,321.411
60,67.0602,641.099,323.775
62,66.5627,635.255,326.693
64,66.0624,646.332,328.553
66,65.5258,620.267,330.966
68,64.99353,616.206,333.93
70,64.459,627.208,335.835
72,63.9549,632.365,339.63
74,63.4068,647.686,341.621
76,62.8667,640.388,344.18
78,62.327,629.848,346.969
80,61.7883,654.839,348.801
82,61.2361,646.159,351.264
84,60.6508,667.922,354.045
86,60.0802,691.022,355.875
88,59.5447,677.923,359.519
90,58.9917,660.305,361.398
92,58.4347,728.922,364.068
94,57.8198,700.313,366.974
96,57.28225,683.247,368.763
98,56.6792,703.426,371.304
100,56.0755,678.717,373.839
102,55.4688,692.496,375.514
104,54.92018,706.395,378.772
106,54.3091,706.085,380.319
108,53.6844,750.12,382.617
110,53.0182,725.32,385.445
112,52.4341,706.245,387.333
114,51.83776,727.385,389.784
116,51.292,733.783,391.65
118,50.6189,738.756,394.361
120,50.0061,707.596,398.114
122,49.3711,712.397,399.95
124,48.73921,744.651,402.618
126,48.1894,751.285,405.541
128,47.5906,743.724,407.408
130,46.9625,780.933,410.169
132,46.3411,760.393,412.987
134,45.7372,750.117,414.875
136,45.1194,782.781,418.372
138,44.4549,744.96,420.096
140,43.799,747.926,422.633
142,43.133,781.676,425.351
144,42.4644,785.256,426.965
146,41.8393,795.967,429.385
148,41.1645,829.706,432.102
150,40.4838,813.181,433.866
152,39.7937,763.641,436.401
154,39.1955,785.433,439.344
156,38.5268,809.036,441.927
158,37.8743,818.323,444.85
160,37.1941,831.255,446.639
162,36.4627,821.212,449.337
164,35.8181,810.275,452.145
166,35.1145,829.338,453.925
168,34.4195,805.636,456.465
170,33.6873,858.165,459.092
172,33.0327,893.035,461.541
174,32.3651,850.123,464.233
176,31.6775,869.216,465.83
178,30.9424,892.692,468.311
180,30.218,881.59,471.039
182,29.51413,871.132,472.784
184,28.7794,901.526,475.363
186,28.0398,903.499,478.188
188,27.2771,884.551,480.912
190,26.536,946.175,483.85
192,25.7854,926.722,485.871
194,24.9823,925.205,488.868
196,24.2379,924.204,492.177
198,23.4458,923.715,494.405
200,22.6948,981.751,497.767
202,21.8995,890.513,501.592
204,21.1387,921.576,505.214
206,20.3707,954.889,509.532
208,19.578,942.421,512.468
210,18.8144,1043.62,516.937
212,18.0591,945.251,521.913
214,17.1767,992.137,526.066
216,16.2824,961.441,534.373
218,15.5413,1001.68,543.647
220,14.6936,1031.75,550.043
222,13.8549,1013.65,562.351
224,12.9776,1002.25,568.446
226,12.0821,1078.16,577.461
228,11.2018,1123.23,586.264
230,10.3471,1151.06,591.894
232,9.42643,1070.73,600.093
234,8.448062,1211.11,609.297
236,7.528164,1155.08,615.43
238,6.558101,1196.86,625.846
240,5.590996,1227.56,629.181
242,4.577536,1160.38,633.973
244,3.646769,1065.5,641.672
246,2.793928,965.922,648.452
248,1.992321,1068.89,661.812
250,1.250223,876.851,686.059
252,0.676034,722.208,709.193
254,0.177593,559.775,788.96
256,-0.218755,492.686,836.924
258,-0.535851,342.221,931.806
260,-0.785713,298.124,1012.86
262,-0.910645,238.071,1038.249
264,-1.040734,191.135,1022.36
266,-1.177744,162.069,983.205
268,-1.270172,133.006,961.373
270,-1.359586,113.299,934.83
272,-1.412449,103.022,926.27
274,-1.497391,84.777,904.55
276,-1.503216,73.2767,873.282
278,-1.550298,62.9003,855.465
280,-1.611905,54.8205,840.081
282,-1.615464,50.2791,822.934
284,-1.664653,45.2149,817.946
286,-1.742804,38.6362,807.416
288,-1.762069,34.1333,798.943
290,-1.755956,28.763,790.677
292,-1.74385,23.9551,787.976
294,-1.808529,20.3936,785.141
296,-1.777502,17.4354,782.424
298,-1.829635,15.3446,776.536
300,-1.839586,12.8316,772.56
302,-1.843225,11.0091,768.514
304,-1.842751,9.48345,762.6
306,-1.989287,7.63964,762.217
308,-2.374,5.949,761.776
310,-2.351126,4.87468,758.889
312,-1.823225,4.32897,757.53
314,-1.824255,4.02523,759.182
316,-1.846092,3.79627,758.929
318,-1.810715,3.70657,757.741
320,-1.816982,3.60412,759.228
322,-1.86361,3.49649,757.648
324,-1.878375,3.83732,764.641
326,-1.851295,3.44382,764.685
328,-1.876951,3.04744,765.201
330,-1.903617,2.63059,769.694
332,-1.890118,2.69451,770.271
334,-1.903169,2.43147,767.683
336,-1.934139,1.96474,762.101
338,-1.912895,1.69966,761.542
340,-1.908897,1.76551,763.668
342,-1.934417,1.638,764.543
344,-1.91,1.17186,767.529
346,-1.90368,1.00275,767.214
348,-1.920423,1.1939,763.634
350,-1.967344,0.555078,759.176
352,-1.941051,1.05138,755.473
353,-1.936872,1.57547,755.419

File: DBI-Lund_DSC_N2_20K_2.csv
Time,Temperature,Heat Flow
[s],[K],[W/g]
0,298.736,-0.0157
10.0002,298.77,-0.016
19.9998,299.043,-0.00877
30,299.929,0.0252
40.0002,301.69,0.0933
49.9998,304.349,0.19384
60,307.755,0.30816
70.0002,311.696,0.41504
79.9998,315.951,0.49844
90,320.341,0.56082
100.0002,324.719,0.5955
109.9998,329.01,0.61196
120,333.16,0.61688
130.0002,337.175,0.61096
139.9998,341.072,0.60203
150,344.844,0.59185
160.0002,348.536,0.58337
169.9998,352.173,0.57823
180,355.7521,0.57435
190.0002,359.334,0.5647
199.9998,362.919,0.5522
210,366.5,0.5421
220.0002,370.067,0.53756
229.9998,373.632,0.5355
240,377.165,0.5349
250.0002,380.679,0.53463
259.9998,384.151,0.53719
270,387.597,0.53992
280.0002,391.006,0.54736
289.9998,394.4,0.55941
300,397.774,0.58017
310.0002,401.1328,0.60631
319.9998,404.493,0.62714
330,407.836,0.63013
340.0002,411.185,0.60894
349.9998,414.536,0.57576
360,417.8831,0.55067
370.0002,421.228,0.54239
379.9998,424.5712,0.54117
390,427.911,0.54343
400.0002,431.243,0.5429
409.9998,434.5639,0.54375
420,437.885,0.54409
430.0002,441.2067,0.54425
439.9998,444.5202,0.5467
450,447.836,0.55111
460.0002,451.163,0.55627
469.9998,454.492,0.56323
480,457.82,0.56897
490.0002,461.155,0.57314
499.9998,464.498,0.5768
510,467.836,0.57777
520.0002,471.171,0.57279
529.9998,474.514,0.56777
540,477.852,0.56253
550.0002,481.18,0.56218
559.9998,484.5141,0.56201
570,487.847,0.57119
580.0002,491.1788,0.58575
589.9998,494.513,0.6063
600,497.858,0.63308
610.0002,501.1901,0.66001
619.9998,504.526,0.67481
630,507.848,0.67139
640.0002,511.167,0.65129
649.9998,514.484,0.62618
660,517.797,0.60186
670.0002,521.114,0.58135
679.9998,524.444,0.57172
690,527.779,0.5702
700.0002,531.124,0.57838
709.9998,534.466,0.58948
720,537.808,0.61138
730.0002,541.15,0.63571
739.9998,544.494,0.66539
750,547.832,0.69582
760.0002,551.176,0.72973
769.9998,554.5102,0.77609
780,557.849,0.82663
790.0002,561.189,0.88706
799.9998,564.525,0.95255
810,567.853,1.01704
820.0002,571.178,1.08823
829.9998,574.5,1.1533
840,577.822,1.21397
850.0002,581.136,1.26362
859.9998,584.457,1.31077
870,587.776,1.34094
880.0002,591.093,1.37691
889.9998,594.402,1.40258
900,597.714,1.43345
910.0002,601.03,1.46957
919.9998,604.348,1.53805
930,607.6643,1.62548
940.0002,610.992,1.73944
949.9998,614.319,1.87849
960,617.642,2.05212
970.0002,620.966,2.25341
979.9998,624.2951,2.48757
990,627.6201,2.74719
1000,630.941,3.02416
1010,634.26,3.30858
1020,637.5753,3.56928
1030,640.895,3.75538
1040,644.225,3.83103
1050,647.552,3.85081
1060,650.891,3.86456
1070,654.243,3.79839
1080,657.597,3.74161
1090,660.946,3.63671
1100,664.298,3.50088
1110,667.649,3.21027
1120,671.005,2.84127
1130,674.358,2.40204
1140,677.712,1.94541
1150,681.059,1.53572
1160,684.404,1.18849
1170,687.742,0.91194
1180,691.08,0.71177
1190,694.433,0.65611
1200,697.783,0.63349
1210,701.112,0.61294
1220,704.406,0.53555
1230,707.682,0.4479
1240,710.973,0.37584
1250,714.2721,0.31906
1260,717.577,0.25184
1270,720.8998,0.20205
1280,724.231,0.17413
1290,727.578,0.15785
1300,730.921,0.15535
1310,734.274,0.15579
1320,737.621,0.16035
1330,740.963,0.16678
1340,744.305,0.17254
1350,747.641,0.17764
1360,750.974,0.17861
1370,754.3051,0.18073
1380,757.632,0.18217
1390,760.96,0.18548
1400,764.294,0.18085
1410,767.618,0.18347
1420,770.943,0.18492
1430,774.271,0.18307
1440,777.595,0.18263
1450,780.927,0.18385
1460,784.259,0.1796
1470,787.593,0.17985
1480,790.925,0.17987
1490,794.261,0.1818
1500,797.591,0.18109
1510,800.934,0.18569
1520,804.271,0.18716
1530,807.604,0.19252
1540,810.94,0.19741
1550,814.272,0.20404
1560,817.6012,0.20899
1570,820.933,0.21519
1580,824.265,0.22362
1590,827.59,0.23062
1600,830.923,0.23494
1610,834.262,0.24548
1620,837.598,0.25407
1630,840.929,0.26271
1640,844.266,0.27064
1650,847.605,0.27786
1660,850.941,0.28963
1670,854.277,0.29945
1680,857.612,0.31158
1690,860.949,0.32275
1700,864.278,0.33703
1710,867.616,0.3501
1720,870.942,0.36527
1730,874.279,0.38537
1740,877.614,0.4066
1750,880.944,0.42124
1760,884.279,0.44059
1770,887.6091,0.46158
1780,890.944,0.48112
1790,894.277,0.49868
1800,897.613,0.51995
1810,900.919,0.54262
1820,904.251,0.56645
1830,907.591,0.59171
1840,910.932,0.62049
1850,914.266,0.65046
1860,917.596,0.67555
1870,920.931,0.70394
1880,924.259,0.73085
1890,927.596,0.76348
1900,930.932,0.78906
1910,934.272,0.81288
1920,937.607,0.83064
1930,940.944,0.85117
1940,944.2793,0.87178
1950,947.614,0.89004
1960,950.951,0.90704
1970,954.285,0.92193
1980,957.621,0.93959
1990,960.948,0.95052
2000,964.287,0.96176
2010,967.62,0.97058
2020,970.955,0.98189
2030,974.29,0.99902
2040,977.626,1.01401
2050,980.962,1.02547
2060,984.301,1.03725
2070,987.635,1.04601
2080,990.974,1.05842
2090,994.307,1.06585
2100,997.642,1.07107
2110,1000.98,1.08245
2120,1004.31,1.08854
2130,1007.64,1.09043
2140,1010.97,1.08893
2150,1014.31,1.09222
2160,1017.64,1.09579
2170,1020.98,1.09454
2180,1024.32,1.09584
2190,1027.65,1.09712
2200,1030.99,1.10211
2210,1034.32,1.10539
2220,1037.66,1.11012
2230,1041,1.11772
2240,1044.33,1.12477
2250,1047.68,1.12751
2260,1051.01,1.12851
2270,1054.35,1.13355
2280,1057.68,1.12989
2290,1061.02,1.13495
2300,1064.36,1.13505
2310,1067.69,1.13513
2320,1071.02,1.13462
2330,1074.37,1.13763
2340,1077.7,1.14033
2350,1081.04,1.13685
2360,1084.38,1.13807
2370,1087.72,1.13454
2380,1091.05,1.13188
2390,1094.38,1.13306
2400,1097.72,1.13633
2410,1101.05,1.13182
2420,1104.38,1.12879
2430,1107.71,1.12693
2440,1111.05,1.12626
2450,1114.38,1.12075
2460,1117.72,1.11824
2470,1121.06,1.11389
2480,1124.4,1.11497
2490,1127.73,1.11757
2500,1131.07,1.12047
2510,1134.41,1.12001
2520,1137.74,1.1226
2530,1141.07,1.12091
2540,1144.4,1.12257
2550,1147.731,1.12393
2560,1151.06,1.12497
2570,1154.4,1.12817
2580,1157.73,1.12891
2590,1161.06,1.13056
2600,1164.39,1.13843
2610,1167.72,1.14571
2620,1171.06,1.15924
2630,1174.39,1.17094
2640,1177.72,1.17986
2650,1181.05,1.19133
2660,1184.38,1.20534
2670,1187.7,1.22381
2680,1191.03,1.23793
2690,1194.35,1.26064
2700,1197.68,1.27646
2710,1201.01,1.29837
2720,1204.34,1.31655
2730,1207.67,1.34149
2740,1211.01,1.3662
2750,1214.34,1.38908
2760,1217.68,1.41109
2770,1221.01,1.43318
2774,1222.337,1.44332

File: DBI-Lund_Gasification_25kW_3.csv
Time,Mass
[s],[g]
0,70.1
5,70.0816
10,70.0232
15,70.0286
20,69.9958
25,69.84664
30,70.1543
35,70.0401
40,70.0371
45,70.0263
50,69.9243
55,70.0748
60,69.8737
65,69.8477
70,69.8008
75,69.78016
80,69.8108
85,69.8965
90,69.8966
95,69.6702
100,69.8168
105,69.6351
110,69.7163
115,69.8315
120,69.7925
125,69.6713
130,69.6425
135,69.3481
140,69.3846
145,69.3217
150,69.1142
155,69.1801
160,69.0327
165,68.7356
170,68.8813
175,68.7236
180,68.4281
185,68.2403
190,68.0539
195,67.74294
200,67.7718
205,67.2527
210,67.1701
215,67.0498
220,66.8129
225,66.2976
230,66.3093
235,66.0096
240,65.7567
245,65.49578
250,65.3034
255,64.8076
260,64.5403
265,64.134
270,63.7885
275,63.778
280,63.3793
285,63.03043
290,62.6397
295,62.3691
300,62.0492
305,61.6847
310,61.2764
315,60.8705
320,60.579
325,60.328
330,59.8087
335,59.701
340,59.2713
345,58.6887
350,58.3296
355,57.7841
360,57.6876
365,57.0432
370,56.6668
375,56.262
380,55.8983
385,55.4078
390,54.952
395,54.3924
400,54.1153
405,53.8252
410,53.3814
415,53.0828
420,52.2681
425,52.078
430,51.6868
435,51.0332
440,50.6394
445,49.9915
450,49.6037
455,49.2383
460,48.858
465,48.1205
470,47.72283
475,47.32865
480,46.7238
485,46.4455
490,45.7586
495,45.3344
500,44.8253
505,44.3673
510,43.81284
515,43.0588
520,42.7268
525,42.34302
530,41.5904
535,41.3853
540,40.6794
545,40.0649
550,39.8255
555,39.3077
560,38.5777
565,38.0399
570,37.6148
575,37.0397
580,36.576
585,35.9543
590,35.3508
595,34.7263
600,34.3713
605,33.8078
610,32.9703
615,32.5773
620,32.1181
625,31.5559
630,31.2065
635,30.3509
640,29.8425
645,29.4121
650,28.94104
655,28.3663
660,27.7532
665,27.1532
670,26.6105
675,26.0574
680,25.4705
685,24.9956
690,24.3198
695,23.7673
700,23.21065
705,22.6952
710,22.1394
715,21.4701
720,20.9757
725,20.5315
730,19.8159
735,19.4594
740,18.9197
745,18.2395
750,17.72226
755,17.2342
760,16.5933
765,16.1629
770,15.5032
775,15.1043
780,14.6281
785,14.114
790,13.754
795,13.2464
800,12.7217
805,12.5596
810,12.2103
815,11.8914
820,11.4776
825,11.0948
830,10.8242
835,10.4655
840,10.1301
845,10.1379
850,9.634128
855,9.500319
860,9.115269
865,9.042421
870,8.558611
875,8.549647
880,8.063174
885,7.998369
890,7.65057
895,7.426925
900,7.145047
905,6.977029
910,6.904917
915,6.597776
920,6.426111
925,6.172259
930,5.882951
935,5.874476
940,5.641468
945,5.290034
950,5.306754
955,5.075753
960,5.066209
965,4.717958
970,4.514131
975,4.422261
980,4.148576
985,4.131155
990,3.906548
995,3.967204
1000,3.597054
1005,3.330346
1010,3.245041
1015,3.185294
1020,3.137358
1025,2.962469
1030,2.715825
1035,2.729416
1040,2.524156
1045,2.532479
1050,2.459933
1055,2.425829
1060,2.457549
1065,2.348416
1070,2.232499
1075,1.946463
1080,1.993149
1085,1.892928
1090,1.906016
1095,1.843153
1100,1.625186
1105,1.755054
1110,1.770704
1115,1.666442
1120,1.551888
1125,1.311678
1130,1.562596
1135,1.272836
1140,1.295388
1145,1.374658
1150,1.15171
1155,1.264615
1160,1.020268
1165,1.06858
1170,1.233559
1175,0.961847
1180,0.855301
1185,0.998955
1190,0.857106
1195,1.03785
1200,0.872659
1205,0.796404
1210,0.793816
1215,0.677438
1220,0.94627
1225,0.691712
1230,0.779829
1235,0.851874
1240,0.678554
1245,0.634442
1250,0.670482
1255,0.527523
1260,0.650558
1265,0.478031
1270,0.50731
1275,0.533455
1280,0.570521
1285,0.410242
1290,0.291112
1295,0.357973
1300,0.308323
1305,0.266546
1310,0.518021
1315,0.280957
1320,0.358108
1325,0.285171
1330,0.288454
1335,0.310831
1340,0.19626
1345,0.158422
1350,0.416878
1355,0.144585
1360,0.050425
1365,0.252253
1370,0.27947
1375,0.119661
1380,0.138124
1385,0.001212
1388,0.131819

File: DBI-Lund_Gasification_50kW_2.csv
Time,Mass
[s],[g]
0,67.7
2,67.7159
4,67.6198
6,67.6345
8,67.5561
10,67.5437
12,67.4776
14,67.4952
16,67.5718
18,67.4577
20,67.401
22,67.3234
24,67.1929
26,67.2585
28,67.12552
30,67.0809
32,66.83699
34,66.75
36,66.5787
38,66.4081
40,66.2763
42,66.1381
44,65.8615
46,65.4432
48,65.29562
50,65.0109
52,64.92122
54,64.7739
56,64.4376
58,64.0443
60,63.8592
62,63.5783
64,63.3637
66,63.09654
68,62.6502
70,62.3058
72,62.1231
74,61.8365
76,61.6004
78,61.3386
80,60.9181
82,60.6726
84,60.3277
86,60.1028
88,59.73234
90,59.3693
92,59.12804
94,58.6472
96,58.5297
98,58.0688
100,57.67216
102,57.4178
104,57.0915
106,56.7161
108,56.4349
110,55.9218
112,55.6546
114,55.3529
116,55.037
118,54.6877
120,54.20391
122,53.8116
124,53.4887
126,53.0437
128,52.6753
130,52.34488
132,52.0033
134,51.6923
136,51.2369
138,50.6741
140,50.3305
142,49.87044
144,49.53586
146,49.0221
148,48.6898
150,48.4181
152,47.9387
154,47.461
156,46.988
158,46.656
160,46.234
162,45.9606
164,45.4023
166,44.94474
168,44.4698
170,44.1403
172,43.66187
174,43.1729
176,42.8207
178,42.2685
180,41.8779
182,41.4375
184,40.9557
186,40.56176
188,40.0278
190,39.463
192,39.052
194,38.5109
196,38.04025
198,37.5966
200,37.0796
202,36.73617
204,36.0516
206,35.4948
208,35.0237
210,34.6163
212,33.8751
214,33.4565
216,32.9395
218,32.4225
220,31.80912
222,31.19955
224,30.8903
226,30.2234
228,29.7825
230,29.0622
232,28.6328
234,28.0303
236,27.5221
238,26.7976
240,26.415
242,25.6257
244,25.3609
246,24.56722
248,23.95172
250,23.3182
252,22.857
254,22.13216
256,21.5805
258,20.9539
260,20.29513
262,19.8525
264,19.147
266,18.3694
268,17.7295
270,17.119
272,16.4184
274,15.7687
276,15.0544
278,14.3161
280,13.7913
282,13.0117
284,12.2983
286,11.556
288,10.9056
290,10.2796
292,9.616044
294,8.85433
296,8.283386
298,7.488273
300,7.051085
302,6.522908
304,6.008078
306,5.504561
308,5.15238
310,4.610954
312,4.461852
314,4.174794
316,3.600733
318,3.331097
320,3.249247
322,2.783371
324,2.443979
326,2.293312
328,2.038779
330,1.808228
332,1.538537
334,1.504742
336,1.209183
338,1.100761
340,0.821329
342,0.53589
344,0.514713
346,0.310731
348,0.232849
350,0.137502
352,-0.031234
354,-0.012853
356,-0.114901
358,-0.191508
360,-0.495351
362,-0.434478
364,-0.42571
366,-0.559619
368,-0.762586
370,-0.653965
372,-0.856697
374,-0.79219
376,-0.952217
378,-1.014469
380,-0.908511
382,-1.057584
384,-1.196237
386,-1.176093
388,-1.167306
390,-1.322891
392,-1.26935
394,-1.383086
396,-1.294671
398,-1.273845
400,-1.345728
402,-1.368262
404,-1.495417
406,-1.435243
408,-1.42199
410,-1.321493
412,-1.331105
414,-1.470354
416,-1.417317
418,-1.411057
420,-1.402216
422,-1.377477
424,-1.625912
426,-1.420143
428,-1.36949
430,-1.528502
432,-1.510652
434,-1.366472
436,-1.498901
438,-1.426243
440,-1.262122
442,-1.389098
444,-1.498826
446,-1.316473
448,-1.389055
450,-1.365211
452,-1.191703
454,-1.333748
456,-1.362592
458,-1.303934
460,-1.324079
462,-1.437772
464,-1.372912
466,-1.421741
468,-1.416314
470,-1.307208
472,-1.203265
474,-1.273152
476,-1.372583
478,-1.387014
480,-1.338229
482,-1.500638
484,-1.330143
486,-1.269243
488,-1.394149
490,-1.467958

File: DBI-Lund_TGA_N2_20K_1.csv
Time,Temperature,Mass
[s],[K],[mg]
0,299.357,5.80E+00
8,299.34,5.79E+00
16,299.447,5.79E+00
24,299.862,5.79E+00
32,300.733,5.79E+00
40,302.1607,5.79312
48,304.16,5.80721
56,306.665,5.76967
64,309.56,5.7876
72,312.757,5.78895
80,316.128,5.79459
88,319.593,5.79413
96,323.068,5.78815
104,326.515,5.78737
112,329.8822,5.78704
120,333.177,5.79131
128,336.385,5.78342
136,339.516,5.78252
144,342.574,5.78084
152,345.561,5.78072
160,348.506,5.77948
168,351.404,5.78229
176,354.2821,5.78184
184,357.15,5.78218
192,360.01,5.77587
200,362.876,5.78027
208,365.741,5.77959
216,368.606,5.77745
224,371.464,5.78016
232,374.312,5.78038
240,377.147,5.77722
248,379.952,5.77722
256,382.738,5.77768
264,385.491,5.78117
272,388.238,5.77733
280,390.974,5.78399
288,393.677,5.7717
296,396.3749,5.77057
304,399.069,5.77745
312,401.762,5.77452
320,404.449,5.77261
328,407.129,5.77317
336,409.818,5.78929
344,412.489,5.75806
352,415.172,5.77136
360,417.849,5.76392
368,420.533,5.76302
376,423.2107,5.76279
384,425.8872,5.75964
392,428.556,5.75829
400,431.23,5.75987
408,433.897,5.75614
416,436.5511,5.75423
424,439.208,5.75187
432,441.865,5.75029
440,444.518,5.74735
448,447.177,5.74577
456,449.829,5.74589
464,452.484,5.73202
472,455.147,5.74679
480,457.807,5.73146
488,460.474,5.71906
496,463.146,5.71409
504,465.818,5.71827
512,468.492,5.71579
520,471.162,5.70124
528,473.8322,5.69764
536,476.5,5.69505
544,479.162,5.68479
552,481.832,5.67679
560,484.494,5.67386
568,487.163,5.67059
576,489.831,5.67183
584,492.498,5.64116
592,495.164,5.64444
600,497.824,5.63598
608,500.483,5.62325
616,503.144,5.61727
624,505.801,5.61422
632,508.469,5.60623
640,511.13,5.60138
648,513.789,5.59427
656,516.454,5.59698
664,519.117,5.59517
672,521.78,5.58841
680,524.447,5.58774
688,527.108,5.58514
696,529.772,5.5777
704,532.443,5.57579
712,535.108,5.57477
720,537.777,5.56564
728,540.454,5.56677
736,543.138,5.55538
744,545.832,5.55346
752,548.514,5.54783
760,551.1979,5.53983
768,553.878,5.53126
776,556.544,5.51942
784,559.213,5.51548
792,561.872,5.49801
800,564.533,5.49136
808,567.188,5.46531
816,569.832,5.46104
824,572.478,5.43499
832,575.123,5.42676
840,577.775,5.40523
848,580.419,5.37626
856,583.0662,5.36082
864,585.713,5.3474
872,588.365,5.31055
880,591.012,5.28992
888,593.671,5.26309
896,596.336,5.23716
904,599.002,5.19489
912,601.669,5.15814
920,604.332,5.10437
928,606.992,5.05319
936,609.657,5.00755
944,612.3227,4.90902
952,614.978,4.84127
960,617.6436,4.75064
968,620.303,4.62371
976,622.963,4.52181
984,625.609,4.37843
992,628.263,4.23031
1000,630.92,4.06708
1008,633.5722,3.88289
1016,636.225,3.68844
1024,638.885,3.47686
1032,641.542,3.26166
1040,644.207,3.02867
1048,646.875,2.79319
1056,649.547,2.56108
1064,652.2253,2.33282
1072,654.9029,2.09993
1080,657.5868,1.88813
1088,660.269,1.65625
1096,662.951,1.43486
1104,665.6252,1.21595
1112,668.3131,1.00876
1120,670.991,0.8278398
1128,673.673,0.67047
1136,676.358,0.536
1144,679.037,0.41639
1152,681.711,0.3203601
1160,684.386,0.24799
1168,687.062,0.195
1176,689.732,0.15588
1184,692.388,0.1179
1192,695.0481,0.08498972
1200,697.723,0.06852004
1208,700.403,0.06570994
1216,703.0639,0.05297024
1224,705.718,0.04925012
1232,708.353,0.0345999
1240,710.989,0.03561026
1248,713.626,0.02929986
1256,716.267,0.02614988
1264,718.914,0.02929
1272,721.567,0.0238902
1280,724.225,0.01971014
1288,726.893,0.02378
1296,729.56,0.02568994
1304,732.232,0.02072978
1312,734.906,0.02377014
1320,737.58,0.01904024
1328,740.25,0.02208002
1336,742.926,0.01701024
1344,745.603,0.02242976
1352,748.271,0.0157702
1360,750.94,0.02084984
1368,753.601,0.02547012
1376,756.268,0.01599988
1384,758.936,0.01881984
1392,761.606,0.0178002
1400,764.2629,0.01769
1408,766.933,0.01948974
1416,769.5941,0.04170026
1424,772.247,0.00642002
1432,774.914,0.02535006
1440,777.578,0.00878004
1448,780.246,0.02704018
1456,782.912,0.01103972
1464,785.581,0.01553994
1472,788.246,0.01035996
1480,790.914,0.01656016
1488,793.585,0.02117986
1496,796.254,0.01216028
1504,798.9211,0.01363
1512,801.596,0.01745974
1520,804.266,0.01904024
1528,806.934,0.01623014
1536,809.6005,0.01260978
1544,812.266,0.0129601
1552,814.935,0.01859016
1560,817.5948,0.01341018
1568,820.254,0.02287984
1576,822.914,0.00878004
1584,825.574,0.01474998
1592,828.231,0.0038222
1600,830.897,0.00935018
1608,833.562,0.00732018
1616,836.227,0.0087899
1624,838.891,0.01869978
1632,841.561,0.00969006
1640,844.229,0.00551
1648,846.895,0.03156012
1656,849.5668,0.01284004
1664,852.2331,0.00720998
1672,854.906,0.0046226
1680,857.574,0.01126012
1688,860.246,0.00585974
1696,862.914,0.00708992
1704,865.588,0.0094598
1712,868.254,0.01035996
1720,870.92,0.01103972
1728,873.591,0.02716024
1736,876.259,-0.00203
1744,878.93,0.02580014
1752,881.589,-0.0053128
1760,884.263,0.02062016
1768,886.933,0.01441996
1776,889.601,0.01384982
1784,892.264,0.01238996
1792,894.933,0.00969006
1800,897.601,0.03719018
1808,900.267,-0.00857994
1816,902.932,0.0001102
1824,905.6003,0.03550006
1832,908.255,0.00033002
1840,910.92,-0.00879976
1848,913.588,-0.0093699
1856,916.262,0.00911992
1864,918.937,0.02175
1872,921.605,-0.01060008
1880,924.275,0.00608014
1888,926.946,0.00708992
1896,929.615,0.01375006
1904,932.292,0.0114898
1912,934.962,-0.0018096
1920,937.643,0.01271998
1928,940.302,-0.00812986
1936,942.975,0.00935018
1944,945.634,0.00923998
1952,948.3,0.00787988
1960,950.9671,-0.00845988
1968,953.63,0.01802002
1976,956.298,0.03132986
1984,958.959,0.0094598
1992,961.624,-0.00857008
2000,964.288,0.01611008
2008,966.952,0.0048372
2016,969.622,0.0051794
2024,972.2904,0.0007772
2032,974.957,0.01216028
2040,977.628,0.00856022
2048,980.299,-0.00642988
2056,982.968,0.00686024
2064,985.639,0.0067599
2072,988.308,0.00720998
2080,990.98,0.01103972
2088,993.651,0.0041702
2096,996.319,0.0051794
2104,998.9901,0.0116
2108,1000.33,0.00866984