Folder: matl-db/PMMA/Calibration_Data/DBI-Lund (part 2)

File: DBI-Lund_TGA_N2_20K_2.csv
Time,Temperature,Mass
[s],[K],[mg]
0,298.736,4.90E+00
7.9998,298.755,4.76E+00
16.0002,298.88,4.79E+00
24,299.305,4.80E+00
31.9998,300.209,4.80E+00
40.0002,301.69,4.80E+00
48,303.749,4.81782
55.9998,306.317,4.80339
64.0002,309.281,4.80993
72,312.532,4.80982
79.9998,315.951,4.80498
88.0002,319.459,4.80959
96,322.976,4.8026
103.9998,326.451,4.80452
112.0002,329.85,4.80464
120,333.16,4.7999
127.9998,336.38,4.79843
136.0002,339.524,4.79843
144,342.588,4.79551
151.9998,345.59,4.79381
160.0002,348.536,4.79246
168,351.447,4.79313
175.9998,354.323,4.79381
184.0002,357.185,4.79381
192,360.05,4.79246
199.9998,362.919,4.79088
208.0002,365.786,4.78953
216,368.639,4.79122
223.9998,371.4967,4.79257
232.0002,374.343,4.79122
240,377.165,4.78964
247.9998,379.981,4.79246
256.0002,382.765,4.78964
264,385.529,4.79167
271.9998,388.281,4.79031
280.0002,391.006,4.79291
288,393.722,4.78164
295.9998,396.424,4.78749
304.0002,399.114,4.7875
312,401.805,4.78818
319.9998,404.493,4.78705
328.0002,407.166,4.78795
336,409.846,4.78525
343.9998,412.522,4.78209
352.0002,415.205,4.78784
360,417.8831,4.78029
367.9998,420.561,4.77995
376.0002,423.231,4.78175
384,425.909,4.77814
391.9998,428.58,4.77623
400.0002,431.243,4.77014
408,433.898,4.77397
415.9998,436.56,4.77285
424.0002,439.214,4.76992
432,441.871,4.77127
439.9998,444.5202,4.76991
448.0002,447.1743,4.76608
456,449.832,4.76541
463.9998,452.495,4.76248
472.0002,455.157,4.76597
480,457.82,4.75131
487.9998,460.489,4.74962
496.0002,463.165,4.74996
504,465.83,4.74714
511.9998,468.504,4.74535
520.0002,471.171,4.73835
528,473.846,4.73485
535.9998,476.518,4.72607
544.0002,479.182,4.72472
552,481.85,4.72201
559.9998,484.5141,4.714
568.0002,487.182,4.7104
576,489.844,4.71434
583.9998,492.515,4.68582
592.0002,495.1798,4.69079
600,497.858,4.68244
607.9998,500.5227,4.67365
616.0002,503.192,4.66813
624,505.858,4.66023
631.9998,508.512,4.6581
640.0002,511.167,4.65516
648,513.819,4.65009
655.9998,516.469,4.64704
664.0002,519.124,4.64434
672,521.778,4.64298
679.9998,524.444,4.64028
688.0002,527.111,4.63701
696,529.783,4.63498
703.9998,532.463,4.63296
712.0002,535.133,4.62889
720,537.808,4.6263
727.9998,540.482,4.62315
736.0002,543.159,4.61605
744,545.83,4.61593
751.9998,548.499,4.60387
760.0002,551.176,4.60218
768,553.844,4.59655
775.9998,556.513,4.58832
784.0002,559.185,4.58111
792,561.857,4.5669
799.9998,564.525,4.56284
808.0002,567.187,4.5448
816,569.846,4.5323
823.9998,572.509,4.51786
832.0002,575.164,4.50434
840,577.822,4.47559
847.9998,580.475,4.46432
856.0002,583.128,4.4677
864,585.787,4.43941
871.9998,588.439,4.41844
880.0002,591.093,4.3897
888,593.7392,4.37189
895.9998,596.386,4.34111
904.0002,599.041,4.31856
912,601.692,4.27968
919.9998,604.348,4.23842
928.0002,606.999,4.19626
936,609.6628,4.15805
943.9998,612.322,4.06618
952.0002,614.9848,4.01297
960,617.642,3.93913
967.9998,620.3022,3.82844
976.0002,622.964,3.74142
984,625.623,3.61776
991.9998,628.285,3.48948
1000,630.941,3.35297
1008,633.5962,3.18862
1016,636.25,3.02065
1024,638.906,2.83838
1032,641.562,2.64618
1040,644.225,2.44757
1048,646.886,2.24794
1056,649.555,2.04086
1064,652.228,1.83412
1072,654.915,1.64497
1080,657.597,1.44636
1088,660.277,1.25472
1096,662.957,1.06579
1104,665.639,0.87653
1112,668.322,0.71454
1120,671.005,0.56282
1128,673.686,0.4321702
1136,676.369,0.32621
1144,679.052,0.2411
1152,681.73,0.17246
1160,684.404,0.10866
1168,687.074,0.07190015
1176,689.745,0.03300983
1184,692.415,0.01384985
1192,695.107,-0.01286005
1200,697.783,-0.02391984
1208,700.45,-0.03755017
1216,703.09,-0.04250995
1224,705.717,-0.04544995
1232,708.337,-0.05355994
1240,710.973,-0.05524995
1248,713.611,-0.05593007
1256,716.253,-0.0592998
1264,718.904,-0.05772984
1272,721.564,-0.05637009
1280,724.231,-0.05975991
1288,726.909,-0.05784009
1296,729.583,-0.0568302
1304,732.261,-0.05884998
1312,734.944,-0.05750983
1320,737.621,-0.06088985
1328,740.296,-0.05796014
1336,742.97,-0.06021022
1344,745.637,-0.0595301
1352,748.305,-0.06359024
1360,750.974,-0.0580699
1368,753.64,-0.05524995
1376,756.301,-0.06325018
1384,758.967,-0.05625984
1392,761.6253,-0.05941985
1400,764.294,-0.06201979
1408,766.955,-0.06291992
1416,769.613,-0.03292996
1424,772.272,-0.07474999
1432,774.936,-0.05299007
1440,777.595,-0.06641019
1448,780.263,-0.05152987
1456,782.927,-0.06539001
1464,785.588,-0.06619018
1472,788.259,-0.06032978
1480,790.925,-0.0610001
1488,793.594,-0.05965015
1496,796.259,-0.06235005
1504,798.929,-0.0637
1512,801.602,-0.05987016
1520,804.271,-0.0607698
1528,806.933,-0.06190023
1536,809.606,-0.06325998
1544,812.274,-0.05963986
1552,814.939,-0.05693996
1560,817.6012,-0.06313993
1568,820.268,-0.06043023
1576,822.931,-0.06054979
1584,825.5909,-0.05627013
1592,828.256,-0.07893018
1600,830.923,-0.05818015
1608,833.595,-0.05818015
1616,836.264,-0.06156017
1624,838.93,-0.06190023
1632,841.598,-0.06347019
1640,844.266,-0.06178998
1648,846.936,-0.05490989
1656,849.609,-0.06404006
1664,852.275,-0.05784009
1672,854.944,-0.05919004
1680,857.612,-0.06212024
1688,860.282,-0.06414982
1696,862.946,-0.0637
1704,865.614,-0.06269011
1712,868.2813,-0.06031998
1720,870.942,-0.05625984
1728,873.613,-0.04657009
1736,876.283,-0.07283017
1744,878.9422,-0.04870992
1752,881.611,-0.07046984
1760,884.279,-0.0580699
1768,886.942,-0.06134016
1776,889.612,-0.04273976
1784,892.274,-0.0595301
1792,894.945,-0.06212024
1800,897.613,-0.03868011
1808,900.258,-0.07464023
1816,902.915,-0.07034979
1824,905.588,-0.0551299
1832,908.258,-0.0651602
1840,910.932,-0.0678699
1848,913.599,-0.06651995
1856,916.266,-0.05999021
1864,918.932,-0.04329983
1872,921.5968,-0.07688982
1880,924.259,-0.06110986
1888,926.93,-0.06257986
1896,929.598,-0.0595301
1904,932.268,-0.06066004
1912,934.9401,-0.06754013
1920,937.607,-0.06360004
1928,940.277,-0.06911989
1936,942.95,-0.05931009
1944,945.613,-0.05422977
1952,948.283,-0.06561982
1960,950.951,-0.06843977
1968,953.618,-0.0637098
1976,956.286,-0.05987016
1984,958.948,-0.05738978
1992,961.616,-0.05738978
2000,964.287,-0.05750003
2008,966.954,-0.06132987
2016,969.619,-0.06200999
2024,972.289,-0.06235005
2032,974.957,-0.05514019
2040,977.626,-0.05468008
2048,980.295,-0.06054979
2056,982.972,-0.0595399
2064,985.6323,-0.0595301
2072,988.301,-0.05941985
2080,990.974,-0.05051998
2088,993.641,-0.06166993
2096,996.309,-0.06212024
2104,998.979,-0.06460993
2108,1000.31,-0.05784009

File: DBI-Lund_TGA_N2_20K_3.csv
Time,Temperature,Mass
[s],[K],[mg]
0,298.33,5.50E+00
8,298.358,5.44E+00
16,298.492,5.43E+00
24,298.9429,5.43E+00
32,299.874,5.44E+00
40,301.3823,5.44E+00
48,303.481,5.45333
56,306.0729,5.43811
64,309.073,5.44161
72,312.359,5.44341
80,315.824,5.44049
88,319.369,5.43924
96,322.915,5.43529
104,326.413,5.43293
112,329.835,5.4326
120,333.1669,5.43191
128,336.403,5.42909
136,339.563,5.42639
144,342.638,5.42504
152,345.641,5.42369
160,348.59,5.41963
168,351.497,5.4203
176,354.376,5.42098
184,357.247,5.41962
192,360.1049,5.41827
200,362.972,5.41726
208,365.8261,5.41726
216,368.681,5.41591
224,371.54,5.41726
232,374.379,5.41794
240,377.208,5.41501
248,380.011,5.41703
256,382.795,5.41501
264,385.561,5.41704
272,388.297,5.41568
280,391.03,5.41963
288,393.7317,5.40554
296,396.432,5.41139
304,399.1272,5.41309
312,401.814,5.41309
320,404.495,5.41343
328,407.179,5.4123
336,409.859,5.4096
344,412.534,5.41095
352,415.213,5.40666
360,417.892,5.40565
368,420.564,5.40531
376,423.24,5.40181
384,425.92,5.40046
392,428.586,5.39843
400,431.2552,5.39596
408,433.919,5.39494
416,436.579,5.39314
424,439.232,5.3901
432,441.88,5.38739
440,444.529,5.38321
448,447.184,5.38355
456,449.843,5.37995
464,452.4972,5.37285
472,455.165,5.37352
480,457.826,5.35706
488,460.4997,5.35052
496,463.171,5.3459
504,465.848,5.34184
512,468.518,5.33554
520,471.186,5.32347
528,473.858,5.31648
536,476.528,5.30916
544,479.2,5.3033
552,481.8679,5.29879
560,484.5301,5.28808
568,487.188,5.28064
576,489.8532,5.28391
584,492.517,5.25629
592,495.1768,5.25505
600,497.831,5.24513
608,500.496,5.24006
616,503.16,5.23499
624,505.826,5.2272
632,508.489,5.22721
640,511.149,5.22574
648,513.813,5.22067
656,516.4737,5.21898
664,519.135,5.21627
672,521.803,5.21492
680,524.473,5.2112
688,527.141,5.21086
696,529.809,5.20748
704,532.478,5.2041
712,535.15,5.20004
720,537.827,5.19632
728,540.494,5.19351
736,543.165,5.1873
744,545.828,5.18527
752,548.4991,5.17975
760,551.152,5.1722
768,553.8167,5.16566
776,556.478,5.15969
784,559.139,5.14966
792,561.795,5.13726
800,564.454,5.13196
808,567.112,5.11876
816,569.769,5.10288
824,572.426,5.08641
832,575.09,5.07007
840,577.744,5.05586
848,580.413,5.0358
856,583.075,5.01844
864,585.737,5.00356
872,588.401,4.97504
880,591.063,4.95712
888,593.733,4.93187
896,596.396,4.90594
904,599.06,4.87201
912,601.728,4.83493
920,604.387,4.78927
928,607.0488,4.74238
936,609.708,4.70293
944,612.369,4.61083
952,615.033,4.54522
960,617.689,4.46598
968,620.347,4.34829
976,623.01,4.24425
984,625.663,4.11462
992,628.3202,3.97383
1000,630.98,3.81669
1008,633.638,3.63825
1016,636.298,3.44402
1024,638.963,3.25318
1032,641.623,3.03235
1040,644.287,2.80995
1048,646.958,2.58247
1056,649.6312,2.34473
1064,652.299,2.115
1072,654.974,1.88504
1080,657.65,1.66445
1088,660.331,1.44305
1096,663.006,1.21749
1104,665.682,1.00219
1112,668.36,0.8131398
1120,671.045,0.64812
1128,673.725,0.5066501
1136,676.407,0.3876202
1144,679.0869,0.29044
1152,681.76,0.21402
1160,684.433,0.14526
1168,687.1,0.09982995
1176,689.76,0.05834015
1184,692.4192,0.0288101
1192,695.081,0.0047025
1200,697.735,-1.19E-02
1208,700.393,-2.48E-02
1216,703.048,-3.39E-02
1224,705.702,-4.09E-02
1232,708.351,-4.83E-02
1240,711.005,-0.0531399
1248,713.667,-0.0524601
1256,716.328,-0.0570801
1264,718.989,-0.0582098
1272,721.643,-0.0568502
1280,724.305,-0.05956995
1288,726.962,-0.05855025
1296,729.6271,-0.05855025
1304,732.288,-0.0578699
1312,734.954,-0.05923005
1320,737.628,-0.05923005
1328,740.301,-0.0576499
1336,742.966,-0.06057975
1344,745.635,-0.05922015
1352,748.304,-0.06193
1360,750.971,-0.06373015
1368,753.6321,-0.05527995
1376,756.2991,-0.0613602
1384,758.964,-0.05764
1392,761.631,-0.05900015
1400,764.2972,-0.0609202
1408,766.959,-0.05978995
1416,769.618,-0.03600025
1424,772.281,-0.0715099
1432,774.95,-0.0531399
1440,777.614,-0.0671099
1448,780.2729,-0.04953025
1456,782.941,-0.0627198
1464,785.605,-0.0621599
1472,788.2757,-0.06057975
1480,790.941,-0.05989995
1488,793.604,-0.05922015
1496,796.271,-0.06057975
1504,798.949,-0.06056985
1512,801.617,-0.0580998
1520,804.28,-0.05967995
1528,806.95,-0.05945005
1536,809.619,-0.0608102
1544,812.296,-0.0582098
1552,814.963,-0.0568601
1560,817.626,-0.05911015
1568,820.292,-0.06045985
1576,822.954,-0.05911015
1584,825.621,-0.05483005
1592,828.285,-0.06519975
1600,830.952,-0.06306025
1608,833.6157,-0.06193
1616,836.273,-0.0615901
1624,838.938,-0.0575399
1632,841.607,-0.06023985
1640,844.279,-0.06046975
1648,846.937,-0.05494005
1656,849.606,-0.0609202
1664,852.278,-0.0624899
1672,854.944,-0.05572985
1680,857.612,-5.99E-02
1688,860.28,-6.26E-02
1696,862.946,-6.43E-02
1704,865.613,-6.16E-02
1712,868.283,-5.93E-02
1720,870.945,-5.54E-02
1728,873.612,-4.57E-02
1736,876.282,-7.20E-02
1744,878.948,-4.61E-02
1752,881.62,-7.03E-02
1760,884.293,-5.66E-02
1768,886.958,-6.02E-02
1776,889.6268,-4.10E-02
1784,892.296,-6.07E-02
1792,894.965,-6.15E-02
1800,897.635,-3.17E-02
1808,900.304,-7.57E-02
1816,902.966,-6.49E-02
1824,905.639,-5.91E-02
1832,908.31,-6.13E-02
1840,910.971,-6.40E-02
1848,913.638,-6.40E-02
1856,916.306,-6.16E-02
1864,918.971,-0.04219985
1872,921.639,-0.07714025
1880,924.3058,-0.0613602
1888,926.975,-0.06034985
1896,929.64,-0.0582098
1904,932.303,-0.05934005
1912,934.969,-0.06474985
1920,937.642,-0.0608102
1928,940.308,-0.06768025
1936,942.979,-0.0578699
1944,945.646,-0.0538098
1952,948.316,-0.0624899
1960,950.982,-0.06666
1968,953.646,-0.05923005
1976,956.316,-0.06057975
1984,958.987,-0.05709
1992,961.654,-0.0566302
2000,964.323,-0.05527995
2008,966.994,-0.0617001
2016,969.666,-0.05956005
2024,972.3349,-0.0612502
2032,975.005,-0.05606975
2040,977.674,-0.05549995
2048,980.336,-0.0613701
2056,983.006,-0.06035975
2064,985.678,-0.05900015
2072,988.344,-0.05900015
2080,991.008,-0.05043005
2088,993.672,-0.0629398
2096,996.341,-0.06193
2104,999.006,-0.05978995
2108,1000.34,-0.05978995