Folder: matl-db/PMMA/Calibration_Data/Edinburgh

Note: PMMA/Calibration_Data/Edinburgh/README.md
# University of Edinburgh

### Test Summary
Standard cone calorimeter tests were carried out on 100 x 100 x 6 mm slabs of cast black PMMA. Standard cone calorimeter sample holders were used to expose a 95 x 95 mm face of the material to the heating element. A Schmidt-boelter heat flux gauge was used to calibrate the conical heater to within 1% of the desired heat flux. 

For experiments 1-3 (both 25 and 65 kW/m2):

The sample was wrapped with 1 layer of aluminum foil to contain the melting of the PMMA slab over the course of the experiment. The foil was in contact with an aluminum block 10 mm thick with a hole milled for a 1 mm K-type thermocouple. The thermocouple was located 5 mm from the surface that was in contact with the foil. The remaining sample holder depth was filled with ceramic paper.

Before each trial the sample mass was recorded. The sample was observed to be entirely consumed in all of the experiments. The thermocouple wire leading from the sample holder was ran between the opening of the glass doors of the cone calorimeter so that the doors could remain closed. Some slack was provided in the cable to mitigate tension on the sample, however the mass readings may have been influenced by the presence of the thermocouple wire. The reported mass includes the mass of the sample holder, aluminum block, and backing insulation. 

Difference between total mass lost and reported initial sample mass is generally within 5-10%; the highest difference observed was approximately 10 g. The difference in recorded mass loss and initial sample mass may be a result of the thermocouple wire interfering with load cell measurements.

For experiments 4-6 (both 25 and 65 kW/m2):

The sample was wrapped with 1 layer of aluminum foil to contain the melting of the PMMA slab over the course of the experiment. The sample was backed by 12 sheets of 3 mm thick Superwool XTRA Paper (per the product literature - avg density: ~200 kg/m3; Thermal conductivity 0.05 W/mK (200C), 0.08 W/mk (400C), 0.13 W/mK (600C), 0.3 W/m/K @ 1000)

No thermocouples were used in experiments 4-6. All mass was observed to be consumed. 


##### POSTPROCESSING NOTE: 
Sample Holder Mass was not tared prior to testing, thus initial mass in submitted datasets could be >1000g. All cone calorimeter mass data was thus postprocessed ("tared") such that the initial mass, m0_exp, was determined (5s average when readings were first steady) and the difference (m_diff = m0_exp - m0) between this value and the reported initial mass of the sample (m0) was calculated. ALL reported mass values where then reduced by m_diff.

HRR was reported in units of [kW]. All cone calorimeter HRR data was thus scaled by initial sample surface area (i.e., 1/ (95 x 95 mm)) to report HRR per unit area [kW/m2]


#### Experimental Conditions
* Extraction flow rate: 24L/s nominal
* Sample Surface Area: 0.009 m2 (nominal)
* Note: Samples were 10x10cm, but supported in holders that exposed a 95 x 95 mm face of the material to

File: Edinburgh_Cone_25kW_1.csv
Time,Mass,HRR,Temperature Backing Centre
[s],[g],[kW/m2],[K]
0,68.4,0.09,286.25
5.07,69.93,0.09,286.25
10.14,69.94,3.15,286.15
15.21,69.97,2.96,286.25
20.28,70,3.07,286.25
25.35,70.01,3.04,286.25
30.42,69.99,3.08,286.35
35.49,69.99,6.38,286.35
40.56,41.29,6.17,286.45
45.63,43.58,6.2,286.45
50.7,42.7,2.64,286.55
55.77,42.67,2.75,286.65
60.84,42.64,-0.57,286.75
66.92,42.56,-0.5,286.95
71.99,42.46,-0.29,287.05
77.58,42.37,-0.16,287.25
82.13,42.3,-0.03,287.45
87.2,42.24,0.02,287.65
92.29,42.16,0.19,287.85
97.36,42.07,0.09,288.05
102.43,41.88,-0.1,288.25
107.5,41.38,0.01,288.55
112.57,40.81,0.01,288.85
117.64,40.52,11.33,289.15
122.71,39.95,56.61,289.45
127.78,39.35,111.67,289.75
132.85,38.62,160.04,290.25
138.93,37.9,216.01,290.85
144,37.27,232.39,291.35
149.07,36.62,244.08,291.75
154.14,35.98,266.98,292.35
159.21,35.36,277.78,292.95
164.28,34.72,286.27,293.45
169.48,34.06,295.31,294.05
174.42,33.3,296.23,294.75
179.67,32.76,297.72,295.35
184.56,32.11,296.85,295.95
189.63,31.46,297.34,296.55
194.7,30.78,302.53,297.25
199.77,30.07,318.21,297.95
204.84,29.43,316.86,298.55
209.91,28.73,300.52,299.25
214.98,28.08,316.14,299.95
220.05,27.38,325.59,300.65
225.12,26.7,316.08,301.35
230.19,26.01,317.09,302.05
235.26,25.38,322.06,302.75
240.33,24.74,325.06,303.45
245.4,24.05,322.38,304.25
250.48,23.36,325.53,304.95
255.55,22.67,317.11,305.65
260.62,21.96,325.66,306.45
265.69,21.23,333.37,307.15
270.76,20.53,324.76,307.85
275.83,19.67,325.76,308.65
281.19,19.05,328.64,309.35
285.97,18.29,335.31,310.05
291.04,17.56,336.62,310.85
296.11,16.82,351.38,311.55
301.18,16.03,346.24,312.35
306.25,15.31,347.73,313.05
311.32,14.57,354.93,313.75
316.39,13.93,350.3,314.55
321.46,13.16,351.8,315.25
326.53,12.31,366.5,316.05
331.6,11.52,363.54,316.85
336.67,10.65,389.88,317.65
341.74,9.82,372.75,318.45
346.81,8.94,381.78,319.25
351.88,8.11,387.97,320.15
356.95,7.3,380.36,321.05
362.02,6.49,390.7,321.95
367.09,5.7,392.24,322.95
372.16,4.89,396.11,324.05
377.23,3.99,393.1,325.25
382.53,3.32,383.78,326.25
387.37,2.58,386.9,327.45
392.44,1.8,390.38,328.65
397.51,1.09,380.88,329.85
402.58,0.37,381.73,331.15
407.65,-0.35,380.72,332.55
412.72,-1.07,371.51,333.95
417.79,-1.75,358.78,335.45
422.86,-2.4,356.16,336.95
427.93,-3.02,352.12,338.45
433,-3.64,347.31,340.05
438.07,-4.28,333.2,341.55
443.14,-4.88,325.51,343.25
448.21,-5.49,319.51,344.85
453.28,-6.06,314.82,346.55
458.35,-6.66,298.25,348.25
463.42,-7.2,300.21,349.95
468.49,-7.76,288.3,351.65
473.56,-8.34,286.99,353.45
478.63,-8.99,280.32,355.45
483.96,-9.43,278.35,357.05
488.77,-9.97,271.4,358.85
493.84,-10.48,265.42,360.65
498.91,-10.98,266.56,362.55
503.98,-11.47,260.94,364.45
509.05,-12.01,264.21,366.35
514.12,-12.45,260.71,368.25
519.19,-12.9,247.44,370.15
524.26,-13.33,246.26,372.05
529.33,-13.74,232.2,374.05
534.4,-14.14,237.42,375.95
539.47,-14.52,228.66,377.95
544.54,-14.85,219.03,379.95
549.61,-15.18,206.22,381.95
554.68,-15.49,201.25,383.95
559.75,-15.77,192.84,386.15
564.82,-16.01,183.52,388.35
569.89,-16.26,169.48,390.45
574.96,-16.47,157.55,392.65
580.03,-16.69,145.21,395.25
586.11,-16.89,129.45,397.35
591.18,-17.07,117.71,399.55
596.25,-17.24,111.56,401.75
601.32,-17.39,103.4,403.85
606.39,-17.54,95.85,405.95
611.46,-17.72,90.02,408.15
616.53,-17.88,85.57,410.35
621.6,-18.02,81.66,412.45
626.67,-18.17,73.98,414.45
631.74,-18.29,72,416.45
636.81,-10.34,72.64,418.55
641.88,-7.3,69.33,420.55
646.95,-7.52,69.24,422.55
652.02,-7.7,68.88,424.65
657.09,-7.84,66.01,426.75
662.16,-8.06,65.44,428.85
667.23,-8.3,64.73,430.95
672.3,-8.45,62.63,432.95
677.37,-8.61,59.96,434.85
682.44,-8.72,58.52,436.95
687.71,-8.83,54.07,438.65
692.58,-8.94,51.39,440.55
697.65,-9.05,51.48,442.25
702.72,-9.16,50.24,444.15
707.79,-9.28,50.32,445.95
712.86,-9.38,50.42,447.75
717.93,-9.54,46.5,449.55
723,-9.78,47.58,451.35
728.07,-9.96,47.16,453.15
733.14,-10.1,46.79,454.95
738.21,-10.24,46.26,456.65
743.28,-10.37,43.75,458.35
748.35,-10.48,44.37,459.95
753.42,-10.6,40.43,461.65
758.49,-10.77,42.07,463.35
763.56,-10.85,41.08,465.05
768.63,-10.95,38.44,466.65
773.7,-11.07,38.55,468.25
778.77,-11.14,39.43,469.75
783.84,-11.29,39.93,471.45
789.14,-11.4,35.7,472.85
793.97,-11.48,36.45,474.35
799.04,-11.59,36.57,475.85
804.11,-11.66,33.99,477.25
809.18,-11.75,33.72,478.65
814.25,-11.82,30.44,479.95
819.32,-11.88,30.41,481.35
824.39,-11.97,30.94,482.65
829.46,-12.04,27.96,483.95
834.53,-12.13,28.2,485.25
839.6,-12.18,29.08,486.55
844.67,-12.24,24.99,487.95
849.74,-12.34,25.57,489.25
854.81,-12.39,25.35,490.55
859.88,-12.47,25.91,491.85
864.95,-12.55,25.97,493.05
870.02,-12.6,25.52,494.25
875.09,-12.68,23.02,495.45
880.16,-12.71,22.95,496.65
885.23,-12.81,22.46,497.95
890.6,-12.86,23.7,498.95
895.37,-12.94,23.76,500.15
900.49,-12.99,23.11,501.15
905.51,-13.06,19.69,502.35
910.58,-13.1,19.78,503.45
915.65,-13.17,20.02,504.55
920.72,-13.22,20,505.65
925.79,-13.29,20.28,506.65
930.86,-13.35,20.39,507.75
935.93,-13.42,20.04,508.75
941,-13.44,20.34,509.75
946.07,-13.49,23.66,510.75
951.14,-13.52,23.25,511.75
956.21,-13.55,23.94,512.75
961.28,-13.88,19.99,513.75
966.35,-16.73,20.27,514.65
971.42,-11.06,16.99,515.55
976.49,-8.37,16.65,516.45
981.56,-8.43,16.71,517.35
986.63,-8.5,16.9,518.35
992.06,-8.55,20.16,519.15
996.77,-8.64,20.53,520.05
1001.84,-8.69,20.69,520.85
1006.91,-8.78,16.79,521.75
1011.98,-8.81,17.79,522.65
1017.05,-8.88,17.51,523.45
1022.12,-8.92,17.58,524.25
1027.19,-8.99,17.62,525.15
1032.26,-9.05,17.26,525.95
1037.33,-9.09,17.27,526.75
1042.4,-9.14,17.46,527.55
1047.47,-9.19,13.5,528.35
1052.54,-9.24,13.88,529.15
1057.61,-9.28,13.98,529.85
1062.68,-9.33,14.06,530.75
1067.75,-9.38,14.3,531.45
1072.82,-9.43,14.04,532.25
1077.89,-9.46,14.65,532.95
1082.96,-9.5,10.79,533.75
1088.04,-9.57,11.2,534.55
1093.37,-9.62,11.3,535.25
1098.18,-9.67,11.06,536.05
1103.25,-9.71,11.04,536.75
1108.32,-9.77,10.9,537.45
1113.39,-9.83,10.92,538.15
1118.46,-9.86,11.29,538.85
1123.53,-9.89,10.83,539.65
1128.6,-9.92,10.91,540.35
1133.67,-9.95,10.65,541.05
1138.74,-10.02,10.94,541.65
1143.81,-10.07,11.02,542.35
1148.88,-10.14,10.99,543.05
1153.95,-10.17,11.41,543.75
1159.02,-10.19,11.3,544.35
1164.09,-10.21,7.97,545.05
1169.16,-10.25,8.16,545.75
1174.23,-10.27,7.96,546.45
1179.3,-10.31,8.13,547.15
1184.37,-10.35,8.02,547.75
1189.44,-10.38,7.77,548.45
1194.82,-10.43,8.12,549.05
1199.58,-10.46,7.93,549.65
1204.65,-10.51,8.3,550.25
1209.72,-10.54,8.56,550.85
1214.79,-10.64,4.89,551.45
1219.86,-10.62,5.14,552.05
1224.93,-10.75,5.19,552.65
1227.97,-10.71,5.07,553.05

File: Edinburgh_Cone_25kW_2.csv
Time,Mass,HRR,Back Temp
[s],[g],[kW/m2],[K]
0,12.2867,-0.2,289.25
5.1,51.8667,-0.3,289.25
10.1,21.9867,2.9,289.35
15.2,69.1767,3,289.35
20.3,69.1667,2.7,289.35
25.3,69.1667,2.8,289.35
30.4,69.1467,6.2,289.35
35.5,69.1167,5.6,289.45
40.6,69.0767,5.7,289.45
45.6,69.0467,2.2,289.55
50.7,69.0267,2.4,289.65
55.8,68.9667,-0.9,289.75
60.8,68.9267,-0.8,289.75
66.7,68.8567,-0.6,289.95
71,68.8767,-0.6,290.05
76.1,68.8567,-0.3,290.15
81.1,68.8167,-0.4,290.35
86.2,68.7967,-3.7,290.55
91.3,68.7467,-3.9,290.75
96.3,68.7067,-0.4,290.95
101.4,68.6367,-4.1,291.15
106.5,68.5267,-1.7,291.45
111.5,68.2267,-0.7,291.75
116.6,67.6667,-0.5,292.05
121.7,67.0567,8.8,292.45
126.8,66.4567,49.7,292.95
131.8,65.8267,104,293.55
136.9,65.2067,162.3,294.15
142,64.5667,202.4,294.85
147,63.9367,225.4,295.55
152.1,63.2967,251.5,296.25
157.2,62.6567,259.3,296.85
162.2,62.0067,275.9,297.55
168.1,61.2467,284,298.35
172.4,60.7067,291.6,299.05
177.5,60.0567,289.1,299.75
182.5,59.3967,301.7,300.45
187.6,58.7467,293.7,301.15
192.7,58.1067,296.3,301.85
197.7,57.5167,302.1,302.55
202.8,56.8667,304.6,303.15
207.9,56.2367,300.2,303.85
212.9,55.5567,312.5,304.55
218,54.8767,297.8,305.15
223.1,54.2167,314.6,305.95
228.2,53.5567,310.5,306.65
233.2,52.9467,307.3,307.35
238.3,52.2967,312,308.05
243.4,51.6267,314.4,308.75
248.4,50.9767,316.3,309.45
253.5,50.3067,302.8,310.25
258.6,49.6267,300.9,310.95
263.6,48.9467,309.8,311.75
269.5,48.1667,315.6,312.55
273.8,47.5667,319.7,313.15
278.9,46.8567,313.2,313.85
283.9,46.1667,315.8,314.65
289,45.4567,321.8,315.45
294.1,44.7467,320,316.15
299.1,44.0567,324.6,316.95
304.2,43.3367,340.7,317.65
309.3,42.5867,325.1,318.45
314.3,41.8667,330,319.15
319.4,41.1267,330.3,320.25
325.5,40.2067,336.2,320.85
330.6,39.4567,337.2,321.65
335.6,38.7167,347.9,322.35
340.7,37.9367,344.7,323.15
345.8,37.1467,352.6,323.95
350.8,36.3667,340.6,324.75
355.9,35.5767,366.4,325.55
361,34.7867,364.5,326.55
366.1,34.0267,369.6,327.55
371.8,33.1467,372.5,328.75
376.2,32.4767,368.5,329.85
381.3,31.7167,365,331.05
386.3,30.9867,368.7,332.25
391.4,30.2467,365.3,333.45
396.5,29.5267,369.9,334.75
401.5,28.7767,367,336.05
406.6,28.0567,373.1,337.45
411.7,27.3567,361,338.85
416.8,26.7067,350.8,340.25
421.8,26.0067,346.5,341.75
426.9,25.3567,345.5,343.15
432,24.7267,334.8,344.65
437,24.0667,331.4,346.15
442.1,23.4667,320.1,347.65
447.2,22.9067,308.3,349.15
452.2,22.2867,296.3,350.65
457.3,21.7067,304.4,352.25
462.4,21.1267,294.8,353.85
467.5,20.5367,283.7,355.35
473.3,19.8667,288.5,357.15
477.6,19.3567,287.1,358.65
482.7,18.7267,281.2,360.35
487.8,18.2067,284.8,361.95
492.8,17.6467,285.8,363.75
497.9,17.1167,278.6,365.45
503,16.5467,275.3,367.15
508,16.0467,267.6,368.95
513.1,15.5367,268.2,370.75
518.2,15.0567,268.6,371.25
523.2,14.6067,253.8,370.95
528.3,14.0967,253.9,372.05
533.4,13.5867,245.8,375.35
538.5,13.2367,229.5,377.85
543.5,12.8767,230.5,380.05
548.6,12.4867,216.6,382.05
553.7,12.1267,208.3,384.15
558.7,11.8067,194,386.25
563.8,11.4667,192.5,388.35
568.9,11.1567,186.6,390.45
574.9,10.8367,173.7,392.95
579,10.5967,166.4,394.85
584.1,10.3567,156,397.05
589.2,10.0967,146.6,399.35
594.2,9.83667,144.6,401.65
599.3,9.60667,137.8,403.85
604.4,9.40667,132.4,406.15
609.4,9.18667,119.9,408.35
614.5,8.99667,117.2,410.55
619.6,8.80667,109.9,412.75
624.6,8.59667,105.2,414.95
629.7,8.46667,98.9,417.15
634.8,8.29667,93.1,419.25
639.9,8.10667,88.6,421.45
644.9,7.98667,85.8,423.45
650,7.84667,82.5,425.55
655.1,7.71667,76.5,427.65
660.1,7.62667,69.6,429.65
665.2,7.49667,66,431.65
670.3,7.37667,59.1,433.65
676.1,7.28667,59.9,435.75
680.4,7.23667,56.2,437.35
685.5,7.12667,53.9,439.15
690.5,6.99667,51.2,441.05
695.6,6.86667,47.8,442.85
700.7,6.71667,48.6,444.65
705.8,6.60667,45,446.45
710.8,6.51667,42.5,448.25
715.9,6.43667,43.2,450.05
721,6.34667,42.8,451.75
726,6.28667,39.3,453.45
731.1,6.24667,40.8,455.05
736.2,6.17667,36.8,456.65
741.2,6.08667,37.9,458.25
746.3,6.01667,34.7,459.85
751.4,5.92667,31.4,461.45
756.5,5.83667,31.7,463.15
761.5,5.76667,28.9,464.65
766.6,5.70667,29.1,466.15
771.7,5.59667,29.2,467.65
777.4,5.48667,28.3,469.25
781.8,5.44667,28.6,470.65
786.9,5.37667,28.9,472.05
791.9,5.30667,29.3,473.45
797,5.27667,30.1,474.85
802.1,5.21667,26.6,476.25
807.2,5.13667,26.6,477.75
812.2,5.09667,27.3,479.15
817.3,5.04667,27.3,480.55
822.4,4.95667,24.5,481.85
827.4,4.93667,24.7,483.25
832.5,4.89667,23.6,484.65
837.6,4.88667,24.1,485.95
842.6,4.84667,24.2,487.25
847.7,4.75667,24.2,488.55
852.8,4.70667,23.9,489.85
857.9,4.70667,24.2,491.15
862.9,4.63667,24.1,492.35
868,4.62667,20.7,493.65
873.1,4.54667,20.4,494.85
878.9,4.45667,20.7,496.25
883.2,4.40667,21.2,497.35
888.3,4.34667,21,498.45
893.3,4.25667,20.9,499.75
898.4,4.15667,21,500.95
903.5,4.15667,21.3,502.15
908.6,4.06667,21.6,503.35
913.6,4.03667,17.8,504.55
918.7,4.02667,18.2,505.75
923.8,3.90667,17.7,506.85
928.8,3.83667,18.2,508.05
933.9,3.79667,17.8,509.15
939,3.72667,18.4,510.35
944,3.69667,18.4,511.45
949.1,3.65667,19.2,512.55
954.2,3.57667,18.8,513.65
959.3,3.53667,18.9,514.85
964.3,3.49667,18,515.85
969.4,3.38667,18.5,516.95
974.5,3.33667,18.2,518.05
980.3,3.28667,18.6,519.25
984.6,3.25667,15.2,520.15
989.7,3.25667,15.4,521.25
994.7,3.19667,15.2,522.25
999.8,3.13667,15.4,523.25
1004.9,3.09667,15.8,524.25
1010,3.01667,15.3,525.25
1015,2.99667,15.6,526.25
1020.1,2.89667,15.7,527.25
1025.2,2.84667,15.9,528.25
1030.2,2.82667,15.8,529.25
1035.3,2.78667,15.5,530.25
1040.4,2.75667,15.4,531.25
1045.4,2.67667,15.6,532.15
1050.5,2.65667,15.4,533.15
1055.6,2.58667,15.8,534.15
1060.7,2.54667,16.2,535.05
1065.7,2.48667,12.5,535.95
1070.8,2.46667,12.7,536.95
1075.9,2.40667,13,537.85
1081.7,2.35667,13,538.95
1086,2.34667,12.7,539.65
1091.1,2.29667,12.7,540.55
1096.1,2.24667,12.7,541.35
1101.2,2.18667,12.9,542.25
1106.3,2.18667,12.8,543.15
1111.4,2.13667,13.2,543.95
1116.4,2.14667,9.8,544.65
1121.5,2.11667,10,545.55
1126.6,2.09667,9.8,546.25
1131.6,2.04667,10.2,547.05
1136.7,1.99667,10,547.85
1141.8,1.95667,10.2,548.75
1146.8,1.88667,10.3,549.45
1151.9,1.84667,10,550.25
1157,1.80667,10.2,551.05
1162.1,1.75667,10.2,551.85
1167.1,1.70667,10,552.55
1172.2,1.68667,10.1,553.25
1177.3,1.65667,10,554.05
1183.3,1.60667,10.1,554.75
1187.4,1.60667,6.6,555.45
1192.5,1.58667,7,556.15
1197.6,1.63667,7.1,556.75
1202.6,1.57667,7.2,557.35
1207.7,1.52667,6.8,558.05
1212.8,1.49667,3.5,558.75
1217.8,1.48667,7.2,559.35
1222.9,1.45667,3.8,559.95
1228,1.43667,3.8,560.55
1233,1.40667,3.9,561.15

File: Edinburgh_Cone_25kW_3.csv
Time,Mass,HRR,Temperature Backing Centre
[s],[g],[kW/m2],[K]
0,73.7871,0.1,290.15
5.1,66.7271,0.1,290.25
10.1,73.5571,-0.1,290.25
15.2,73.4471,-0.1,290.35
20.3,73.3471,-0.1,290.45
25.3,73.2271,0,290.45
30.4,73.1571,-0.3,290.55
35.5,73.0671,-0.2,290.65
40.6,73.0371,-0.3,290.75
45.6,73.0271,0.1,290.75
50.7,73.0471,0,290.95
55.8,73.0371,0.1,291.05
60.8,73.0571,-0.2,291.15
65.9,73.0571,-0.1,291.35
71,73.0271,-0.2,291.45
76,73.0171,0,291.65
81.1,73.0071,-0.3,291.85
86.2,72.9871,-0.2,292.05
91.3,72.9871,-0.2,292.35
96.3,72.9871,-3.8,292.55
101.4,72.8571,-0.1,292.85
106.5,72.5571,0,293.15
111.5,72.0371,0,293.55
116.6,71.4771,11.5,293.75
121.7,70.8971,51.4,294.15
126.8,70.3271,109.2,294.45
131.8,69.7271,161.3,294.95
136.9,69.1171,197.9,295.35
142,68.4871,224.1,295.85
147,67.8971,248,296.45
152.1,67.3571,255.8,296.95
157.2,66.6971,267.5,297.65
162.2,66.0371,275,298.35
167.3,65.3371,275.8,298.95
172.4,64.6671,290.7,299.55
177.5,64.0271,287.9,300.25
182.5,63.3871,299.9,300.85
187.6,62.7171,306.5,301.55
192.7,62.0171,308.3,302.25
197.7,61.3571,312.9,302.95
202.8,60.7071,314.7,303.65
207.9,60.0471,302.5,304.45
212.9,59.3671,315.5,305.15
218,58.7071,318.2,305.85
223.1,58.0271,312.1,306.55
228.2,57.3271,311.4,307.25
233.2,56.6571,307.2,307.85
238.3,55.9871,307,308.55
243.4,55.2871,321.2,309.25
248.4,54.6071,313.7,309.95
253.5,53.9371,311.5,310.55
258.6,53.2071,313.5,311.25
263.6,52.5071,318.2,312.05
268.7,51.8371,318.4,312.55
273.8,51.0971,320.7,313.25
278.9,50.3571,333.3,313.85
283.9,49.6271,330.2,314.55
289,48.9271,336,315.25
294.1,48.2071,330.2,315.95
299.1,47.4271,350.5,316.65
304.2,46.6771,332.4,317.35
309.3,45.9371,341.8,317.95
314.3,45.1571,340.6,318.65
319.4,44.3671,338.3,319.35
324.5,43.5571,350.4,319.95
329.6,42.7771,343.7,320.65
334.6,41.9471,343.8,321.35
339.7,41.1471,356.4,322.15
344.8,40.3071,370.7,322.75
349.8,39.4371,376.7,323.45
354.9,38.5671,375.3,324.15
360,37.7071,373.4,324.85
365,36.8671,390.3,325.65
370.1,35.9871,390.2,326.25
375.2,35.1371,388.5,327.05
380.3,34.2971,396.9,327.85
385.3,33.4171,401.9,328.65
390.4,32.5671,402.7,329.55
395.5,31.7071,406.4,330.35
400.5,30.8371,402,331.35
405.6,29.9871,411.5,332.35
410.7,29.1071,402.8,333.45
415.7,28.2871,406.8,334.55
420.8,27.4671,403.7,335.65
425.9,26.6671,408.9,336.85
431,25.9271,400.2,338.05
436,25.1971,397.3,339.25
441.1,24.4271,391,340.45
446.2,23.6971,390.8,341.75
451.2,22.9671,375.8,343.05
456.3,22.2571,375.1,344.35
461.4,21.5671,374.4,345.65
466.4,20.8871,356,347.25
471.5,20.1771,347.9,348.35
476.6,19.4871,352.4,349.85
481.7,18.8671,343,351.25
486.7,18.1971,331,352.65
492.5,17.4471,330.3,354.25
496.9,16.8971,323.6,355.55
501.9,16.2371,319.4,357.05
507,15.6471,316.2,358.55
512.1,15.0871,318.2,360.05
517.1,14.5571,310.8,361.65
522.2,14.0471,308.2,363.25
527.3,13.6171,293.2,364.85
532.4,13.1971,285.4,366.55
537.4,12.8071,266.7,368.35
542.5,12.4471,250.7,370.15
547.6,11.9771,235.2,371.95
552.6,11.5971,212.1,373.75
557.7,11.3371,204.5,375.65
562.8,11.0671,186.4,377.45
567.8,10.8071,165.8,379.65
572.9,10.5671,159.6,381.35
578,10.3571,147.6,383.35
583.1,10.1771,138,385.45
588.1,9.97714,131.9,387.45
593.2,9.78714,121.9,389.55
598.3,9.62714,116.3,391.55
603.3,9.45714,109.3,393.65
608.4,9.30714,101.7,395.65
613.5,9.13714,93.8,397.65
618.5,8.99714,88.7,399.75
623.6,8.84714,84.9,401.75
628.7,8.70714,79.6,403.75
633.8,8.59714,76.6,405.75
638.8,8.45714,71.5,407.75
643.9,8.35714,67.4,409.75
649,8.23714,65.6,411.65
654,8.13714,59.3,413.55
659.1,8.04714,55.8,415.45
664.2,7.94714,54.3,417.25
669.2,7.85714,51.2,419.45
674.3,7.77714,52.3,420.85
679.4,7.68714,48.5,422.65
684.4,7.60714,46.9,424.25
689.5,7.49714,44.6,425.95
694.6,7.40714,40.2,427.65
699.7,7.32714,40.9,429.25
704.7,7.26714,41.4,430.85
709.8,7.18714,38.6,432.35
714.9,7.10714,37.4,433.95
719.9,7.02714,38.8,435.45
725,6.93714,36.1,436.95
730.1,6.86714,35.9,438.45
735.1,6.79714,36.3,439.95
740.2,6.72714,36.8,441.45
745.3,6.64714,33.3,442.85
750.4,6.60714,32.9,444.35
755.4,6.53714,33.2,445.75
760.5,6.45714,32.9,447.15
765.6,6.38714,30.2,448.55
770.6,6.32714,30.1,450.15
775.7,6.23714,30.1,451.25
780.8,6.19714,30.8,452.55
785.8,6.08714,30.8,453.95
790.9,6.05714,30.7,455.25
796,5.98714,31.1,456.55
801.1,5.90714,31.1,457.85
806.1,5.83714,31.1,459.15
811.2,5.74714,31.2,460.45
816.3,5.71714,31.4,461.65
821.3,5.65714,30.7,462.95
826.4,5.55714,31.3,464.15
831.5,5.43714,27.5,465.45
836.5,5.36714,28.7,466.65
841.6,5.28714,28,467.85
846.7,5.22714,28.3,469.05
851.8,5.14714,28.8,470.25
856.8,5.09714,28.6,471.35
861.9,5.03714,28.2,472.55
867,4.96714,28.5,473.65
872,4.90714,29.3,475.05
877.1,4.83714,28,475.95
882.2,4.77714,28.7,477.05
887.2,4.67714,25.3,478.25
892.3,4.61714,28.4,479.35
897.4,4.56714,25.2,480.55
902.5,4.51714,25.1,481.65
907.5,4.44714,25.1,482.75
912.6,4.39714,25.1,483.85
917.7,4.25714,25,484.95
922.7,4.22714,25.2,485.95
927.8,4.14714,25.4,486.95
932.9,4.04714,25.4,488.05
937.9,4.00714,25.8,489.15
943,3.94714,25.5,490.05
948.1,3.88714,25.7,491.15
953.2,3.84714,26.1,492.15
958.2,3.78714,25.9,493.25
963.3,3.70714,25.4,494.15
968.4,3.62714,26.1,495.25
973.4,3.57714,26.2,496.45
978.5,3.51714,25.6,497.25
983.6,3.42714,25.9,498.25
988.6,3.36714,25.4,499.25
993.7,3.28714,26.4,500.25
998.8,3.23714,25.5,501.15
1003.9,3.18714,26.1,502.05
1008.9,3.11714,25.5,503.05
1014,3.04714,26,503.95
1019.1,2.99714,22.4,504.95
1024.1,2.94714,22.3,505.85
1029.2,2.89714,22.8,506.85
1034.3,2.83714,22.6,507.75
1039.3,2.77714,22.7,508.65
1044.4,2.71714,22.3,509.55
1049.5,2.67714,22.6,510.45
1054.6,2.59714,22.8,511.35
1059.6,2.55714,22.6,512.25
1064.7,2.51714,23.1,513.15
1069.8,2.45714,18.9,514.05
1074.8,2.39714,19,515.05
1079.9,2.32714,19,515.85
1085,2.28714,19.7,516.75
1090,2.19714,19.7,517.55
1095.1,2.13714,19.4,518.45
1100.2,2.08714,19.3,519.25
1105.3,2.01714,19.8,520.05
1110.3,1.95714,19.6,520.95
1115.4,1.94714,19.9,521.75
1120.5,1.91714,15.9,522.65
1125.5,1.84714,16.4,523.35
1130.6,1.77714,15.9,524.15
1135.7,1.70714,16.1,524.95
1140.7,1.65714,16.1,525.75
1145.8,1.61714,16.5,526.55
1150.9,1.55714,16.6,527.25
1156,1.51714,16.8,528.05
1161,1.44714,16.5,528.75
1166.1,1.43714,16.9,529.55
1171.2,1.38714,12.8,530.25
1176.2,1.29714,12.9,531.15
1182.4,1.26714,13,531.85
1187.4,1.21714,13.2,532.65
1192.5,1.17714,13.3,533.35
1197.5,1.14714,13.6,534.05
1202.6,1.08714,13.2,534.75
1207.7,1.07714,10.1,535.45
1212.7,1.03714,10,536.15
1217.8,0.967143,10,536.85
1222.9,0.957143,9.8,537.55
1228,0.927143,10,538.15
1233,0.897143,10,538.85
1238.1,0.877143,10.5,539.45
1243.2,0.807143,10.4,540.15
1248.2,0.777143,10.7,540.85
1253.3,0.787143,10.5,541.55
1258.4,0.737143,11,542.15
1263.4,0.677143,10.8,542.75
1268.5,0.647143,7.9,543.35
1273.6,0.597143,7.5,544.05
1278.7,0.577143,7.8,544.75
1283.7,0.547143,7.8,545.25
1288.8,0.517143,7.8,545.85
1293.9,0.477143,7.8,546.45
1298.9,0.437143,7.6,547.05
1304,0.387143,7.7,547.75
1309.1,0.377143,8,548.25
1314.1,0.337143,7.8,548.95
1319.2,0.287143,8.2,549.45
1324.3,0.247143,8.1,550.05
1329.4,0.247143,8.1,550.55
1334.4,0.207143,8,551.15
1339.5,0.197143,7.9,551.65
1344.6,0.197143,4.5,552.15
1349.6,0.167143,4.4,552.75
1354.7,0.127143,4.4,553.25
1359.8,0.0971429,4.5,553.75
1364.9,0.0471429,4.3,554.25