Folder: matl-db/PMMA/Calibration_Data/Edinburgh (part 3)

File: Edinburgh_Cone_65kW_3.csv
Time,Mass,HRR,Back Temp
[s],[g],[kW/m2],[K]
0,71.366,-3.1,301.55
2,71.646,-3.2,301.55
4.1,71.626,-3,301.65
6.1,71.606,-3.3,301.65
8.1,71.586,0.3,301.75
10.1,71.566,0.1,301.75
12.2,71.526,0.2,301.75
14.2,71.466,0.2,301.85
16.2,71.326,0.3,301.95
18.3,71.136,0.1,301.95
20.3,70.836,-0.1,301.95
22.3,70.396,-0.2,302.05
24.3,69.916,-0.2,302.15
26.4,69.446,-0.1,302.25
28.4,68.986,-0.1,302.25
30.4,68.516,5.3,302.35
32.4,68.046,17.7,302.45
34.5,67.566,47.8,302.55
36.5,67.066,90.5,302.65
40.6,66.006,178.2,302.95
42.6,65.456,209.6,303.05
44.6,64.936,263.7,303.15
46.6,64.376,303.8,303.25
48.7,63.806,330.9,303.45
50.7,63.286,387.9,303.55
52.7,62.756,388.1,303.75
54.8,62.216,426.3,303.85
56.8,61.666,439,304.15
58.8,61.126,492.1,304.15
60.8,60.566,493.1,304.35
62.9,60.006,496.9,304.55
64.9,59.426,539,304.75
66.9,58.866,515.3,304.85
69,58.316,554.1,305.15
71,57.766,571.1,305.35
73,57.206,569.9,305.55
75,56.656,567.5,305.95
77.9,55.856,576.9,306.15
79.4,55.476,579.2,306.35
81.1,55.026,608.6,306.75
83.1,54.476,608,307.05
85.2,53.926,593.6,307.45
87.2,53.366,608.6,307.85
89.2,52.826,620.2,308.25
91.3,52.276,655.6,308.75
93.3,51.696,627.6,309.15
95.3,51.106,659.1,309.65
97.3,50.526,637.5,310.05
99.4,49.946,681.6,310.55
101.4,49.356,660.8,310.95
103.4,48.766,651.8,311.45
105.5,48.196,627.9,311.95
107.5,47.606,638.6,312.35
109.5,47.046,622.8,312.95
112.3,46.276,630.4,313.15
113.8,45.826,641.2,313.45
115.6,45.296,683.7,313.75
117.6,44.696,676.3,314.15
119.7,44.106,644,314.45
121.7,43.496,658.2,314.75
123.7,42.896,687.1,315.05
125.7,42.316,685.6,315.45
127.8,41.726,699,315.75
129.8,41.136,655.7,316.05
131.8,40.536,708.5,316.45
133.8,39.936,664.8,316.75
135.9,39.316,677.7,317.15
137.9,38.696,705.5,317.55
139.9,38.076,702.8,317.85
142,37.456,696.9,318.15
144,36.826,684.1,318.55
146,36.206,695.6,318.95
148,35.556,714,319.35
150.1,34.906,718.5,319.65
152.1,34.246,703.2,319.95
154.1,33.586,718.8,320.35
156.2,32.926,712.3,320.85
158.2,32.266,729.6,321.15
160.2,31.566,705,321.45
162.2,30.836,706,321.85
164.3,30.176,699.5,322.25
166.3,29.456,761.7,322.65
168.3,28.736,723.1,323.05
170.4,28.026,765.9,323.35
172.4,27.276,764.1,323.85
174.4,26.516,768.5,324.15
176.4,25.756,752.4,324.75
179.4,24.626,818.8,325.05
180.9,24.066,776.5,325.45
182.5,23.456,812.3,326.05
184.6,22.706,797.3,326.45
186.6,21.966,795.1,327.05
188.6,21.216,866.4,327.65
190.6,20.486,877.2,328.35
192.7,19.756,864.5,329.15
194.7,19.006,891.3,329.85
196.7,18.256,828.8,330.65
198.7,17.526,862.1,331.55
200.8,16.776,866.3,332.35
202.8,16.036,896.7,333.25
204.8,15.316,930.6,334.25
206.9,14.596,862.2,335.25
208.9,13.846,906.7,336.25
210.9,13.116,843.1,337.25
212.9,12.366,885.4,338.35
215,11.666,927,339.25
217,10.996,930.6,340.05
219,10.296,910.7,341.05
221.1,9.646,909.7,342.05
223.1,9.046,979.4,343.05
225.1,8.506,992.5,344.15
227.1,7.996,1008,345.15
229.2,7.536,992.9,346.35
231.2,7.126,1017.5,347.85
233.2,6.776,1043.9,349.55
235.2,6.456,1026.1,351.25
237.3,6.196,1028.7,352.85
239.3,5.956,969.4,354.45
241.3,5.716,970.5,356.05
243.4,5.496,888.4,357.75
245.4,5.276,843.7,359.45
247.4,5.066,818.5,361.05
249.4,4.866,755.9,362.85
251.5,4.656,677.4,364.65
253.5,4.456,627.3,366.35
255.5,4.246,580.1,367.95
257.6,4.036,521.2,369.55
259.6,3.836,493.5,370.85
261.6,3.626,459.6,371.25
263.6,3.406,432,370.85
265.7,3.216,400.4,370.55
267.7,3.006,371.2,370.75
269.7,2.826,356.3,370.95
271.8,2.656,336.3,371.35
273.8,2.486,318.7,373.25
275.8,2.316,304.9,377.75
277.8,2.176,279.4,382.05
280.6,1.986,276.6,383.75
282.1,1.896,260.2,385.55
283.9,1.766,262.4,387.25
285.9,1.596,242,388.95
288,1.476,238.9,390.45
290,1.346,231.6,391.95
292,1.216,220.9,393.45
294.1,1.096,217.9,394.85
296.1,0.976,213.9,396.25
298.1,0.886,207.3,397.85
300.1,0.776,206.5,399.15
302.2,0.686,201.9,400.75
304.2,0.616,196.1,402.15
306.2,0.516,188.9,403.65
308.3,0.416,181.3,405.05
310.3,0.326,170.9,406.35
312.3,0.226,170.4,407.65
314.3,0.156,164.1,408.85
316.4,0.076,161,410.15
318.4,-0.014,151.1,411.45
320.4,-0.094,147.5,412.65
322.5,-0.174,137.6,413.85
324.5,-0.244,132.4,414.95
326.5,-0.314,132.2,416.05
328.5,-0.364,125.8,417.25
330.6,-0.444,119.9,418.35
332.6,-0.504,118,419.35
334.6,-0.544,114,420.45
336.7,-0.604,111.8,421.45
338.7,-0.684,107.2,422.55
340.7,-0.724,103.9,423.65
342.7,-0.794,102.3,424.65
344.8,-0.834,96.7,425.65
346.8,-0.874,92.3,426.65
348.8,-0.944,91.9,427.55
350.8,-0.974,90.7,428.35
352.9,-1.014,85.7,429.35
354.9,-1.064,83.3,430.25
356.9,-1.094,81.1,431.05
359,-1.154,80,431.95
361,-1.204,78,432.85
363,-1.254,75.6,433.75
365,-1.284,72.7,434.65
367.1,-1.344,70.8,435.55
369.1,-1.374,69.1,436.45
371.1,-1.414,65.8,437.35
373.2,-1.414,62,438.15
375.2,-1.474,61.4,439.05
377.2,-1.514,61.5,439.95
379.2,-1.564,59.4,441.15
382,-1.604,56.5,441.95
383.5,-1.634,54.7,442.65
385.3,-1.654,51.7,443.45
387.4,-1.674,52.6,444.35
389.4,-1.704,50,445.15
391.4,-1.734,50.9,445.95
393.4,-1.764,48.6,446.75
395.5,-1.794,45.9,447.55
397.5,-1.814,46.2,448.35
399.5,-1.834,42.5,449.15
401.5,-1.854,39.8,449.95
403.6,-1.864,40.8,450.75
405.6,-1.884,37.9,451.45
407.6,-1.884,35.2,452.15
409.7,-1.894,34.9,452.95
411.7,-1.904,33.2,453.65
413.7,-1.914,30.2,454.45
415.7,-1.924,31.2,455.15
417.8,-1.924,27.6,455.95
419.8,-1.934,27.8,456.65
421.8,-1.944,25.3,457.35
423.9,-1.964,25.9,458.05
425.9,-1.974,23.4,458.75
427.9,-1.974,23.5,459.45
429.9,-1.994,20.5,460.15
432,-2.004,20.6,460.85
434,-2.004,17.6,461.55
436,-2.004,17.6,462.25
438.1,-2.004,15.5,462.95
440.1,-2.004,15.4,463.55
442.1,-2.004,12.7,464.25
444.1,-2.004,12.5,464.95
446.2,-2.004,12.5,465.65
448.2,-2.024,12.9,466.25
450.2,-2.014,13,466.95
452.2,-2.044,10.3,467.65
454.3,-2.044,10.3,468.35
456.3,-2.044,10.3,468.95
458.3,-2.054,10.4,469.65
460.4,-2.064,10.2,470.35
462.4,-2.074,10.8,470.95
464.4,-2.074,10.3,471.55
466.4,-2.074,10.7,472.25
468.5,-2.084,7.6,472.85
470.5,-2.084,7.8,473.55
472.5,-2.084,8,474.15
474.6,-2.084,8,474.75

File: Edinburgh_Cone_65kW_4.csv
Time,Mass,HRR
[s],[g],[kW/m2]
0,71.16,-0.01795
2,71.66,0.0173823
4,72.16,0.0865367
6.01,72.7,-0.0352042
8.03,73.23,-0.0481364
10.06,73.8,-0.0147927
12.08,74.38,0.0339699
14.09,74.94,0.136878
16.11,75.53,2.56863
18.12,76.11,8.56585
20.12,76.71,21.2906
22.13,77.31,43.7739
24.13,77.89,60.9933
26.13,78.51,97.3129
28.12,79.11,140.314
30.13,79.72,168.015
32.13,80.34,221.225
34.12,80.95,251.63
36.14,81.58,284.716
38.16,82.19,312.881
40.16,82.81,386.79
42.17,83.43,415.747
44.17,84.05,447.535
46.18,84.69,446.139
48.18,85.32,497.424
50.19,85.94,488.192
52.19,86.56,534.255
54.2,87.22,539.032
56.22,87.86,579.89
58.21,88.5,577.52
60.21,89.13,590.781
62.23,89.78,635.477
64.23,90.41,621.664
66.24,91.04,632.497
68.25,91.69,648.152
70.26,92.34,662.066
72.25,93.01,652.355
74.25,93.67,696.823
76.24,94.31,669.966
78.26,94.97,680.499
80.26,95.65,713.144
82.26,96.3,678.866
84.26,96.96,700.203
86.26,97.63,707.903
88.25,98.3,733.055
90.25,98.99,736.672
92.25,99.66,719.93
94.25,100.33,732.206
96.26,101.03,723.699
98.26,101.72,732.27
100.25,102.41,709.303
102.25,103.13,756.074
104.25,103.85,720.703
106.26,104.56,739.584
108.26,105.29,770.628
110.26,106.01,742.525
112.25,106.74,742.52
114.25,107.48,715.778
116.26,108.25,709.768
118.25,109.02,750.982
120.24,109.81,721.616
122.26,110.62,703.494
124.25,111.42,768.166
126.26,112.25,747.244
128.25,113.11,757.999
130.24,113.97,733.067
132.26,114.84,767.636
134.25,115.72,756.433
136.25,116.6,838.944
138.25,117.48,788.243
140.24,118.36,786.845
142.24,119.25,738.054
144.25,120.18,802.676
146.25,121.12,795.113
148.25,122.07,808.392
150.25,123.04,914.282
152.24,123.99,858.816
154.25,124.91,861.84
156.25,125.84,891.814
158.26,126.67,928.321
160.26,127.42,963.867
162.26,128.09,1015.58
164.26,128.66,1103.73
166.24,129.13,1117.64
168.25,129.53,1167.85
170.26,129.89,1218.94
172.25,130.23,1238.01
174.24,130.56,1302.29
176.26,130.87,1280.2
178.26,131.17,1320.2
180.29,131.46,1364.53
182.28,131.71,1376.92
184.29,131.99,1386.79
186.3,132.25,1381.44
188.31,132.49,1346.05
190.32,132.74,1318.32
192.33,132.98,1268.77
194.34,133.22,1234.37
196.34,133.45,1176.77
198.34,133.68,1109.49
200.35,133.91,1037.34
202.34,134.14,980.5
204.35,134.37,950.546
206.36,134.59,875.624
208.38,134.79,820.052
210.37,135,767.126
212.37,135.2,705.351
214.38,135.4,688.67
216.38,135.6,631.889
218.42,135.77,593.319
220.44,135.95,547.824
222.45,136.13,511.912
224.48,136.32,493.04
226.5,136.48,469.928
228.5,136.66,445.722
230.49,136.83,428.869
232.5,136.99,404.547
234.5,137.15,387.677
236.49,137.31,372.666
238.5,137.46,359.498
240.5,137.61,345.544
242.5,137.74,336.039
244.51,137.88,323.072
246.71,138.02,308.766
248.5,138.14,303.567
250.51,138.27,290.521
252.49,138.39,283.518
254.5,138.51,273.62
256.5,138.63,269.753
258.5,138.74,262.789
260.5,138.84,253.127
262.5,138.95,248.328
264.5,139.05,244.609
266.5,139.16,230.382
268.5,139.26,224.652
270.5,139.36,223.424
272.5,139.44,221.166
274.5,139.53,213.747
276.5,139.61,207.615
278.5,139.69,197.826
280.51,139.76,194.064
282.53,139.82,192.628
284.54,139.9,183.387
286.56,139.96,179.828
288.56,140.02,171.045
290.6,140.07,167.425
292.61,140.12,164.066
294.62,140.18,159.518
296.62,140.23,157.885
298.63,140.28,150.128
300.63,140.32,143.252
302.62,140.34,137.526
304.63,140.39,137.205
306.63,140.43,131.517
308.62,140.47,129.153
310.62,140.51,122.879
312.63,140.52,119.045
314.63,140.57,113.554
316.63,140.61,109.008
318.63,140.65,107.672
320.63,140.67,99.269
322.63,140.69,98.7751
324.66,140.71,93.0314
326.66,140.74,91.3197
328.67,140.75,86.5106
330.67,140.78,82.9019
332.68,140.8,80.279
334.69,140.83,75.3711
336.7,140.86,73.0509
338.73,140.89,70.1102
340.72,140.91,66.3491
342.73,140.93,62.649
344.74,140.95,61.2569
346.76,140.97,58.9647
348.75,140.98,56.4116
350.75,140.99,54.4907
352.75,141.01,52.0555
354.74,141.02,49.837
356.75,141.04,50.304
358.76,141.04,48.0719
360.75,141.06,45.2481
362.76,141.07,46.617
364.78,141.09,42.9862
366.78,141.09,40.5368
368.81,141.11,40.3897
370.81,141.12,37.4066
372.81,141.14,37.9038
374.82,141.15,35.0901
376.83,141.16,35.4591
378.85,141.18,32.7429
380.86,141.19,33.2168
381.85,141.19,32.9156

File: Edinburgh_Cone_65kW_5.csv
Time,Mass,HRR
[s],[g],[kW/m2]
0.01,70.55,-0.230342
2,70.06,-0.203524
4.01,69.56,-0.170451
6.01,69.04,-0.26218
8,68.5,-0.167058
10,67.95,2.33646
12.01,67.41,2.37282
14.02,66.86,2.30238
16.02,66.3,4.76339
18.03,65.73,8.56666
20.05,65.16,22.1675
22.07,64.58,39.575
24.09,63.97,66.6781
26.09,63.36,97.4803
28.12,62.77,135.55
30.13,62.19,179.973
32.12,61.58,217.287
34.13,60.98,248.385
36.13,60.37,298.582
38.13,59.78,318.083
40.13,59.18,380.901
42.13,58.57,381.605
44.13,57.98,439.448
46.14,57.38,426.66
48.12,56.77,493.274
50.15,56.17,508.696
52.13,55.57,519.48
54.13,54.93,555.402
56.13,54.31,575.996
58.14,53.68,577.066
60.15,53.07,584.087
62.15,52.44,646.9
64.16,51.81,629.825
66.18,51.18,647.572
68.18,50.55,644.085
70.18,49.93,639.792
72.19,49.3,656.18
74.2,48.66,665.483
76.22,48.02,684.061
78.23,47.38,685.224
80.24,46.72,689.851
82.26,46.07,671.845
84.26,45.42,697.14
86.26,44.77,693.818
88.26,44.1,756.472
90.25,43.44,681.484
92.26,42.77,700.863
94.26,42.1,711.82
96.26,41.42,705.335
98.26,40.73,699.478
100.26,40.06,740.304
102.26,39.36,725.301
104.25,38.64,706.751
106.26,37.94,734.005
108.25,37.21,732.816
110.27,36.48,702.867
112.3,35.72,721.983
114.31,34.97,733.364
116.31,34.22,709.442
118.31,33.43,727.945
120.3,32.66,743.856
122.3,31.86,761.54
124.32,31.03,734.398
126.32,30.2,799.397
128.34,29.37,733.429
130.36,28.5,781.063
132.37,27.62,803.457
134.39,26.72,769.283
136.4,25.84,801.666
138.42,24.98,767.617
140.43,24.12,790.611
142.43,23.24,767.276
144.44,22.36,841.124
146.45,21.44,767.716
148.44,20.5,794.968
150.48,19.54,883.821
152.48,18.59,829.331
154.5,17.62,843.544
156.5,16.63,905.127
158.51,15.8,900.522
160.51,15.01,1006.35
162.5,14.35,1019.75
164.51,13.82,1056.23
166.51,13.38,1112.1
168.54,12.98,1151.48
170.53,12.62,1200.61
172.53,12.28,1228.46
174.54,11.97,1259.83
176.55,11.67,1298.98
178.57,11.39,1313.89
180.58,11.11,1326.79
182.6,10.84,1338.58
184.6,10.57,1383.3
186.61,10.31,1377.37
188.62,10.06,1333.29
190.63,9.8,1327.28
192.64,9.56,1271.01
194.65,9.33,1222.59
196.67,9.08,1166.87
198.67,8.87,1087.07
200.67,8.65,1047.86
202.69,8.42,974.524
204.71,8.21,908.381
206.72,8.01,858.297
208.74,7.8,806.244
210.76,7.6,758.287
212.75,7.42,695.309
214.75,7.24,646.583
216.76,7.05,618.191
218.76,6.87,573.925
220.75,6.69,555.563
222.76,6.52,515.162
224.76,6.36,492.29
226.76,6.18,466.082
228.76,6.02,447.98
230.75,5.87,414.601
232.76,5.69,392.275
234.76,5.53,390.459
236.76,5.37,369.977
238.76,5.24,351.499
240.76,5.07,341.72
242.76,4.93,323.667
244.76,4.77,314.973
246.75,4.61,301.783
248.76,4.47,297.475
250.75,4.34,283.66
252.76,4.2,279.329
254.76,4.07,270.167
256.75,3.94,260.294
258.76,3.8,253.458
260.76,3.67,249.929
262.76,3.55,244.425
264.75,3.43,233.117
266.76,3.31,231.104
268.76,3.18,225.913
270.76,3.07,221.024
272.75,2.96,214.823
274.76,2.86,211.416
276.75,2.73,210.969
278.76,2.63,205.508
280.75,2.52,203.605
282.75,2.39,197.124
284.76,2.3,188.201
286.76,2.21,190.527
288.76,2.12,184.768
290.75,2.03,188.868
292.75,1.95,178.511
294.76,1.86,177.142
296.76,1.78,174.28
298.76,1.71,169.506
300.76,1.63,168.161
302.76,1.57,166.986
304.76,1.48,164.356
306.76,1.42,162.176
308.75,1.36,158.816
310.76,1.32,156.099
312.76,1.26,151.267
314.75,1.21,149.067
316.76,1.16,143.808
318.77,1.11,142.204
320.79,1.07,139.763
322.8,1.02,135.828
324.8,0.98,133.176
326.81,0.93,129.986
328.82,0.9,125.413
330.82,0.88,122.641
332.83,0.85,119.45
334.83,0.8,115.474
336.84,0.8,110.32
338.87,0.78,107.877
340.88,0.74,104.848
342.88,0.72,100.571
344.88,0.7,94.4825
346.89,0.68,92.1598
348.89,0.67,88.2213
350.9,0.66,81.7774
352.92,0.66,81.1117
354.92,0.64,76.5432
356.93,0.62,74.0546
358.92,0.62,69.2361
360.93,0.6,66.5689
362.94,0.58,61.7323
364.97,0.56,59.9937
366.98,0.55,57.1382
369,0.54,55.696
371.01,0.53,52.0114
373,0.51,50.9836
375.01,0.51,45.5542
377.01,0.5,46.4217
379.01,0.49,40.255
381.02,0.47,40.6468
382.02,0.46,38.3174

File: Edinburgh_Cone_65kW_6.csv
Time,Mass,HRR
[s],[g],[kW]
0.0400063,69.59,0.261924
2.04601,69.13,0.286069
4.04501,68.64,0.181773
6.05101,68.13,0.345331
8.05101,67.61,0.327672
10.044,67.09,0.351979
12.038,66.56,0.347682
14.044,66.02,0.270171
16.049,65.46,0.254828
18.048,64.9,7.22529
20.06,64.35,18.4067
22.082,63.79,38.2236
24.094,63.21,66.2522
26.112,62.63,90.3013
28.143,62.06,138.904
30.163,61.45,155.99
32.178,60.89,208.438
34.208,60.27,252.096
36.212,59.68,278.483
38.219,59.12,311.927
40.24,58.53,348.351
42.245,57.94,393.88
44.262,57.34,414.249
46.296,56.75,438.07
48.294,56.15,495.709
50.297,55.56,496.626
52.294,54.95,514.054
54.292,54.34,527.539
56.294,53.75,526.779
58.303,53.15,580.332
60.302,52.54,587.749
62.291,51.93,603.055
64.289,51.32,636.035
66.302,50.7,626.397
68.293,50.09,614.763
70.312,49.46,599.094
72.336,48.84,647.588
74.354,48.2,666.303
76.389,47.57,669.729
78.417,46.92,658.147
80.419,46.27,656.325
82.413,45.63,648.854
84.414,44.97,645.061
86.42,44.31,693.459
88.414,43.69,675.028
90.427,43.04,684.729
92.415,42.38,676.514
94.426,41.7,713.924
96.417,41.03,707.643
98.433,40.36,720.314
100.465,39.67,705.545
102.501,38.99,690.443
104.512,38.28,697.117
106.517,37.59,741.179
108.55,36.87,722.695
110.547,36.15,711.116
112.542,35.43,733.295
114.545,34.68,691.531
116.539,33.95,740.654
118.548,33.19,687.811
120.553,32.42,731.686
122.55,31.65,757.23
124.542,30.88,755.148
126.552,30.05,762.701
128.545,29.22,737.111
130.549,28.4,726.185
132.543,27.57,744.089
134.539,26.71,789.809
136.544,25.88,788.788
138.54,25.04,743.513
140.55,24.21,843.938
142.549,23.33,802.102
144.538,22.44,811.811
146.545,21.53,783.468
148.546,20.59,773.191
150.551,19.65,794.312
152.546,18.71,847.884
154.55,17.82,884.899
156.54,16.93,904.001
158.538,16.15,944.744
160.547,15.48,996.818
162.542,14.95,1053.78
164.539,14.52,1091.68
166.543,14.14,1119.16
168.544,13.79,1157.63
170.547,13.47,1165.78
172.552,13.16,1228.06
174.543,12.86,1242.4
176.553,12.59,1269.22
178.546,12.31,1281.96
180.541,12.03,1307.83
182.552,11.76,1310.3
184.556,11.5,1339.82
186.558,11.25,1311.47
188.593,11.02,1301.64
190.625,10.78,1240.7
192.626,10.55,1219.71
194.654,10.31,1164.51
196.654,10.08,1077.7
198.668,9.86,1033.88
200.704,9.64,943.35
202.727,9.42,904.193
204.746,9.22,839.532
206.783,9.01,772.847
208.791,8.83,744.573
210.788,8.65,675.166
212.802,8.47,641.263
214.795,8.3,604.847
216.79,8.14,559.591
218.81,7.97,550.641
220.828,7.8,503.683
222.864,7.64,479.731
224.867,7.47,457.498
226.884,7.31,432.51
228.923,7.16,410.622
230.92,7.01,393.278
232.929,6.85,373.758
234.956,6.7,364.685
236.959,6.56,345.901
238.98,6.41,329.416
240.981,6.26,317.444
243.008,6.11,299.956
245.04,5.97,303.013
247.039,5.83,281.799
249.05,5.69,278.939
251.043,5.54,267.945
253.043,5.41,261.966
255.053,5.26,259.646
257.049,5.11,246.665
259.044,4.99,236.351
261.049,4.85,231.694
263.047,4.73,229.16
265.043,4.6,222.08
267.068,4.46,215.203
269.057,4.31,212.253
271.081,4.18,209.821
273.104,4.04,205.026
275.122,3.92,199.822
277.155,3.79,196.232
279.163,3.66,194.958
281.162,3.52,194.417
283.173,3.41,184.508
285.178,3.33,188.603
287.17,3.22,181.383
289.172,3.11,182.045
291.163,3.03,180.163
293.167,2.94,175.485
295.172,2.86,173.132
297.176,2.77,173.053
299.17,2.68,170.051
301.175,2.6,170.01
303.176,2.5,174.908
305.168,2.44,165.429
307.194,2.36,165.127
309.232,2.29,163.513
311.249,2.22,162.676
313.267,2.16,156.751
315.281,2.1,154.693
317.297,2.06,151.905
319.3,2.01,146.166
321.288,1.96,146.273
323.299,1.92,140.058
325.302,1.88,138.11
327.293,1.83,135.477
329.299,1.81,131.969
331.289,1.78,128.505
333.299,1.74,123.607
335.302,1.71,118.651
337.298,1.69,111.79
339.289,1.66,109.033
341.299,1.64,106.349
343.295,1.6,100.101
345.291,1.58,97.9041
347.292,1.57,93.4946
349.302,1.53,88.2763
351.308,1.51,86.4667
353.343,1.48,82.6411
355.351,1.47,78.1289
357.37,1.43,76.1889
359.401,1.43,70.3656
361.427,1.4,69.0303
363.423,1.39,63.7805
365.425,1.37,61.1918
367.418,1.36,57.2525
369.425,1.35,55.1578
371.417,1.33,52.4408
373.426,1.31,50.1586
375.413,1.3,48.6922
377.416,1.29,45.6507
379.415,1.27,43.2596
381.419,1.27,40.8744
383.422,1.26,37.7992
385.419,1.25,38.8282
387.416,1.23,36.0109
389.433,1.21,33.0831
391.452,1.2,32.7154
393.465,1.19,30.4196
395.473,1.17,31.199
397.488,1.18,27.9782
399.477,1.17,25.502
401.492,1.16,25.821
403.504,1.13,22.7989
405.497,1.13,23.5206
407.497,1.13,23.636
409.491,1.12,20.4743
411.519,1.11,21.3841
413.528,1.09,21.426
415.527,1.08,18.2881
417.526,1.07,18.6341
419.535,1.06,18.5284
421.532,1.06,15.8761