Folder: matl-db/PMMA/Calibration_Data/Edinburgh (part 2)

File: Edinburgh_Cone_25kW_4.csv
Time,Mass,HRR
[s],[g],[kW/m2]
0,67.005,2.96584
3.05,66.995,3.06654
6.05,66.995,3.12581
9.07,66.995,2.9357
12.1,66.995,3.02045
15.12,66.985,3.03903
18.11,66.985,3.10951
21.12,66.985,3.24778
24.12,66.995,3.04321
27.14,66.975,2.8692
30.16,66.985,2.97099
33.19,66.975,3.01824
36.22,66.975,3.0925
39.25,66.985,3.15314
42.24,66.965,3.02239
45.24,66.975,3.21856
48.24,66.955,3.07391
51.25,66.955,3.20541
54.24,66.955,2.94794
57.25,66.935,3.14137
60.24,66.935,2.73313
63.25,66.885,2.86471
66.25,66.795,2.64828
69.24,66.605,2.86461
72.28,66.355,2.69192
75.3,66.015,2.70425
78.34,65.655,2.54105
81.36,65.295,2.48168
84.37,64.935,2.52119
87.37,64.585,2.50879
90.38,64.215,8.47478
93.37,63.825,16.0502
96.38,63.435,31.4509
99.37,63.045,53.2703
102.37,62.665,75.7021
105.37,62.265,103.963
108.43,61.865,130.304
111.38,61.465,148.699
114.4,61.055,176.966
117.4,60.655,192.116
120.43,60.235,216.175
123.47,59.815,232.136
126.53,59.395,243.312
129.49,58.975,258.053
132.49,58.555,268.287
135.49,58.125,271.73
138.49,57.695,288.324
141.5,57.275,293.368
144.49,56.835,299.057
147.53,56.415,305.676
150.54,55.995,308.432
153.55,55.555,325.702
156.54,55.105,319.697
159.54,54.675,324.927
162.54,54.225,334.861
165.53,53.775,332.388
168.55,53.325,343.963
171.56,52.875,339.56
174.59,52.425,344.201
177.58,51.985,339.199
180.59,51.525,347.08
183.6,51.065,353.197
186.6,50.585,344.946
189.62,50.145,358.564
192.63,49.685,367.921
195.64,49.215,356.553
198.65,48.735,349.933
201.66,48.275,364.547
204.66,47.805,368.084
207.68,47.325,370.796
210.71,46.855,366.25
213.71,46.375,368.884
216.72,45.895,375.075
219.75,45.415,371.44
222.75,44.935,380.058
225.74,44.445,376.253
228.74,43.955,388.993
231.74,43.465,386.984
234.76,42.975,395.135
237.77,42.485,376.884
240.79,41.995,394.101
243.81,41.485,391.385
246.81,40.975,393.574
249.81,40.445,383.84
252.81,39.935,389.678
255.82,39.435,395.984
258.84,38.915,399.495
261.85,38.395,407.075
264.88,37.875,412.936
267.88,37.345,402.771
270.87,36.825,409.403
273.87,36.305,402.966
276.88,35.785,408.684
279.89,35.255,406.665
282.91,34.725,421.501
285.91,34.195,420.396
288.91,33.665,420.97
291.91,33.125,416.487
294.92,32.585,423.828
297.92,32.035,427.249
300.95,31.465,444.121
303.97,30.915,417.7
307,30.345,432.838
310,29.785,443.452
312.99,29.225,436.111
316.01,28.635,434.371
319.01,28.055,428.227
322.01,27.455,423.646
325.02,26.845,441.34
328.04,26.235,449.744
331.04,25.645,446.979
334.08,25.035,454.447
337.08,24.435,457.456
340.1,23.835,437.975
343.11,23.235,466.021
346.12,22.625,453.592
349.12,22.015,482.004
352.12,21.425,477.248
355.12,20.825,476.319
358.12,20.245,501.003
361.12,19.675,503.179
364.12,19.125,496.901
367.12,18.555,512.595
370.12,18.025,501.279
373.14,17.495,521.334
376.15,16.975,515.448
379.16,16.475,527.478
382.17,15.995,534.019
385.17,15.545,521.616
388.17,15.115,540.484
391.18,14.705,544.531
394.2,14.305,548.704
397.21,13.945,527.744
400.22,13.585,537.186
403.22,13.255,525.813
406.24,12.935,523.325
409.25,12.645,516.487
412.25,12.375,497.048
415.24,12.105,497.522
418.25,11.865,479.308
421.24,11.625,458.852
424.26,11.385,449.561
427.28,11.185,429.765
430.27,10.965,410.939
433.29,10.765,406.896
436.29,10.575,377.052
439.3,10.385,360.011
442.3,10.195,347.937
445.31,10.025,334.229
448.31,9.845,311.362
451.33,9.685,298.296
454.35,9.525,282.31
457.36,9.365,268.343
460.38,9.215,255.089
463.37,9.055,244.331
466.37,8.915,231.551
469.37,8.765,218.884
472.38,8.635,206.02
475.41,8.485,203.999
478.41,8.355,196.86
481.43,8.225,190.594
484.46,8.095,179.267
487.46,7.965,173.283
490.48,7.835,170.093
493.48,7.715,161.82
496.5,7.585,157.527
499.5,7.455,155.162
502.49,7.335,149.657
505.49,7.225,145.204
508.5,7.105,143.933
511.5,6.995,139.818
514.5,6.885,135.993
517.49,6.765,129.659
520.49,6.665,127.655
523.5,6.555,126.309
526.49,6.445,121.49
529.49,6.325,123.957
532.5,6.195,120.302
535.5,6.095,118.839
538.49,5.985,115.814
541.49,5.875,115.622
544.53,5.775,114.931
547.54,5.675,112.999
550.55,5.585,113.182
553.56,5.475,108.294
556.57,5.385,109.37
559.6,5.285,106.807
562.63,5.185,105.463
565.66,5.085,106.445
568.67,4.985,105.572
571.68,4.905,105.508
574.69,4.805,101.276
577.68,4.725,103.453
580.69,4.635,99.5251
583.69,4.565,100.403
586.7,4.465,97.1579
589.71,4.395,94.6369
592.71,4.305,95.1045
595.71,4.215,92.9932
598.71,4.135,93.5832
601.72,4.045,91.9332
604.74,3.965,92.1714
607.75,3.875,88.5904
610.74,3.795,88.4671
613.75,3.715,85.9929
616.75,3.645,86.3829
619.74,3.565,85.4729
622.75,3.485,85.0005
625.77,3.415,82.706
628.79,3.355,83.6195
631.79,3.275,81.0064
634.8,3.215,81.6231
637.8,3.145,81.4312
640.81,3.075,79.381
643.82,3.015,79.6817
646.84,2.945,79.6132
649.84,2.875,79.1255
652.87,2.805,77.6646
655.86,2.735,76.9248
658.87,2.665,77.1833
661.87,2.605,73.9131
664.88,2.545,74.6004
667.87,2.475,74.1416
670.87,2.415,72.7738
673.87,2.355,72.3434
676.86,2.295,69.8767
679.89,2.235,69.207
682.91,2.185,70.3791
685.93,2.125,67.1582
688.94,2.075,66.3152
691.97,2.005,66.7118
694.99,1.955,65.1536
698.01,1.905,65.8992
701.02,1.845,67.363
704.06,1.795,62.7473
707.07,1.745,62.3506
710.09,1.695,62.1115
713.1,1.645,62.2723
716.12,1.595,63.4552
719.13,1.555,60.0183
722.14,1.505,59.7311
725.16,1.455,60.3243
728.18,1.405,57.5664
731.18,1.365,59.4037
734.19,1.325,58.1504
737.21,1.275,58.2002
740.24,1.225,58.9814
743.25,1.185,54.9453
746.28,1.145,55.4195
749.32,1.105,55.1599
752.37,1.075,52.7118
755.36,1.025,53.0078
758.4,0.995,53.5341
761.44,0.965,49.9128
764.46,0.915,50.7075
767.47,0.875,50.6116
770.66,0.845,47.2625
773.48,0.805,47.3068
776.51,0.765,47.705
779.53,0.735,47.0147
782.64,0.705,44.751
785.61,0.665,44.903
788.64,0.635,45.046
791.67,0.605,41.3559
794.73,0.565,41.9233
797.76,0.535,42.1574
799.77,0.515,42.3819

File: Edinburgh_Cone_25kW_5.csv
Time,Mass,HRR
[s],[g],[kW/m2]
0,70.2983,0.799384
2.99,70.2883,0.764207
5.99,70.2783,0.930012
9,70.2783,1.03122
12.01,70.2783,0.984647
15,70.2783,0.941942
18,70.2783,1.09075
21.01,70.2783,0.804517
24.03,70.2783,1.04715
27.06,70.2683,0.946375
30.09,70.2783,0.949849
33.12,70.2683,0.950431
36.13,70.2583,1.06944
39.13,70.2483,0.986557
42.14,70.2483,1.05196
45.16,70.2583,0.938978
48.19,70.2383,1.14131
51.22,70.2383,1.05024
54.24,70.2283,1.25503
57.25,70.2183,1.18328
60.25,70.1883,1.2886
63.27,70.1283,0.892094
66.29,70.0083,0.959414
69.34,69.7983,0.920458
72.38,69.5083,0.805642
75.37,69.1783,0.746539
78.38,68.8283,0.755678
81.38,68.4683,0.738325
84.37,68.1083,0.693076
87.38,67.7483,3.45264
90.37,67.3683,8.80484
93.37,66.9883,19.4589
96.37,66.5983,36.4866
99.38,66.2183,56.4794
102.38,65.8283,85.8411
105.38,65.4283,111.828
108.4,65.0383,140.305
111.45,64.6283,158.312
114.49,64.2383,180.133
117.5,63.8383,200.658
120.5,63.4383,214.765
123.5,63.0283,236.818
126.5,62.6183,246.791
129.5,62.2083,256.888
132.5,61.7883,265.726
135.5,61.3783,276.933
138.49,60.9483,284.836
141.5,60.5183,292.396
144.49,60.0983,292.571
147.5,59.6683,302.482
150.5,59.2383,304.207
153.51,58.8083,312.145
156.55,58.3683,315.706
159.49,57.9183,328.593
162.5,57.4883,327.872
165.5,57.0383,327.038
168.5,56.5883,331.7
171.5,56.1383,348.837
174.51,55.6883,339.255
177.5,55.2383,346.277
180.49,54.7983,339.415
183.5,54.3483,350.495
186.51,53.8883,347.518
189.5,53.4283,351.705
192.51,52.9783,350.267
195.54,52.5183,359.669
198.57,52.0483,361.692
201.58,51.5683,360.67
204.61,51.0983,364.657
207.64,50.6283,365.165
210.66,50.1583,376.392
213.69,49.6683,370.526
216.73,49.1983,369.21
219.76,48.7083,361.192
222.74,48.2183,369.553
225.76,47.7383,376.214
228.76,47.2483,375.381
231.8,46.7483,387.591
234.81,46.2483,388.27
237.85,45.7583,394.276
240.88,45.2583,385.643
243.87,44.7483,374.851
246.88,44.2383,377.773
249.88,43.7383,393.753
252.87,43.2183,384.682
255.92,42.6783,381.283
258.94,42.1583,382.732
261.97,41.6183,393.619
264.97,41.0983,387.938
268.01,40.5583,399.543
271.04,40.0283,418
274.07,39.4783,392.706
277.08,38.9583,407.207
280.09,38.4283,425.242
283.13,37.8783,414.459
286.13,37.3683,407.926
289.14,36.8283,422.161
292.17,36.2883,427.021
295.18,35.7483,426.223
298.21,35.2183,431.459
301.23,34.6583,437.112
304.26,34.0983,425.914
307.25,33.5483,429.569
310.25,32.9883,438.184
313.25,32.4283,441.42
316.25,31.8583,446.271
319.25,31.2983,443.881
322.24,30.7083,437.308
325.25,30.1283,455.551
328.26,29.5383,441.349
331.25,28.8883,438.8
334.26,28.2483,447.887
337.25,27.6183,442.683
340.26,27.0083,453.419
343.26,26.3883,463.487
346.28,25.7683,465.499
349.31,25.1283,469.82
352.33,24.5083,465.156
355.38,23.9083,486.117
358.38,23.2983,494.369
361.38,22.6983,492.777
364.37,22.1183,495.488
367.39,21.5383,512.222
370.42,20.9883,511.115
373.45,20.4283,523.203
376.49,19.8883,535.62
379.51,19.3783,535.726
382.51,18.8783,537.35
385.52,18.3883,537.071
388.56,17.9283,524.283
391.57,17.4983,554.814
394.62,17.0883,540.328
397.63,16.6883,537.282
400.63,16.3183,546.52
403.62,15.9583,530.169
406.62,15.6283,521.69
409.63,15.3183,525.087
412.62,15.0083,520.488
415.63,14.7183,514.791
418.62,14.4483,490.357
421.63,14.1783,478.82
424.63,13.9283,467.377
427.62,13.6983,446.059
430.63,13.4783,424.989
433.65,13.2483,420.651
436.67,13.0383,391.662
439.69,12.8283,385.233
442.71,12.6183,363.915
445.75,12.4283,347.639
448.75,12.2383,328.877
451.76,12.0583,311.002
454.75,11.8783,298.605
457.77,11.6983,289.217
460.75,11.5183,267.861
463.74,11.3583,261.482
466.74,11.1983,248.973
469.75,11.0383,241.426
472.78,10.8783,229.747
475.83,10.7183,218.393
478.86,10.5683,210.344
481.87,10.4183,197.765
484.89,10.2783,192.537
487.89,10.1183,185.944
490.93,9.98833,181.429
493.95,9.84833,170.675
496.98,9.71833,168.403
499.99,9.57833,165.839
503,9.44833,159.963
506,9.32833,156.828
509,9.19833,153.78
512,9.08833,150.07
515,8.94833,145.514
518,8.83833,142.607
521.01,8.71833,140.613
524,8.59833,137.267
526.99,8.47833,132.394
530.01,8.36833,132.299
532.99,8.24833,129.278
536,8.13833,126.394
539,8.02833,124.878
542.01,7.91833,122.105
545,7.80833,118.99
547.99,7.69833,118.816
551.03,7.59833,114.786
554.07,7.49833,118.038
557.09,7.39833,111.883
560.11,7.29833,110.25
563.12,7.19833,108.148
566.12,7.09833,106.711
569.12,6.99833,106.235
572.12,6.91833,102.747
575.12,6.81833,103.948
578.13,6.71833,100.26
581.12,6.61833,101.898
584.12,6.52833,99.4976
587.12,6.44833,98.7205
590.13,6.34833,96.6676
593.12,6.24833,95.7942
596.13,6.16833,93.9463
599.13,6.08833,90.4752
602.13,5.99833,92.0075
605.13,5.90833,87.0965
608.12,5.82833,88.4909
611.13,5.75833,90.1271
614.12,5.67833,86.4015
617.16,5.59833,87.0679
620.18,5.51833,83.6773
623.22,5.44833,84.1677
626.25,5.36833,84.6076
629.25,5.29833,82.5584
632.25,5.21833,81.4995
635.25,5.15833,79.4112
638.27,5.07833,79.6214
641.31,5.01833,76.4868
644.34,4.93833,76.7189
647.38,4.86833,78.3106
650.37,4.79833,75.3933
653.37,4.72833,74.0205
656.38,4.66833,75.0171
659.38,4.59833,72.6514
662.37,4.53833,73.0743
665.44,4.47833,69.4656
668.44,4.41833,71.3097
671.48,4.35833,68.9636
674.51,4.29833,67.3849
677.7,4.23833,66.7992
680.57,4.17833,67.2626
683.59,4.11833,65.1983
686.64,4.05833,64.7506
689.76,4.00833,62.3098
692.69,3.94833,63.359
695.72,3.88833,63.196
698.73,3.83833,60.23
701.74,3.77833,60.0294
704.8,3.73833,60.9994
707.85,3.68833,56.8179
711.1,3.64833,57.8135
713.96,3.58833,56.6503
717.01,3.53833,55.8595
720.02,3.48833,55.8454
723.09,3.43833,55.3819
726.12,3.38833,55.7172
729.12,3.34833,52.0987
732.31,3.28833,52.4915
735.21,3.23833,52.6544
738.26,3.19833,49.8576
741.32,3.15833,50.8846
744.36,3.10833,50.9268
747.37,3.06833,47.861
750.37,3.02833,48.4939
753.55,2.97833,47.6496
756.43,2.93833,47.9383
759.49,2.90833,44.4757
762.5,2.85833,45.9577
765.49,2.83833,44.842
768.62,2.78833,45.5456
771.56,2.75833,42.6255
774.59,2.71833,43.2265
777.65,2.68833,43.3172
779.69,2.65833,43.3599

File: Edinburgh_Cone_25kW_6.csv
Time,Mass,HRR
[s],[g],[kW/m2]
0,71.9517,-0.042806
3.03,71.9417,0.137883
6.05,71.9617,0.0957158
9.09,71.9617,0.266899
12.08,71.9617,0.0662494
15.1,71.9517,0.246712
18.11,71.9417,0.212061
21.16,71.9517,0.325521
24.17,71.9517,0.335211
27.21,71.9417,0.306845
30.23,71.9317,0.399311
33.23,71.9417,0.382492
36.23,71.9417,0.658882
39.23,71.9217,0.687489
42.23,71.9317,0.708228
45.23,71.9417,0.375032
48.24,71.9317,0.255408
51.26,71.9117,0.480896
54.23,71.9117,0.264954
57.23,71.9017,0.491903
60.25,71.8817,0.381822
63.27,71.8117,0.301859
66.23,71.6817,0.352593
69.24,71.4517,0.539217
72.23,71.1517,0.567982
75.27,70.8117,0.662055
78.28,70.4817,0.541121
81.3,70.1317,-2.38763
84.33,69.7817,0.58665
87.32,69.4117,3.51201
90.33,69.0517,11.8974
93.34,68.6817,27.3429
96.34,68.3017,45.9717
99.36,67.9117,76.617
102.36,67.5217,99.6348
105.36,67.1317,124.013
108.36,66.7417,156.429
111.37,66.3417,173.872
114.37,65.9517,196.994
117.36,65.5517,218.443
120.36,65.1717,236.112
123.36,64.7717,251.244
126.41,64.3517,262.017
129.42,63.9317,275.075
132.43,63.5317,282.557
135.45,63.1117,291.637
138.47,62.6717,301.841
141.48,62.2417,306.316
144.48,61.8317,313.347
147.48,61.4217,317.693
150.49,61.0017,321.539
153.48,60.5617,321.661
156.49,60.1217,328.792
159.49,59.7017,331.787
162.48,59.2717,343.771
165.49,58.8317,336.966
168.48,58.3917,345.417
171.49,57.9417,354.031
174.5,57.5117,348.319
177.53,57.0717,347.743
180.57,56.6317,359.831
183.61,56.1817,357.491
186.61,55.7317,348.176
189.62,55.2917,357.67
192.65,54.8417,359.671
195.68,54.3717,368.231
198.7,53.9317,367.238
201.74,53.4617,354.672
204.73,53.0217,372.462
207.74,52.5517,360.906
210.73,52.1117,380.529
213.73,51.6517,376.991
216.73,51.1817,383.783
219.76,50.7117,374.03
222.82,50.2317,386.08
225.83,49.7717,371.165
228.86,49.3017,386.958
231.87,48.8217,380.974
234.91,48.3417,378.999
237.91,47.8517,386.56
240.91,47.3817,391.459
243.92,46.8817,390.069
246.96,46.4017,394.212
249.97,45.9117,386.528
252.99,45.4317,398.405
255.98,44.9517,388.525
258.98,44.4717,394.533
261.99,43.9917,401.578
264.98,43.4717,407.801
267.99,42.9717,404.552
270.99,42.4617,410.259
273.99,41.9617,392.632
276.98,41.4417,419.883
279.99,40.9117,412.545
283.03,40.4017,398.435
286.07,39.8517,415.157
289.11,39.3217,420.191
292.1,38.7917,407.332
295.16,38.2417,421.931
298.17,37.7117,423.011
301.22,37.1817,425.858
304.22,36.6417,426.749
307.22,36.1117,434.684
310.24,35.5517,437.505
313.24,35.0117,438.994
316.25,34.4717,434.321
319.28,33.9217,439.642
322.29,33.3617,458.986
325.35,32.8217,444.305
328.35,32.2617,447.413
331.37,31.7117,447.175
334.41,31.1517,443.933
337.41,30.5817,453.964
340.42,30.0117,451.679
343.42,29.4517,453.439
346.42,28.8817,457.88
349.44,28.3217,453.84
352.46,27.7217,457.753
355.49,27.1417,467.286
358.49,26.5417,476.615
361.49,25.9317,452.549
364.52,25.3317,472.984
367.49,24.6917,460.919
370.48,24.0617,465.958
373.49,23.4617,468.382
376.49,22.8517,483.635
379.49,22.2317,472.93
382.48,21.6217,486.255
385.49,21.0317,498.802
388.51,20.4317,503.528
391.53,19.8317,516.692
394.53,19.2417,526.838
397.53,18.6517,520.489
400.56,18.0917,522.815
403.59,17.5317,535.024
406.6,17.0117,541.408
409.62,16.5217,531.54
412.62,16.0517,549.618
415.61,15.6117,561.611
418.61,15.2017,567.951
421.6,14.8217,560.873
424.6,14.4617,574.556
427.61,14.1417,572.083
430.61,13.8417,565.593
433.62,13.5617,548.387
436.64,13.2917,542.024
439.64,13.0317,532.281
442.64,12.7817,519.934
445.66,12.5517,496.037
448.68,12.3317,471.479
451.69,12.1017,461.166
454.71,11.8917,433.387
457.73,11.6717,407.956
460.74,11.4717,389.361
463.75,11.2717,367.619
466.75,11.0717,340.104
469.75,10.8717,320.859
472.75,10.6817,300.504
475.76,10.5017,289.024
478.76,10.3417,268.382
481.77,10.1717,252.373
484.79,10.0017,244.465
487.79,9.85167,236.05
490.81,9.69167,219.978
493.81,9.52167,212.874
496.82,9.35167,207.812
499.83,9.20167,199.215
502.84,9.04167,190.636
505.85,8.89167,183.489
508.85,8.72167,185.202
511.86,8.57167,178.209
514.87,8.43167,173.5
517.87,8.28167,169.188
520.87,8.14167,162.631
523.86,8.00167,161.483
526.87,7.85167,160.115
529.87,7.71167,156.235
532.89,7.56167,152.527
535.91,7.42167,151.085
538.93,7.29167,148.127
541.95,7.15167,143.629
544.96,7.02167,145.163
547.98,6.89167,142.425
550.97,6.76167,137.136
553.98,6.63167,138.723
556.99,6.49167,135.022
559.98,6.38167,132.919
562.98,6.25167,131.46
565.98,6.13167,128.942
568.99,6.01167,127.515
571.98,5.90167,126.877
574.99,5.78167,123.468
577.99,5.66167,122.284
581.01,5.55167,120.618
584.03,5.44167,119.428
587.04,5.34167,115.767
590.05,5.23167,119.59
593.05,5.14167,113.691
596.08,5.04167,112.788
599.1,4.94167,114.625
602.11,4.83167,109.529
605.1,4.74167,107.6
608.11,4.66167,108.244
611.13,4.56167,105.719
614.16,4.47167,105.845
617.17,4.38167,103.717
620.17,4.28167,100.144
623.18,4.21167,101.548
626.19,4.13167,97.1717
629.19,4.04167,96.25
632.19,3.95167,95.8023
635.21,3.87167,92.2691
638.22,3.80167,89.5232
641.23,3.71167,91.5054
644.23,3.63167,87.9352
647.23,3.55167,88.3248
650.25,3.47167,84.108
653.26,3.39167,83.5669
656.27,3.31167,83.1505
659.3,3.23167,81.9225
662.3,3.17167,81.0313
665.4,3.09167,83.063
668.33,3.01167,77.2796
671.32,2.94167,78.2464
674.32,2.87167,78.6837
677.35,2.80167,76.118
680.35,2.73167,76.1867
683.37,2.65167,72.1371
686.36,2.59167,73.9277
689.36,2.50167,72.8915
692.38,2.43167,70.1379
695.4,2.36167,72.846
698.42,2.28167,71.0601
701.46,2.23167,67.2216
704.49,2.17167,68.6676
707.49,2.10167,68.5248
710.48,2.04167,65.8685
713.48,1.97167,67.2785
716.49,1.90167,65.2835
719.51,1.83167,66.5219
722.54,1.76167,62.9596
725.56,1.70167,64.5275
728.58,1.64167,63.893
731.61,1.58167,61.6921
734.6,1.51167,61.0085
737.6,1.45167,61.1249
740.61,1.39167,61.7338
743.6,1.32167,61.6731
746.62,1.26167,60.9273
749.62,1.20167,61.9515
752.65,1.14167,58.6137
755.7,1.07167,59.0439
758.71,1.01167,58.2598
761.73,0.951667,59.6211
764.74,0.891667,58.5467
767.73,0.831667,59.7586
770.73,0.771667,56.7094
773.73,0.711667,56.3022
776.74,0.651667,56.7018
779.73,0.591667,57.1462
782.78,0.531667,56.0654
785.81,0.481667,56.8096
788.85,0.421667,57.9321
791.87,0.361667,57.1889
794.9,0.301667,57.9073
797.92,0.251667,57.036
800.97,0.201667,57.5234
803.98,0.151667,57.0906
806.98,0.101667,54.4368
809.99,0.0416667,54.8745
812.98,-0.008333333,54.1651
815.98,-0.0683333,53.9471
818.98,-0.118333,54.362
821.98,-0.178333,51.7134
824.98,-0.228333,50.7086
827.99,-0.278333,51.6525
830.99,-0.318333,51.5411
833.98,-0.368333,51.5312
836.98,-0.408333,51.4899
839.99,-0.458333,51.3272
842.99,-0.498333,51.4582
845.98,-0.548333,48.4517
848.98,-0.568333,47.4197
851.98,-0.628333,48.3303
854.98,-0.658333,48.5621
857.99,-0.688333,48.6852
860.99,-0.718333,48.3518
864,-0.758333,45.9385
867.04,-0.798333,46.8941
870.07,-0.838333,46.034
873.12,-0.868333,45.8509
876.14,-0.908333,43.1937
879.15,-0.938333,43.5517
882.19,-0.978333,42.8647
885.21,-1.00833,40.4019
888.23,-1.01833,40.0972
891.24,-1.03833,40.5083
894.23,-1.06833,38.2909
897.27,-1.11833,37.528

File: Edinburgh_Cone_65kW_2.csv
Time,Mass,HRR,Back Temp
[s],[g],[kW/m2],[K]
0,70.406,2.3,293.45
2,70.446,2.4,293.45
4.1,70.456,2.2,293.45
6.1,70.456,2.4,293.45
8.1,70.446,2.3,293.45
10.1,70.466,2.2,293.45
12.2,70.476,2.2,293.55
14.2,70.496,2.1,293.55
16.2,70.496,1.9,293.55
18.3,70.446,1.6,293.55
20.3,70.316,4.5,293.55
22.3,70.006,4.1,293.65
24.3,69.706,4.3,293.65
26.4,69.386,4.2,293.65
28.4,69.036,4.2,293.85
30.4,68.636,7.1,293.85
32.4,68.186,16.1,293.85
34.5,67.766,39,293.95
36.5,67.336,76.7,294.05
38.5,66.736,124.2,294.05
40.9,66.396,157.9,294.15
42.6,65.956,219.3,294.25
44.6,65.486,246.2,294.35
46.6,64.996,279.6,294.35
48.7,64.466,315.6,294.45
50.7,63.966,342.1,294.55
52.7,63.456,372.6,294.65
54.8,62.896,384.7,294.75
56.8,62.356,425.7,294.85
58.8,61.846,435.8,295.05
60.8,61.236,450.3,295.15
62.9,60.676,486,295.25
64.9,60.066,503.3,295.45
66.9,59.486,505.1,295.55
69,58.926,532.5,295.75
71,58.406,562.4,295.85
73,57.866,525,296.05
75,57.296,539.2,296.15
77.1,56.736,557.6,296.35
79.1,56.196,559.4,296.55
81.1,55.716,597.3,296.75
83.1,55.186,593.4,297.05
85.2,54.656,583.3,297.25
87.2,54.126,578.9,297.55
89.2,53.586,615.4,297.85
91.3,53.036,615.6,298.15
93.3,52.526,608.1,298.55
95.3,51.956,614,298.85
97.3,51.386,608.1,299.15
99.4,50.656,632.1,299.55
101.7,50.266,621.6,299.75
103.4,49.736,645.9,300.05
105.5,49.186,649.4,300.35
107.5,48.666,641.4,300.65
109.5,48.106,646.1,300.95
111.5,47.536,641.5,301.25
113.6,46.986,660.5,301.45
115.6,46.446,643.7,301.75
117.6,45.866,642.2,302.05
119.7,45.286,669.6,302.35
121.7,44.726,643.7,302.65
123.7,44.136,638.6,302.95
125.7,43.556,682.7,303.25
127.8,42.986,689.7,303.65
129.8,42.396,669.7,303.85
131.8,41.776,700.4,304.15
133.8,41.176,699,304.55
135.9,40.576,654.1,304.75
137.9,39.976,693.5,305.05
139.9,39.176,700.3,305.45
142.3,38.716,671.9,305.75
144,38.116,730.7,306.05
146,37.496,714.1,306.35
148,36.866,697.6,306.65
150.1,36.226,694.9,306.95
152.1,35.576,736.5,307.35
154.1,34.946,706.6,307.65
156.2,34.266,688.1,307.95
158.2,33.606,730.6,308.25
160.2,32.916,732.1,308.65
162.2,32.226,713.5,308.95
164.3,31.526,721.7,309.25
166.3,30.806,759.4,309.55
168.3,30.096,717.5,309.85
170.4,29.376,751.6,310.15
172.4,28.646,772.5,310.55
174.4,27.906,764.3,310.85
176.4,27.176,776.8,311.15
178.5,26.466,751.2,311.55
180.5,25.766,817.2,311.95
182.5,25.016,803.5,312.35
184.5,24.286,816.4,312.85
186.6,23.566,842.4,313.25
188.6,22.816,830.3,313.85
190.6,22.046,816,314.35
192.7,21.336,817.4,315.05
194.7,20.596,864.8,315.65
196.7,19.856,854.4,316.25
198.7,19.136,867.2,316.95
200.8,18.406,868.2,317.65
202.8,17.676,937.8,318.35
204.8,16.976,856.4,319.05
206.9,16.266,891.4,319.85
208.9,15.526,908.8,320.65
210.9,14.796,880.5,321.35
212.9,14.146,940.3,322.15
215,13.516,944.6,322.95
217,12.936,934.2,323.75
219,12.406,1003.1,324.55
221.1,11.916,998.8,325.45
223.1,11.466,1026.3,326.35
225.1,11.036,1027.8,327.35
227.1,10.636,1018.2,328.35
229.2,10.276,1027.5,329.35
231.2,9.926,978.4,330.45
233.2,9.666,966.9,331.45
235.3,9.376,933.3,332.55
237.3,9.096,903,333.75
239.3,8.806,844.5,334.75
241.3,8.456,806.1,336.15
243.7,8.266,770.5,337.05
245.4,8.026,702,338.15
247.4,7.826,684.4,339.35
249.4,7.636,669.1,340.55
251.5,7.386,580.1,341.75
253.5,7.166,567.6,342.95
255.5,6.966,530.8,344.25
257.6,6.796,483.4,345.45
259.6,6.636,451.4,346.65
261.6,6.446,425,347.95
263.6,6.276,409.5,349.15
265.7,6.086,380.2,350.45
267.7,5.826,366.5,351.65
269.7,5.686,361.8,352.95
271.8,5.506,330.9,354.25
273.8,5.356,316,355.55
275.8,5.176,312,356.85
277.8,5.006,282.9,358.15
279.9,4.896,275.1,359.45
281.9,4.806,267.1,360.75
283.9,4.706,252.7,362.05
286,4.636,243.5,363.45
288,4.586,237.1,364.75
290,4.506,230.6,366.05
292,4.456,230.2,367.35
294.1,4.436,212.5,368.65
296.1,4.346,213.3,369.85
298.1,4.266,198.6,370.85
300.1,4.206,197.9,371.25
302.2,4.106,196.2,370.65
304.2,4.046,189.2,370.55
306.2,4.006,186.3,370.75
308.3,3.956,179.1,371.25
310.3,3.936,168.6,372.35
312.3,3.876,166.7,373.55
314.3,3.846,161.8,374.75
316.4,3.916,155,376.05
318.4,3.886,149.9,377.85
320.4,3.806,144.6,379.75
322.5,3.766,140.4,381.55
324.5,3.796,137.5,383.25
326.5,3.756,131.9,384.75
328.5,3.756,124.2,386.15
330.6,3.696,117.2,387.45
332.6,3.676,112,388.75
334.6,3.686,113.4,389.95
336.7,3.686,103,390.95
338.7,3.756,101,392.05
340.7,3.796,96.3,393.05
342.7,3.856,91.4,394.25
345.2,3.866,91.5,395.15
346.8,3.866,85.3,396.15
348.8,3.846,81.6,397.15
350.8,3.816,81,398.05
352.9,3.806,76.7,399.05
354.9,3.756,72.4,400.05
356.9,3.726,71.2,400.95
359,3.716,70.4,401.95
361,3.706,67.7,402.95
363,3.696,65.8,403.95
365,3.676,65.9,404.85
367.1,3.656,63.7,405.75
369.1,3.626,62.7,406.65
371.1,3.586,62.1,407.55
373.2,3.576,58.9,408.35
375.2,3.516,59.6,409.25
377.2,3.476,57.1,410.25
379.2,3.466,57.4,411.05
381.3,3.416,55.3,411.95
383.3,3.406,54.4,412.75
385.3,3.376,52.4,413.65
387.4,3.366,51.7,414.55
389.4,3.356,52.1,415.45
391.4,3.376,49.5,416.35
393.4,3.376,48.9,417.25
395.5,3.366,49.7,418.05
397.5,3.356,46.8,418.95
399.5,3.376,47,419.85
401.5,3.406,46.7,420.65
403.6,3.396,43.8,421.45
405.6,3.356,44.4,422.35
407.6,3.346,44.2,423.15
409.7,3.326,45,423.95
411.7,3.306,41.9,424.75
413.7,3.296,41.9,425.65
415.7,3.306,42.4,426.35
417.8,3.296,39.9,427.15
419.8,3.276,40.2,427.95
421.8,3.266,37.1,428.75
423.9,3.186,36.9,429.45
425.9,3.166,37.1,430.25
427.9,3.146,35.5,431.05
429.9,3.156,35.2,431.85
432,3.166,32.5,432.65
434,3.136,32,433.35
436,3.126,32.4,434.15
438.1,3.146,32,434.95
440.1,3.116,29.7,435.65
442.1,3.116,30,436.35
444.1,3.106,30.2,437.35
446.6,3.096,30.4,437.95
448.2,3.096,27.3,438.65
450.2,3.086,27.9,439.45
452.2,3.036,27.6,440.15
454.3,3.016,24.8,440.85
456.3,2.986,25.3,441.55
458.3,3.006,24.9,442.35
460.4,2.996,22.4,442.95
462.4,3.016,22.1,443.65
464.4,2.996,22.3,444.45
466.4,3.006,19.8,445.15
468.5,2.996,20,445.75
470.5,2.996,16.8,446.45
472.5,3.006,17,447.15
474.6,2.986,17.2,447.85
476.6,2.966,14.1,448.45
478.6,2.966,14.5,449.15
480.6,2.986,14.8,449.85
482.7,2.976,14.8,450.45
484.7,2.976,11.6,451.15
486.7,2.986,11.6,451.75
488.8,2.976,11.9,452.45
490.8,2.956,11.9,453.05
492.8,2.946,11.7,453.75
494.8,2.946,9.1,454.35
496.9,2.946,9,455.05
498.9,2.956,9.4,455.65
500.9,2.936,9.3,456.35
502.9,2.926,9.3,456.95
505,2.936,9.2,457.55
507,2.936,9.6,458.25
509,2.956,9.5,458.85
511.1,2.946,6.4,459.45
513.1,2.926,6.6,460.05
515.1,2.936,6.6,460.75
517.1,2.926,6.9,461.35
519.2,2.946,6.8,461.95
521.2,2.946,7.1,462.55
523.2,2.946,6.9,463.15
525.3,2.916,7,463.75
527.3,2.946,7.2,464.45
529.3,2.946,4.2,465.05
531.3,2.956,4.1,465.55
533.4,2.946,4.1,466.25
535.4,2.926,4.2,466.85
537.4,2.916,4.2,467.35
539.5,2.926,4.3,467.95
541.5,2.946,4.4,468.55
543.5,2.936,4.3,469.15
545.5,2.916,4.4,469.85
548.1,2.926,4.4,470.35
549.6,2.916,4.4,470.95
551.6,2.926,1.2,471.55
553.6,2.946,1.4,472.15
554.7,2.946,1.2,472.35