Folder: matl-db/PMMA/Calibration_Data/FM

Note: PMMA/Calibration_Data/FM/README.md
# FM Global 

### Test Summary
Three repeated pyrolysis tests were conducted to measure the mass loss and front surface temperature of pyrolysis tests in nitrogen environment at external heat flux of 25 and 65 kW/m2, respectively. The sample has a circular shape, with a diameter of 9.52 cm (3.75 in.) and thickness of 0.6 cm. The sample was insulated both on the side and bottom.
[what type of apparatus? // heater type/temperature?]


#### Experimental Conditions
* Extraction/N2 flow rate: [??] L/s
* Sample Surface Area: 0.00712 m2 (nominal)
* Sample holder dimensions:
    - at least 9.5 cm... [??]
* Backing Insulation:  Four layers of 3 mm (1/8 in.) thick Cotronics ceramic paper thermal insulation are placed on the bottom and a spiral of the same material is wound around the sides. The thermal conductivity of the Contronics paper (0.028 W/mK).
* Thermocouple locations 
    - Sample front surface temperature was measured with [TC, radiometer, IR camera?] at [location; center?]

###### Sample Mass and Test Heating Conditions  
|Test Name | Initial sample mass (g)| Heat Flux (kW/m2)| Heater Temperature (K) |
|----------|:------:| :---: | :---: |
|FM\_Gasification\_25kW\_1 | 168.332879 | 25 | ? |
|FM\_Gasification\_25kW\_2 | 168.479587 | 25 | ? |
|FM\_Gasification\_25kW\_3 | 168.263386 | 25 | ? |
|FM\_Gasification\_50kW\_1 | 168.009602 | 50 | ? |
|FM\_Gasification\_50kW\_2 | 167.831299 | 50 | ? |
|FM\_Gasification\_50kW\_3 | 167.404452 | 50 | ? |
|FM\_Gasification\_65kW\_1 | 169.489286 | 65 | ? |
|FM\_Gasification\_65kW\_2 | 166.066022 | 65 | ? |
|FM\_Gasification\_65kW\_3 | 168.190993 | 65 | ? |

File: FM_FPA_25kW_2.csv
Time,Mass,Temperature Front
[s],[g],[K]
1,168.48,299.081
4,168.483,338.401
7,168.55,369.296
10,168.48,391.062
13,168.525,407.832
16,168.538,422.416
19,168.564,435.05
22,168.575,446.954
25,168.592,457.537
28,168.578,467.577
31,168.59,476.595
34,168.607,485.443
37,168.626,493.58
40,168.613,501.012
43,168.619,507.629
46,168.638,514.769
49,168.638,520.52
52,168.628,527.046
55,168.677,533.479
58,168.659,538.846
61,168.672,544.324
64,168.674,548.985
67,168.684,553.769
70,168.678,559.59
73,168.702,564.137
76,168.683,568.816
79,168.678,573.126
82,168.676,577.95
85,168.69,582.933
88,168.71,587.729
91,168.709,590.716
94,168.712,595.02
97,168.696,597.932
100,168.702,601.56
103,168.683,604.213
106,168.694,606.675
109,168.697,610.655
112,168.69,612.849
115,168.691,616.427
118,168.685,618.753
121,168.662,622.576
124,168.676,625.246
127,168.638,627.332
130,168.626,629.79
133,168.594,631.82
136,168.577,634.324
139,168.533,633.971
142,168.514,637.413
145,168.478,636.757
148,168.453,637.758
151,168.39,640.622
154,168.365,636.949
157,168.266,640.764
160,168.217,640.265
163,168.159,638.312
166,168.11,640.413
169,167.996,638.682
172,167.923,638.948
175,167.825,641.536
178,167.745,639.453
181,167.619,641.995
184,167.511,641.882
187,167.405,639.75
190,167.284,640.666
193,167.189,640.639
196,167.036,642.05
199,166.9407,641.072
202,166.816,647.067
205,166.702,643.747
208,166.555,639.978
211,166.435,642.468
214,166.322,649.523
217,166.171,645.662
220,166.038,645.998
223,165.908,651.3
226,165.775,644.345
229,165.614,648.771
232,165.477,644.797
235,165.317,652.077
238,165.177,641.677
241,165.037,647.678
244,164.878,643.325
247,164.727,652.742
250,164.569,650.018
253,164.392,651.031
256,164.213,654.316
259,164.073,653.804
262,163.887,654.203
265,163.733,654.239
268,163.574,651.229
271,163.429,655.051
274,163.237,658.672
277,163.031,658.195
280,162.838,658.599
283,162.695,657.874
286,162.529,654.171
289,162.309,659.3
292,162.155,660.48
295,162.002,661.404
298,161.78,658.208
301,161.585,656.53
304,161.418,660.005
307,161.211,663.433
310,161.086,659.387
313,160.875,656.027
316,160.613,661.167
319,160.496,665.397
322,160.212,657.966
325,160.042,657.094
328,159.781,660.245
331,159.644,661.16
334,159.42,660.875
337,159.184,660.591
340,158.913,663.985
343,158.763,654.118
346,158.496,663.81
349,158.371,658.289
352,158.065,658.23
355,157.853,662.075
358,157.606,660.182
361,157.437,661.428
364,157.19,653.772
367,156.946,660.533
370,156.664,653.489
373,156.457,652.862
376,156.206,660.26
379,156.018,652.345
382,155.745,651.469
385,155.508,661.092
388,155.239,656.56
391,155.067,657.543
394,154.781,663.069
397,154.589,650.175
400,154.262,649.111
403,154.036,653.19
406,153.773,660.585
409,153.586,644.984
412,153.332,658.802
415,153.037,656.569
418,152.729,655.16
421,152.522,656.155
424,152.288,651.693
427,152.031,652.525
430,151.689,649.105
433,151.403,659.442
436,151.142,657.907
439,150.952,657.584
442,150.655,650.967
445,150.343,659.359
448,150.062,651.453
451,149.746,648.745
454,149.537,644.536
457,149.278,647.843
460,148.991,641.638
463,148.622,656.596
466,148.357,643.793
469,148.118,636.279
472,147.831,643.278
475,147.504,649.574
478,147.141,643.552
481,146.831,659.176
484,146.578,650.579
487,146.306,644.571
490,146.012,646.116
493,145.643,637.861
496,145.342,634.601
499,145.008,655.567
502,144.771,658.348
505,144.419,627.656
508,144.072,635.07
511,143.751,644.176
514,143.474,640.08
517,143.185,637.23
520,142.864,646.914
523,142.519,633.047
526,142.122,626.045
529,141.806,653.874
532,141.522,635.397
535,141.193,635.51
538,140.9,635.085
541,140.492,644.083
544,140.157,625.569
547,139.828,639.239
550,139.479,619.526
553,139.121,616.469
556,138.73,626.375
559,138.406,625.493
562,138.075,636.665
565,137.718,626.603
568,137.35,628.148
571,136.9907,638.958
574,136.625,622.273
577,136.294,623.564
580,135.917,624.42
583,135.57,622.704
586,135.159,642.38
589,134.815,623.872
592,134.457,629.507
595,134.104,639.493
598,133.742,635.66
601,133.366,621.354
604,132.993,614.952
607,132.644,627.949
610,132.239,634.228
613,131.855,620.687
616,131.474,632.203
619,131.086,638.064
622,130.72,639.621
625,130.348,625.725
628,129.978,629.204
631,129.591,625.169
634,129.239,615.449
637,128.858,604.752
640,128.455,638.02
643,128.077,625.924
646,127.726,622.143
649,127.336,607.91
652,126.994,611.133
655,126.666,609.072
658,126.31,634.392
661,125.901,627.734
664,125.562,632.358
667,125.198,636.941
670,124.917,658.151
673,124.619,650.455
676,124.35,692.888
679,124.134,707.732
682,123.953,712.225
685,123.787,723.948
688,123.64,733.657
691,123.5,736.06
694,123.386,742.122
697,123.314,757.997
700,123.196,759.51
703,123.169,751.695
706,123.111,761.214
709,123.071,755.068
712,123.027,757.357
715,122.995,764.229
718,122.9693,765.104
721,122.928,764.076
724,122.903,767.831
727,122.89,771.963
730,122.853,768.807
733,122.85,770.496
736,122.811,772.876
739,122.825,773.964
742,122.79,777.118
745,122.81,779.226
748,122.765,779.073
751,122.775,779.913
754,122.758,780.868
757,122.752,779.175
760,122.762,780.875
763,122.759,780.757
766,122.721,780.429
769,122.718,779.324
772,122.715,781.624
775,122.701,783.036
778,122.683,780.911
780,122.663,781.605

File: FM_FPA_25kW_3.csv
Time,Mass,Temperature Front
[s],[g],[K]
1,168.263,304.834
4,168.156,350.911
7,168.497,378.524
10,168.73,398.94
13,168.741,414.706
16,168.753,429.143
19,168.741,441.662
22,168.697,453.36
25,168.706,464.319
28,168.67,473.718
31,168.66,482.896
34,168.662,491.424
37,168.623,499.629
40,168.637,507.105
43,168.592,514.408
46,168.582,521.013
49,168.564,526.746
52,168.571,532.791
55,168.547,538.134
58,168.566,544.435
61,168.568,549.644
64,168.524,554.913
67,168.526,559.927
70,168.527,564.415
73,168.52,568.798
76,168.564,573.657
79,168.537,578.327
82,168.5236,583.447
85,168.536,588.012
88,168.5,591.984
91,168.488,595.487
94,168.472,599.181
97,168.475,602.238
100,168.458,606.068
103,168.472,609.178
106,168.501,611.841
109,168.497,616.245
112,168.442,619.853
115,168.429,623.304
118,168.414,626.344
121,168.373,628.859
124,168.378,630.947
127,168.334,632.782
130,168.321,634.649
133,168.309,636.054
136,168.276,638.236
139,168.239,639.26
142,168.24,638.899
145,168.187,640.343
148,168.155,641.043
151,168.127,639.713
154,168.085,640.701
157,167.992,642.743
160,167.975,641.521
163,167.917,642.855
166,167.829,642.555
169,167.725,642.872
172,167.654,640.782
175,167.591,639.838
178,167.473,643.623
181,167.394,639.099
184,167.28,643.208
187,167.182,639.365
190,167.066,649.876
193,166.991,636.26
196,166.868,649.875
199,166.758,647.912
202,166.625,647.946
205,166.515,647.181
208,166.3863,647.813
211,166.268,650.494
214,166.134,643.166
217,166.005,648.607
220,165.875,653.492
223,165.738,652.609
226,165.596,663.459
229,165.471,645.139
232,165.349,650.384
235,165.212,652.849
238,165.088,657.916
241,164.915,652.413
244,164.791,648.628
247,164.636,657.552
250,164.491,655.478
253,164.335,653.894
256,164.164,655.88
259,164.024,647.253
262,163.834,655.972
265,163.669,657.211
268,163.517,657.62
271,163.377,656.961
274,163.226,658.849
277,163.056,654.763
280,162.91,662.754
283,162.778,660.126
286,162.589,664.153
289,162.408,665.816
292,162.242,666.781
295,162.071,667.593
298,161.861,668.364
301,161.679,669.901
304,161.54,667.197
307,161.358,662.855
310,161.155,668.768
313,160.96,667.857
316,160.764,668.36
319,160.56,666.334
322,160.408,667.313
325,160.181,669.781
328,159.96,670.56
331,159.77,669.984
334,159.561,664.018
337,159.346,671.554
340,159.142,670.767
343,158.927,662.063
346,158.755,670.3
349,158.521,664.212
352,158.283,660.785
355,158.095,661.622
358,157.859,663.249
361,157.661,670.942
364,157.443,662.432
367,157.195,670.976
370,156.983,662.121
373,156.778,657.344
376,156.525,660.873
379,156.317,653.306
382,156.089,658.212
385,155.871,666.003
388,155.644,657.881
391,155.424,663.12
394,155.187,656.288
397,154.938,666.934
400,154.735,662.5
403,154.504,668.047
406,154.25,672.475
409,154.034,665.97
412,153.772,658.063
415,153.494,659.403
418,153.285,660.349
421,153.047,644.89
424,152.787,642.733
427,152.53,660.8
430,152.256,653.73
433,152.041,653.272
436,151.777,657.487
439,151.521,661.702
442,151.263,661.801
445,151,658.978
448,150.737,653.11
451,150.489,657.889
454,150.239,657.558
457,149.945,641.995
460,149.684,647.446
463,149.406,662.272
466,149.117,656.274
469,148.84,658.525
472,148.574,637.542
475,148.272,637.797
478,147.988,645.595
481,147.731,659.969
484,147.422,641.113
487,147.142,639.077
490,146.839,652.907
493,146.558,638.453
496,146.254,638.077
499,145.986,639.759
502,145.688,641.404
505,145.368,642.094
508,145.091,661.487
511,144.781,642.382
514,144.443,636.185
517,144.133,654.768
520,143.837,648.039
523,143.544,621.651
526,143.203,645.829
529,142.888,617.598
532,142.589,620.277
535,142.252,619.208
538,141.944,617.846
541,141.628,613.834
544,141.2653,611.895
547,140.942,622.163
550,140.651,623.176
553,140.268,620.564
556,139.932,628.479
559,139.59,623.547
562,139.241,606.043
565,138.896,605.475
568,138.581,612.682
571,138.232,620.003
574,137.871,624.008
577,137.496,614.27
580,137.157,614.117
583,136.798,610.798
586,136.425,601.593
589,136.056,609.11
592,135.711,611.413
595,135.348,597.177
598,134.972,603.409
601,134.637,607.726
604,134.248,615.854
607,133.877,598.753
610,133.54,605.289
613,133.179,611.047
616,132.783,617.484
619,132.387,611.444
622,132.059,625.098
625,131.691,606.96
628,131.325,604.915
631,130.962,593.668
634,130.592,596.591
637,130.231,594.908
640,129.877,591.207
643,129.519,613.138
646,129.156,609.068
649,128.821,607.373
652,128.464,613.552
655,128.099,624.235
658,127.743,628.623
661,127.425,643.915
664,127.099,638.615
667,126.805,663.117
670,126.531,644.227
673,126.252,667.882
676,126.02,684.147
679,125.8,694.208
682,125.582,696.668
685,125.394,690.46
688,125.232,695.021
691,125.066,701.87
694,124.89,697.907
697,124.743,699.287
700,124.636,704.55
703,124.498,710.868
706,124.392,716.709
709,124.278,709.37
712,124.191,719.922
715,124.117,726.058
718,124.01,724.302
721,123.946,720.293
724,123.867,730.379
727,123.823,731.43
730,123.771,736.003
733,123.712,733.968
736,123.7,738.098
739,123.677,739.551
742,123.681,741.335
745,123.643,740.986
748,123.629,738.588
751,123.578,741.824
754,123.604,742.639
757,123.564,742.431
760,123.551,744.883
763,123.53,746.077
766,123.494,741.664
769,123.514,743.069
772,123.474,742.493
775,123.446,742.851
778,123.44,748.22
779,123.451,746.18

File: FM_FPA_50kW_1.csv
Time,Mass,Temperature Front
[s],[g],[K]
1,168.01,308.497
2,168.03,311.559
3,168.013,341.899
4,167.976,373.028
5,167.982,396
6,167.988,413.855
7,167.997,429.852
8,168.101,444.394
9,168.128,457.488
10,168.181,469.802
11,168.243,481.5
12,168.254,492.436
13,168.272,502.702
14,168.309,512.242
15,168.293,521.406
16,168.311,530.287
17,168.304,538.613
18,168.318,546.266
19,168.304,554.09
20,168.274,561.944
21,168.28,569.142
22,168.272,575.994
23,168.247,582.449
24,168.255,589.031
25,168.239,595.741
26,168.233,602.192
27,168.225,607.535
28,168.223,613.36
29,168.22,618.502
30,168.215,622.588
31,168.22,625.441
32,168.206,628.817
33,168.178,635.624
34,168.161,640.21
35,168.14,644.696
36,168.117,648.419
37,168.111,650.68
38,168.068,650.368
39,168.048,650.574
40,167.991,648.523
41,167.955,647.29
42,167.923,640.794
43,167.824,644.124
44,167.766,641.842
45,167.682,637.191
46,167.597,634.626
47,167.499,629.972
48,167.421,635.717
49,167.319,640.442
50,167.222,639.951
51,167.117,633.687
52,167.014,628.287
53,166.88,626.254
54,166.783,626.272
55,166.667,628.638
56,166.5716,629.436
57,166.464,629.908
58,166.373,635.058
59,166.241,636.913
60,166.151,628.649
61,166.009,624.906
62,165.908,625.731
63,165.786,629.704
64,165.656,626.034
65,165.55,626.604
66,165.415,628.858
67,165.296,628.291
68,165.158,627.077
69,165.031,623.747
70,164.923,619.064
71,164.771,628.885
72,164.65,623.851
73,164.511,629.968
74,164.362,632.921
75,164.236,625.704
76,164.107,626.803
77,163.974,624.121
78,163.848,626.115
79,163.708,644.63
80,163.544,631.55
81,163.418,623.976
82,163.277,622.376
83,163.14,623.667
84,163.008,621.998
85,162.904,629.339
86,162.728,637.897
87,162.61,634.341
88,162.471,625.572
89,162.314,635.63
90,162.17,637.603
91,162.033,634.634
92,161.895,632.141
93,161.745,641.151
94,161.591,636.53
95,161.44,641.948
96,161.303,633.92
97,161.16,624.96
98,161.0334,638.152
99,160.865,637.674
100,160.741,630.292
101,160.585,634.455
102,160.434,633.81
103,160.298,634.479
104,160.155,629.663
105,159.992,637.992
106,159.819,640.134
107,159.66,639.582
108,159.538,635.177
109,159.347,638.847
110,159.222,641.961
111,159.081,647.097
112,158.902,642.511
113,158.753,644.008
114,158.605,639.396
115,158.462,643.655
116,158.305,630.801
117,158.161,635.798
118,158.005,632.749
119,157.845,630.171
120,157.68,639.909
121,157.538,636.85
122,157.355,623.704
123,157.207,623.921
124,157.043,622.81
125,156.909,640.199
126,156.723,635.43
127,156.583,634.617
128,156.436,631.615
129,156.262,630.719
130,156.093,639.496
131,155.947,639.196
132,155.779,630.213
133,155.613,625.667
134,155.422,628.202
135,155.266,635.208
136,155.094,624.75
137,154.946,628.219
138,154.77,633.403
139,154.616,636.19
140,154.441,637.376
141,154.263,641.02
142,154.091,641.888
143,153.938,636.527
144,153.752,636.378
145,153.597,637.646
146,153.421,640.425
147,153.235,635.87
148,153.059,629.484
149,152.873,633.425
150,152.718,642.765
151,152.532,648.192
152,152.33,642.102
153,152.164,634.368
154,151.978,632.415
155,151.803,627.195
156,151.615,633.132
157,151.46,638.631
158,151.282,632.713
159,151.094,642.796
160,150.918,642.333
161,150.698,640.227
162,150.522,642.545
163,150.357,627.415
164,150.183,629.916
165,149.975,640.159
166,149.827,643.96
167,149.641,642.484
168,149.447,640.94
169,149.276,644.309
170,149.061,639.494
171,148.89,636.782
172,148.707,630.647
173,148.497,632.269
174,148.299,634.725
175,148.107,633.049
176,147.925,637.239
177,147.72,641.874
178,147.549,641.559
179,147.371,640.849
180,147.186,638.402
181,146.978,638.363
182,146.803,636.975
183,146.62,643.399
184,146.411,635.263
185,146.215,636.925
186,146.013,642.64
187,145.814,630.65
188,145.631,633.945
189,145.401,632.392
190,145.198,642.756
191,145.008,642.722
192,144.804,645.078
193,144.607,637.303
194,144.408,637.938
195,144.217,634.221
196,144.013,638.771
197,143.784,642.593
198,143.588,642.029
199,143.35,633.405
200,143.148,637.409
201,142.919,631.756
202,142.694,635.075
203,142.468,632.283
204,142.24,624.896
205,142.048,623.952
206,141.84,625.349
207,141.618,634.562
208,141.39,639.21
209,141.161,627.168
210,140.924,633.78
211,140.727,641.194
212,140.487,632.524
213,140.265,629.818
214,140.044,624.442
215,139.805,618.582
216,139.563,621.067
217,139.347,625.394
218,139.087,634.339
219,138.854,622.179
220,138.614,619.078
221,138.372,617.885
222,138.156,629.82
223,137.905,627.907
224,137.675,631.558
225,137.449,636.578
226,137.218,619.797
227,136.983,623.738
228,136.721,615.77
229,136.47,625.253
230,136.234,626.729
231,135.97,633.657
232,135.708,635.971
233,135.453,620.985
234,135.196,616.161
235,134.932,621.342
236,134.655,631.659
237,134.381,621.068
238,134.1081,625.992
239,133.849,631.293
240,133.564,622.44
241,133.312,620.661
242,133.052,624.601
243,132.753,627.168
244,132.487,619.573
245,132.198,626.103
246,131.894,631.27
247,131.62,626.274
248,131.324,622.693
249,131.027,633.704
250,130.712,634.176
251,130.415,622.945
252,130.128,615.123
253,129.847,618.921
254,129.549,621.789
255,129.27,626.548
256,128.95,623.805
257,128.679,623.973
258,128.367,637.733
259,128.048,639.694
260,127.769,641.665
261,127.451,639.883
262,127.164,645.744
263,126.881,646.412
264,126.592,644.882
265,126.314,647.535
266,126.057,641.006
267,125.801,639.273
268,125.515,635.951
269,125.272,638.877
270,125.003,639.55
271,124.794,628.066
272,124.6125,638.108
273,124.444,643.401
274,124.276,653.14
275,124.132,670.549
276,124.003,698.746
277,123.891,737.748
278,123.749,760.453
279,123.668,763.484
280,123.564,782.203
281,123.475,786.647
282,123.401,803.887
283,123.348,790.319
284,123.262,802.401
285,123.208,805.202
286,123.171,817.28
287,123.15,826.563
288,123.093,824.777
289,123.085,838.204
290,123.049,836.395
291,123.036,842.312
292,123.022,845.732
293,123.03,846.964
294,123.002,853.735
295,122.996,851.399
296,122.982,850.004
297,122.97,853.841
298,122.951,854.529
299,122.914,856.141

File: FM_FPA_50kW_2.csv
Time,Mass,Temperature
[s],[g],[K]
1,167.831,296.912
3,168.051,323.384
5,167.961,383.602
7,168.002,419.92
9,168.593,447.868
11,168.26,472.897
13,167.947,493.676
15,167.852,513.158
17,167.78,529.986
19,167.741,545.966
21,167.722,561.574
23,167.638,574.681
25,167.626,586.857
27,167.641,598.536
29,167.6,609.768
31,167.563,617.315
33,167.508,626.225
35,167.467,638.718
37,167.379,646.209
39,167.274,646.865
41,167.175,652.622
43,167.052,655.237
45,166.893,651.376
47,166.676,651.89
49,166.453,650.121
51,166.29,655.193
53,166.117,656.415
55,165.885,660.273
57,165.667,655.796
59,165.423,658.66
61,165.214,651.706
63,164.955,654.569
65,164.696,650.848
67,164.485,651.236
69,164.215,658.862
71,163.972,653.928
73,163.686,652.105
75,163.54,655.902
77,163.244,650.085
79,163.021,647.137
81,162.725,663.485
83,162.43,659.609
85,162.123,665.33
87,161.791,657.677
89,161.512,651.99
91,161.236,663.827
93,160.959,654.691
95,160.644,664.352
97,160.273,662.071
99,160.039,662.971
101,159.923,666.903
103,159.613,664.336
105,159.253,654.945
107,158.978,657.534
109,158.678,658.81
111,158.343,664.416
113,158.021,645.564
115,157.705,657.871
117,157.389,661.372
119,157.095,663.178
121,156.816,662.091
123,156.645,661.026
125,156.35,647.298
127,156.005,650.902
129,155.708,651.41
131,155.345,658.397
133,155.005,661.642
135,154.715,656.61
137,154.334,660.138
139,154.012,662.909
141,153.685,654.467
143,153.363,650.902
145,152.966,655.087
147,152.623,646.572
149,152.396,653.731
151,152.153,654.327
153,151.773,655.588
155,151.436,645.255
157,151.147,642.856
159,150.763,647.098
161,150.394,652.945
163,150.131,644.541
165,149.79,658.348
167,149.432,651.348
169,149.105,642.255
171,148.864,644.638
173,148.538,638.999
175,148.152,662.5
177,147.763,643.558
179,147.391,645.078
181,147.04,647.281
183,146.665,644.792
185,146.286,649.941
187,145.864,651.764
189,145.5056,647.137
191,145.093,654.845
193,144.579,654.346
195,144.028,651.679
197,143.713,641.045
199,143.327,643.334
201,142.901,645.037
203,142.501,639.193
205,142.053,655.674
207,141.671,652.713
209,141.257,641.262
211,140.859,645.064
213,140.438,647.885
215,140.018,652.414
217,139.573,657.684
219,139.152,643.38
221,138.79,637.203
223,138.416,648.733
225,138.005,648.827
227,137.538,640.568
229,137.047,649.301
231,136.573,651.211
233,136.088,638.642
235,135.586,647.053
237,135.025,641.329
239,134.506,644.984
241,133.883,640.034
243,133.293,659.938
245,132.9,650.428
247,132.381,645.896
249,131.808,652.166
251,131.301,638.529
253,130.8,657.483
255,130.247,645.625
257,129.668,648.677
259,129.113,636.906
261,128.515,638.746
263,127.942,638.044
265,127.399,646.373
267,126.795,655.33
269,126.202,655.198
271,125.641,655.498
273,125.086,657.059
275,124.569,667.677
277,124.086,647.18
279,123.685,661.536
281,123.369,678.66
283,123.134,710.284
285,122.946,760.874
287,122.811,822.279
289,122.696,837.585
291,122.562,866.499
293,122.572,883.23
295,122.537,886.182
297,122.485,892.587
299,122.461,894.032
301,122.44,895.616
303,122.424,900.504
305,122.396,900.02
307,122.37,902.399
309,122.366,900.851
311,122.356,901.043
313,122.371,901.867
315,122.411,902.793

File: FM_FPA_50kW_3.csv
Time,Mass,Temperature Front
[s],[g],[K]
1,167.404,305.864
3,167.443,332.034
5,167.344,390.858
7,167.387,426.475
9,167.651,455.116
11,167.806,479.933
13,167.801,501.362
15,167.751,520.102
17,167.726,538.009
19,167.701,553.848
21,167.696,568.53
23,167.693,581.709
25,167.716,595.188
27,167.688,607.063
29,167.665,617.728
31,167.668,626.257
33,167.634,635.566
35,167.613,646.056
37,167.554,650.561
39,167.503,654.485
41,167.414,650.314
43,167.319,650.44
45,167.151,645.601
47,166.948,651.47
49,166.753,645.894
51,166.571,643.601
53,166.359,644.359
55,166.13,646.912
57,165.946,644.376
59,165.726,646.261
61,165.471,644.798
63,165.239,648.278
65,164.993,652.023
67,164.747,643.051
69,164.48,639.48
71,164.209,641.173
73,163.923,647.003
75,163.64,656.057
77,163.391,649.523
79,163.119,653.915
81,162.832,656.804
83,162.549,647.423
85,162.249,651.509
87,161.967,657.952
89,161.661,646.78
91,161.398,639.295
93,161.117,658.691
95,160.83,652.419
97,160.541,648.29
99,160.238,658.092
101,159.922,649.109
103,159.605,644.114
105,159.326,662.807
107,159.023,650.6
109,158.695,638.306
111,158.414,661.38
113,158.1,647.434
115,157.81,650.782
117,157.467,650.637
119,157.118,655.558
121,156.791,656.608
123,156.473,644.233
125,156.191,660.394
127,155.902,654.114
129,155.522,647.966
131,155.202,653.627
133,154.881,649.664
135,154.57,654.523
137,154.236,653.171
139,153.867,645.387
141,153.546,638.363
143,153.204,644.129
145,152.848,643.45
147,152.534,647.25
149,152.141,656.704
151,151.81,648.255
153,151.398,647.767
155,151.017,647.236
157,150.711,646.698
159,150.325,653.678
161,149.972,660.717
163,149.605,652.1
165,149.255,649.598
167,148.921,657.215
169,148.53,648.62
171,148.132,648.016
173,147.735,649.881
175,147.355,641.831
177,147.001,647.149
179,146.624,650.291
181,146.23,646.513
183,145.815,649.611
185,145.492,650.459
187,145.097,646.959
189,144.664,647.248
191,144.221,634.24
193,143.813,650.327
195,143.425,654.246
197,142.997,650.433
199,142.587,654.022
201,142.132,647.672
203,141.666,658.919
205,141.295,651.656
207,140.868,651.776
209,140.384,656.747
211,139.943,652.081
213,139.484,645.442
215,139.03,639.529
217,138.569,649.26
219,138.095,640.313
221,137.636,649.942
223,137.141,648.944
225,136.687,650.301
227,136.198,652.526
229,135.657,644.336
231,135.135,651.616
233,134.612,648.09
235,134.117,648.303
237,133.6,653.754
239,133.045,650.815
241,132.508,651.252
243,131.924,646.641
245,131.383,655.6
247,130.808,652.318
249,130.216,639.634
251,129.614,628.364
253,129.023,634.125
255,128.467,643.811
257,127.857,636.995
259,127.257,651.871
261,126.67,633.533
263,126.096,632.005
265,125.553,635.833
267,124.991,634.01
269,124.496,637.958
271,124.002,640.144
273,123.598,658.826
275,123.25,661.013
277,122.945,680.64
279,122.681,711.496
281,122.511,770.246
283,122.444,803.36
285,122.346,820.332
287,122.271,848.172
289,122.231,852.729
291,122.175,862.398
293,122.214,862.249
295,122.161,864.135
297,122.126,866.239
299,122.112,866.567
301,122.118,867.271
303,122.137,865.581
305,122.113,866.143
307,122.105,865.637
309,122.065,865.729
311,122.023,866.469
313,122.064,864.806
315,122.036,865.5