Folder: matl-db/PMMA/Calibration_Data/FM (part 2)

File: FM_FPA_65kW_1.csv
Time,Mass,Temperature Front
[s],[g],[K]
1,169.489,300.668
2,169.39,345.273
3,169.252,384.452
4,169.115,412.534
5,169.068,435.841
6,169.201,456.796
7,169.558,475.528
8,169.692,492.889
9,169.746,508.71
10,169.787,523.302
11,169.854,537.004
12,169.874,549.976
13,169.897,562.455
14,169.903,574.296
15,169.904,585.998
16,169.894,596.54
17,169.889,606.267
18,169.895,615.613
19,169.888,624.435
20,169.865,631.974
21,169.852,636.465
22,169.813,642.612
23,169.786,650.541
24,169.742,655.765
25,169.713,657.652
26,169.625,656.447
27,169.539,650.532
28,169.444,649.228
29,169.311,650.5
30,169.196,649.762
31,169.072,647.232
32,168.93,648.114
33,168.787,651.188
34,168.628,648.69
35,168.475,645.779
36,168.305,647.822
37,168.139,645.551
38,167.976,635.499
39,167.807,627.14
40,167.587,619.1
41,167.429,628.77
42,167.255,618.975
43,167.111,614.318
44,166.907,631.201
45,166.728,629.942
46,166.484,616.159
47,166.32,618.74
48,166.154,622.487
49,165.9541,614.434
50,165.757,602.523
51,165.604,625.555
52,165.397,626.638
53,165.219,630.706
54,165.022,631.428
55,164.815,625.082
56,164.642,637.163
57,164.471,628.786
58,164.283,614.265
59,164.078,621.046
60,163.886,623.843
61,163.691,626.519
62,163.469,612.011
63,163.303,623.488
64,163.122,635.812
65,162.976,624.302
66,162.789,620.573
67,162.599,619.203
68,162.389,623.836
69,162.173,632.53
70,161.974,623.313
71,161.771,605.229
72,161.562,625.082
73,161.367,632.504
74,161.178,619.568
75,160.982,624.046
76,160.786,626.44
77,160.583,637.326
78,160.383,638.739
79,160.171,628.67
80,159.96,630.152
81,159.739,624.005
82,159.561,625.148
83,159.324,631.141
84,159.144,630.982
85,158.913,626.587
86,158.717,632.369
87,158.475,637.418
88,158.258,644.785
89,158.049,642.003
90,157.858,634.964
91,157.68,628.449
92,157.442,616.366
93,157.238,631.272
94,157.024,652.359
95,156.783,638.276
96,156.583,634.327
97,156.383,620.71
98,156.156,617.878
99,155.923,630.998
100,155.732,641.935
101,155.508,643.305
102,155.262,635.554
103,155.027,636.767
104,154.824,626.348
105,154.591,632.262
106,154.386,636.175
107,154.171,633.591
108,153.925,631.071
109,153.711,624.175
110,153.524,633.299
111,153.284,633.19
112,153.075,634.225
113,152.875,632.249
114,152.68,624.309
115,152.427,635.233
116,152.188,636.234
117,151.919,626.794
118,151.701,626.393
119,151.467,635.043
120,151.233,631.791
121,151.023,631.906
122,150.752,641.336
123,150.547,637.66
124,150.287,629.385
125,150.081,639.754
126,149.81,634.529
127,149.572,631.436
128,149.344,634.733
129,149.075,644.241
130,148.836,634.811
131,148.566,636.199
132,148.283,643.138
133,148.047,643.86
134,147.803,633.222
135,147.521,634.711
136,147.208,639.264
137,146.928,636.081
138,146.71,643.207
139,146.484,647.492
140,146.273,642.118
141,145.99,640.897
142,145.743,642.047
143,145.448,649.24
144,145.188,650.549
145,144.954,643.055
146,144.687,643.624
147,144.445,648.22
148,144.193,643.907
149,143.92,642.273
150,143.658,644.215
151,143.386,644.312
152,143.116,645.331
153,142.839,644.277
154,142.593,655.753
155,142.329,653.274
156,142.028,648.466
157,141.743,657.418
158,141.502,642.409
159,141.245,641.796
160,140.948,650.17
161,140.695,647.001
162,140.399,645.962
163,140.128,637.63
164,139.872,637.978
165,139.579,639.857
166,139.299,651.156
167,139.03,645.589
168,138.766,644.103
169,138.462,633.484
170,138.157,626.36
171,137.892,636.935
172,137.624,635.707
173,137.304,634.056
174,136.986,633.191
175,136.67,628.352
176,136.366,643.816
177,136.097,644.101
178,135.777,636.913
179,135.46,629.614
180,135.117,642.046
181,134.7997,645.913
182,134.493,649.205
183,134.168,641.367
184,133.808,634.169
185,133.494,633.835
186,133.163,622.122
187,132.789,628.008
188,132.426,624.074
189,132.04,624.945
190,131.707,635.609
191,131.4,632.629
192,131.041,640.633
193,130.666,642.484
194,130.292,640.164
195,129.911,635.284
196,129.545,618.24
197,129.182,619.915
198,128.828,612.889
199,128.417,621.987
200,128.042,617.452
201,127.671,609.3
202,127.289,621.985
203,126.92,636.873
204,126.539,630.154
205,126.202,621.271
206,125.861,628.099
207,125.578,635.906
208,125.266,628.393
209,124.971,628.021
210,124.743,635.74
211,124.551,663.093
212,124.367,666.06
213,124.22,674.865
214,124.124,709.094
215,123.993,730.045
216,123.898,733.507
217,123.83,758.833
218,123.77,771.005
219,123.73,790.191
220,123.682,800.794
221,123.659,812.884
222,123.604,823.354
223,123.574,840.285
224,123.557,855.119
225,123.509,873.66
226,123.528,894.491
227,123.481,901.198
228,123.471,909.813
229,123.461,921.711
230,123.425,929.709
231,123.408,932.759
232,123.388,940.318
233,123.387,949.582
234,123.358,952.699
235,123.334,958.525
236,123.256,959.924
237,123.231,962.519
238,123.21,967.106
239,123.272,972.34
240,123.24,977.549
241,123.238,983.055
242,123.246,987.491
243,123.216,992.078
244,123.208,995.344
245,123.195,998.219
246,123.173,1000.51
247,123.164,1003.84
248,123.159,1003.98
249,123.135,1005.57
250,123.114,1008.05
251,123.125,1007.15
252,123.093,1009.06
253,123.103,1011.94
254,123.101,1011.94