Folder: matl-db/PMMA/Calibration_Data/FSRI (part 3)

File: FSRI_DSC_N2_30K_3.csv
Temp,time,Heat Flow Rate
[K],[s],[mW/mg]
322.5,24.9,1.60E-02
324.5,46.6,0.12514
326.5,57.3,0.20854
328.5,65.5,0.27981
330.5,72.5,0.33772
332.5,78.7,0.38921
334.5,84.5,0.43731
336.5,89.9,0.47582
338.5,95.1,0.51412
340.5,100.1,0.54906
342.5,104.8,0.57885
344.5,109.5,0.60994
346.5,114.1,0.63604
348.5,118.6,0.66135
350.5,123.1,0.68559
352.5,127.4,0.71097
354.5,131.8,0.73236
356.5,136.1,0.75406
358.5,140.3,0.76963
360.5,144.5,0.77782
362.5,148.7,0.78205
364.5,152.8,0.7823
366.5,156.9,0.78403
368.5,161,0.78526
370.5,165.1,0.79412
372.5,169.2,0.79882
374.5,173.3,0.80652
376.5,177.3,0.8169
378.5,181.4,0.82239
380.5,185.4,0.83498
382.5,189.5,0.84464
384.5,193.5,0.85742
386.5,197.5,0.87085
388.5,201.5,0.88632
390.5,205.6,0.89836
392.5,209.6,0.91507
394.5,213.6,0.93353
396.5,217.5,0.95423
398.5,221.5,0.97913
400.5,225.5,1.00417
402.5,229.4,1.02742
404.5,233.4,1.04755
406.5,237.3,1.06859
408.5,241.2,1.08591
410.5,245.1,1.10351
412.5,249,1.11897
414.5,252.9,1.13001
416.5,256.7,1.1442
418.5,260.6,1.15581
420.5,264.4,1.16798
422.5,268.2,1.17743
424.5,272.1,1.1856
426.5,275.9,1.19575
428.5,279.7,1.20489
430.5,283.5,1.21599
432.5,287.3,1.22509
434.5,291.1,1.23673
436.5,294.9,1.25045
438.5,298.7,1.26258
440.5,302.5,1.27526
442.5,306.2,1.28923
444.5,310,1.30848
446.5,313.8,1.32759
448.5,317.5,1.34802
450.5,321.3,1.37206
452.5,325,1.39328
454.5,328.7,1.41675
456.5,332.5,1.4412
458.5,336.2,1.4636
460.5,339.9,1.48489
462.5,343.6,1.50671
464.5,347.3,1.52535
466.5,351,1.54194
468.5,354.7,1.55536
470.5,358.3,1.56707
472.5,362,1.57603
474.5,365.7,1.57844
476.5,369.4,1.57676
478.5,373.1,1.57476
480.5,376.7,1.56802
482.5,380.4,1.56326
484.5,384.1,1.55812
486.5,387.7,1.5556
488.5,391.4,1.55387
490.5,395.1,1.55549
492.5,398.7,1.55679
494.5,402.4,1.56354
496.5,406.1,1.57044
498.5,409.7,1.57856
500.5,413.4,1.58736
502.5,417,1.5893
504.5,420.7,1.592
506.5,424.3,1.59028
508.5,428,1.58265
510.5,431.6,1.56715
512.5,435.3,1.55355
514.5,438.9,1.53775
516.5,442.6,1.52463
518.5,446.2,1.51169
520.5,449.9,1.50029
522.5,453.5,1.49407
524.5,457.1,1.48963
526.5,460.8,1.48922
528.5,464.4,1.48489
530.5,468,1.48681
532.5,471.7,1.48755
534.5,475.3,1.49186
536.5,479,1.49419
538.5,482.6,1.49929
540.5,486.2,1.505
542.5,489.8,1.51226
544.5,493.5,1.51862
546.5,497.1,1.52765
548.5,500.7,1.53825
550.5,504.4,1.54803
552.5,508,1.56163
554.5,511.6,1.57128
556.5,515.2,1.58637
558.5,518.9,1.6022
560.5,522.5,1.61487
562.5,526.1,1.63655
564.5,529.7,1.65493
566.5,533.4,1.67497
568.5,537,1.69857
570.5,540.6,1.72818
572.5,544.3,1.76001
574.5,547.9,1.78849
576.5,551.5,1.81809
578.5,555.2,1.84548
580.5,558.8,1.8683
582.5,562.4,1.89289
584.5,566.1,1.91685
586.5,569.7,1.94102
588.5,573.4,1.96466
590.5,577,1.98736
592.5,580.6,2.01078
594.5,584.3,2.03566
596.5,587.9,2.06355
598.5,591.6,2.09703
600.5,595.2,2.1391
602.5,598.9,2.19525
604.5,602.5,2.25722
606.5,606.2,2.33532
608.5,609.8,2.42385
610.5,613.5,2.53147
612.5,617.2,2.65533
614.5,620.8,2.7979
616.5,624.5,2.95737
618.5,628.2,3.13682
620.5,631.9,3.33747
622.5,635.6,3.55951
624.5,639.2,3.80082
626.5,642.9,4.06853
628.5,646.6,4.35919
630.5,650.4,4.67505
632.5,654.1,5.00586
634.5,657.8,5.3574
636.5,661.6,5.72358
638.5,665.3,6.10185
640.5,669.1,6.48421
642.5,672.8,6.86667
644.5,676.6,7.24473
646.5,680.3,7.60966
648.5,684.1,7.91469
650.5,687.8,8.14919
652.5,691.6,8.29361
654.5,695.4,8.45293
656.5,699.2,8.57727
658.5,702.9,8.6084
660.5,706.7,8.52858
662.5,710.5,8.3938
664.5,714.2,8.16273
666.5,717.9,7.96733
668.5,721.7,7.59287
670.5,725.4,7.25807
672.5,729.1,7.039
674.5,732.9,6.66929
676.5,736.6,6.25349
678.5,740.3,5.71303
680.5,744,5.14287
682.5,747.7,4.55188
684.5,751.4,3.9928
686.5,755,3.47706
688.5,758.7,2.9975
690.5,762.4,2.55794
692.5,766.1,2.15091
694.5,769.7,1.79094
696.5,773.4,1.47559
698.5,777.1,1.20855
700.5,780.8,0.9824
702.5,784.5,0.79223
704.5,788.2,0.64004
706.5,792,0.51785
708.5,795.7,0.41599
710.5,799.4,0.33593
712.5,803.2,0.2738
714.5,806.9,0.2197
716.5,810.7,0.18204
718.5,814.4,0.14712
720.5,818.2,0.12378
722.5,822,0.10414
724.5,825.7,8.84E-02
726.5,829.5,7.89E-02
728.5,833.3,6.85E-02
730.5,837.1,6.29E-02
732.5,840.9,6.85E-02
734.5,844.7,6.97E-02
736.5,848.5,6.72E-02
738.5,852.3,5.77E-02
740.5,856.1,5.02E-02
742.5,859.9,4.17E-02
744.5,863.7,3.95E-02
746.5,867.5,4.31E-02
748.5,871.4,5.28E-02
750.5,875.2,6.54E-02
752.5,879,7.96E-02
754.5,882.8,8.98E-02
756.5,886.7,0.103
758.5,890.5,0.11356
760.5,894.3,0.1218
762.5,898.2,0.13186
764.5,902,0.13855
766.5,905.9,0.14562
768.5,909.7,0.15177
770.5,913.6,0.15875
772.5,917.4,0.16335
774.5,921.3,0.16912
776.5,925.1,0.17028
778.5,929,0.17354
780.5,932.8,0.17569
782.5,936.7,0.18007
784.5,940.6,0.18196
786.5,944.4,0.18426
788.5,948.3,0.18459
790.5,952.1,0.18527
792.5,956,0.18599
794.5,959.9,0.18757
796.5,963.7,0.18688
798.5,967.6,0.19118
800.5,971.4,0.19247
802.5,975.3,0.19446
804.5,979.2,0.19499
806.5,983.1,0.19618
808.5,987,0.19788
810.5,990.8,0.20018
812.5,994.7,0.20522
814.5,998.7,0.20763

File: FSRI_STA_N2_3K_1.csv
Temp,time,TGA,DSC
[K],[s],[mg],[mW/mg]
323.4,0.0,3.9820,5.67E-03
325.1,99.5,3.9812,6.06E-02
326.8,142.0,3.9819,7.53E-02
328.5,181.1,3.9812,7.57E-02
330.2,218.7,3.9812,7.85E-02
331.9,255.4,3.9812,8.33E-02
333.6,291.3,3.9813,8.31E-02
335.3,326.5,3.9825,8.70E-02
337.0,361.7,3.9815,8.77E-02
338.7,396.6,3.9819,9.03E-02
340.4,431.4,3.9822,8.87E-02
342.1,466.1,3.9806,8.90E-02
343.8,500.4,3.9802,9.40E-02
345.5,534.6,3.9815,9.49E-02
347.2,568.8,3.9798,9.33E-02
348.9,603.1,3.9799,9.32E-02
350.6,637.4,3.9799,9.23E-02
352.3,671.5,3.9796,9.14E-02
354.0,705.7,3.9794,9.57E-02
355.7,740.1,3.9782,9.35E-02
357.4,774.7,3.9776,9.01E-02
359.1,808.8,3.9779,9.48E-02
360.8,842.6,3.9775,9.65E-02
362.5,876.7,3.9773,9.40E-02
364.2,910.8,3.9776,9.60E-02
365.9,944.9,3.9776,9.48E-02
367.6,978.9,3.9766,9.67E-02
369.3,1012.7,3.9755,9.81E-02
371.0,1046.6,3.9769,9.77E-02
372.7,1080.3,3.9759,9.84E-02
374.4,1113.8,3.9759,0.10088
376.1,1147.6,3.9753,9.95E-02
377.8,1181.4,3.9756,9.90E-02
379.5,1215.4,3.9753,9.87E-02
381.2,1249.0,3.9727,0.10212
382.9,1282.5,3.9748,0.10572
384.6,1316.0,3.9743,0.10713
386.3,1349.7,3.9736,0.10691
388.0,1383.4,3.9724,0.10953
389.7,1417.1,3.9730,0.10746
391.4,1450.8,3.9717,0.11311
393.1,1484.6,3.9717,0.11561
394.8,1518.6,3.9717,0.11852
396.5,1552.6,3.9700,0.11967
398.2,1586.4,3.9713,0.12053
399.9,1619.9,3.9681,0.12718
401.6,1653.2,3.9681,0.1305
403.3,1686.5,3.9673,0.12671
405.0,1720.0,3.9661,0.13052
406.7,1753.6,3.9656,0.13285
408.4,1787.1,3.9661,0.12999
410.1,1820.7,3.9648,0.13231
411.8,1854.3,3.9624,0.12807
413.5,1887.8,3.9631,0.1314
415.2,1921.2,3.9608,0.13043
416.9,1954.7,3.9595,0.1321
418.6,1988.2,3.9598,0.13233
420.3,2021.5,3.9565,0.13496
422.0,2054.8,3.9535,0.13754
423.7,2088.0,3.9532,0.1379
425.4,2121.4,3.9519,0.13992
427.1,2154.6,3.9506,0.14455
428.8,2187.9,3.9480,0.14168
430.5,2221.4,3.9468,0.14294
432.2,2254.7,3.9461,0.14381
433.9,2288.1,3.9438,0.14567
435.6,2321.4,3.9399,0.14871
437.3,2354.7,3.9375,0.14946
439.0,2388.1,3.9360,0.1518
440.7,2421.5,3.9346,0.15501
442.4,2454.8,3.9293,0.15832
444.1,2488.0,3.9277,0.15927
445.8,2521.1,3.9229,0.16034
447.5,2554.3,3.9188,0.15987
449.2,2587.4,3.9147,0.16071
450.9,2620.7,3.9102,0.15919
452.6,2654.0,3.9063,0.15577
454.3,2687.3,3.9017,0.15712
456.0,2720.9,3.8981,0.15325
457.7,2754.5,3.8951,0.15137
459.4,2787.8,3.8925,0.15079
461.1,2820.9,3.8885,0.15307
462.8,2854.1,3.8847,0.15239
464.5,2887.3,3.8834,0.15389
466.2,2920.5,3.8793,0.1546
467.9,2953.9,3.8787,0.15215
469.6,2987.5,3.8744,0.15202
471.3,3021.1,3.8727,0.14784
473.0,3054.4,3.8707,0.14877
474.7,3087.2,3.8701,0.14997
476.4,3119.9,3.8685,0.15115
478.1,3152.7,3.8665,0.14928
479.8,3185.3,3.8669,0.14836
481.5,3217.9,3.8642,0.14606
483.2,3250.8,3.8632,0.14228
484.9,3284.1,3.8625,0.13952
486.6,3317.4,3.8619,0.14133
488.3,3350.8,3.8609,0.13884
490.0,3384.1,3.8599,0.13963
491.7,3417.2,3.8582,0.1399
493.4,3450.3,3.8586,0.14096
495.1,3483.5,3.8583,0.14349
496.8,3516.7,3.8571,0.14486
498.5,3550.0,3.8569,0.1438
500.2,3583.2,3.8579,0.14548
501.9,3616.3,3.8556,0.14731
503.6,3649.3,3.8543,0.14698
505.3,3682.4,3.8546,0.14828
507.0,3715.3,3.8550,0.15235
508.7,3748.3,3.8530,0.15082
510.4,3781.6,3.8513,0.14819
512.1,3815.1,3.8510,0.14906
513.8,3848.4,3.8484,0.15147
515.5,3881.6,3.8464,0.15603
517.2,3914.6,3.8454,0.15912
518.9,3947.7,3.8428,0.15912
520.6,3980.7,3.8405,0.16222
522.3,4013.8,3.8376,0.16211
524.0,4047.0,3.8346,0.16454
525.7,4080.1,3.8319,0.16449
527.4,4113.3,3.8304,0.1739
529.1,4146.2,3.8270,0.17852
530.8,4179.3,3.8230,0.18427
532.5,4212.4,3.8190,0.18531
534.2,4245.7,3.8148,0.18651
535.9,4278.8,3.8109,0.18987
537.6,4311.7,3.8063,0.19459
539.3,4344.7,3.8016,0.1975
541.0,4377.9,3.7958,0.19324
542.7,4410.9,3.7918,0.20251
544.4,4444.3,3.7854,0.20354
546.1,4477.5,3.7794,0.2064
547.8,4510.7,3.7734,0.20993
549.5,4543.8,3.7668,0.20668
551.2,4577.0,3.7586,0.21046
552.9,4610.0,3.7503,0.21569
554.6,4643.0,3.7431,0.22006
556.3,4676.1,3.7351,0.21689
558.0,4709.5,3.7282,0.21625
559.7,4742.8,3.7185,0.21699
561.4,4776.0,3.7114,0.21992
563.1,4809.3,3.7020,0.22348
564.8,4842.5,3.6929,0.22491
566.5,4875.7,3.6812,0.22619
568.2,4908.9,3.6705,0.22742
569.9,4942.1,3.6590,0.23337
571.6,4975.1,3.6468,0.2439
573.3,5008.4,3.6335,0.24947
575.0,5041.8,3.6187,0.2601
576.7,5075.0,3.6018,0.26746
578.4,5108.0,3.5843,0.2812
580.1,5141.3,3.5655,0.29108
581.8,5174.6,3.5465,0.30608
583.5,5208.3,3.5226,0.31687
585.2,5241.5,3.4968,0.33537
586.9,5274.5,3.4720,0.35495
588.6,5307.7,3.4404,0.37484
590.3,5341.0,3.4059,0.39981
592.0,5374.7,3.3689,0.42143
593.7,5408.2,3.3270,0.44919
595.4,5441.6,3.2796,0.47925
597.1,5474.8,3.2312,0.51626
598.8,5508.0,3.1740,0.55001
600.5,5541.2,3.1124,0.59018
602.2,5574.5,3.0453,0.62811
603.9,5607.9,2.9705,0.66782
605.6,5641.6,2.8873,0.70965
607.3,5675.1,2.7999,0.74912
609.0,5708.6,2.7067,0.79053
610.7,5742.1,2.6062,0.82409
612.4,5775.6,2.4997,0.8532
614.1,5809.2,2.3856,0.88179
615.8,5842.7,2.2713,0.90701
617.5,5876.2,2.1505,0.9212
619.2,5909.8,2.0287,0.92475
620.9,5943.3,1.9053,0.92002
622.6,5976.6,1.7814,0.91302
624.3,6010.0,1.6593,0.89951
626.0,6043.5,1.5367,0.87491
627.7,6076.9,1.4198,0.84922
629.4,6110.1,1.3044,0.82704
631.1,6143.2,1.1893,0.7995
632.8,6176.4,1.0801,0.76502
634.5,6209.8,0.9758,0.72665
636.2,6243.2,0.8761,0.68254
637.9,6276.6,0.7814,0.63847
639.6,6310.0,0.6948,0.59276
641.3,6343.6,0.6140,0.54272
643.0,6377.2,0.5404,0.49418
644.7,6410.4,0.4745,0.44746
646.4,6443.6,0.4140,0.41054
648.1,6476.9,0.3605,0.37059
649.8,6510.2,0.3105,0.32739
651.5,6543.7,0.2691,0.28965
653.2,6577.3,0.2311,0.25867
654.9,6611.0,0.1966,0.22802
656.6,6644.5,0.1669,0.20094
658.3,6677.8,0.1427,0.17722
660.0,6711.0,0.1213,0.1554
661.7,6744.4,0.1013,0.13202
663.4,6778.2,0.0869,0.11392
665.1,6811.7,0.0729,0.10727
666.8,6845.3,0.0624,9.11E-02
668.5,6878.8,0.0532,8.50E-02
670.2,6912.3,0.0466,7.89E-02
671.9,6945.9,0.0380,7.67E-02
673.6,6979.5,0.0338,7.39E-02
675.3,7013.1,0.0268,7.39E-02
677.0,7046.6,0.0235,7.63E-02
678.7,7080.0,0.0202,6.97E-02
680.4,7113.4,0.0182,6.24E-02
682.1,7147.0,0.0156,5.29E-02
683.8,7180.7,0.0148,4.09E-02
685.5,7214.5,0.0133,2.69E-02
687.2,7248.1,0.0120,1.20E-02
688.9,7282.1,0.0113,-9.86E-03
690.6,7315.9,0.0113,-2.03E-02
692.3,7349.6,0.0127,-1.63E-02
694.0,7383.3,0.0118,-5.14E-03
695.7,7417.2,0.0110,2.07E-03
697.4,7451.0,0.0113,8.54E-03
699.1,7484.7,0.0110,6.95E-03
700.8,7518.3,0.0107,1.39E-02
702.5,7551.7,0.0104,1.22E-02
704.2,7585.4,0.0106,1.21E-02
705.9,7619.2,0.0103,1.01E-02
707.6,7653.3,0.0087,9.63E-03
709.3,7687.0,0.0094,1.08E-02
711.0,7720.6,0.0100,1.38E-02
712.7,7754.5,0.0094,1.38E-02
714.4,7788.2,0.0090,1.40E-02
716.1,7822.0,0.0097,1.36E-02
717.8,7855.7,0.0101,1.38E-02
719.5,7889.5,0.0107,1.05E-02
721.2,7923.3,0.0094,1.24E-02
722.9,7956.9,0.0104,1.40E-02
724.6,7990.8,0.0097,1.32E-02
726.3,8025.0,0.0090,1.17E-02
728.0,8058.9,0.0084,1.25E-02
729.7,8092.5,0.0100,1.44E-02
731.4,8126.0,0.0081,1.37E-02
733.1,8159.7,0.0084,1.67E-02
734.8,8193.6,0.0085,1.68E-02
736.5,8227.8,0.0100,1.48E-02
738.2,8261.8,0.0087,1.64E-02
739.9,8295.7,0.0097,1.61E-02
741.6,8329.9,0.0090,1.55E-02
743.3,8363.9,0.0090,2.17E-02
745.0,8397.6,0.0091,2.20E-02
746.7,8431.1,0.0077,1.85E-02
748.4,8464.9,0.0084,2.08E-02
750.1,8498.8,0.0084,2.26E-02
751.8,8532.8,0.0088,2.26E-02
753.5,8566.6,0.0084,2.01E-02
755.2,8600.6,0.0065,2.14E-02
756.9,8634.2,0.0071,2.18E-02
758.6,8668.2,0.0081,2.09E-02
760.3,8702.2,0.0074,2.49E-02
762.0,8736.0,0.0061,2.45E-02
763.7,8769.9,0.0080,2.36E-02
765.4,8803.8,0.0061,2.71E-02
767.1,8838.0,0.0071,2.83E-02
768.8,8872.1,0.0057,2.72E-02
770.5,8905.8,0.0061,2.68E-02
772.2,8939.7,0.0061,2.40E-02
773.9,8973.9,0.0051,2.68E-02
775.6,9008.1,0.0061,2.63E-02
777.3,9042.0,0.0051,2.44E-02
779.0,9075.7,0.0061,2.30E-02
780.7,9109.3,0.0067,2.66E-02
782.4,9143.3,0.0054,2.65E-02
784.1,9177.3,0.0057,2.56E-02
785.8,9211.5,0.0054,2.80E-02
787.5,9245.7,0.0051,2.80E-02
789.2,9279.8,0.0054,2.78E-02
790.9,9313.6,0.0054,2.76E-02
792.6,9347.4,0.0057,2.91E-02
794.3,9381.5,0.0045,2.98E-02
796.0,9415.6,0.0044,2.85E-02
797.7,9449.7,0.0048,3.29E-02
799.4,9483.9,0.0051,3.04E-02
801.1,9518.1,0.0041,3.27E-02
802.8,9551.9,0.0038,3.38E-02
804.5,9585.9,0.0051,3.66E-02
806.2,9619.9,0.0051,3.20E-02
807.9,9654.0,0.0051,3.51E-02
809.6,9688.1,0.0048,3.34E-02
811.3,9722.3,0.0064,3.61E-02
813.0,9756.5,0.0054,3.64E-02
814.7,9790.7,0.0061,4.06E-02
816.4,9824.8,0.0051,4.20E-02
818.1,9858.9,0.0058,3.96E-02
819.8,9893.0,0.0024,4.16E-02
821.5,9926.8,0.0034,3.96E-02
823.2,9960.7,0.0031,4.37E-02
824.9,9994.8,0.0031,4.47E-02
825.1,9998.8,0.0031,4.33E-02

File: FSRI_STA_N2_10K_1.csv
Temp,time,TGA,DSC
[K],[s],[mg],[mW/mg]
322.8,0.0,3.9785,-3.57E-03
324.5,61.2,3.9805,7.56E-02
326.2,79.9,3.9799,0.12494
327.9,95.0,3.9807,0.15659
329.6,108.3,3.9785,0.17923
331.3,120.7,3.9780,0.19537
333.0,132.7,3.9803,0.20721
334.7,144.2,3.9794,0.21748
336.4,155.6,3.9776,0.22559
338.1,166.9,3.9795,0.23258
339.8,178.0,3.9797,0.23873
341.5,189.1,3.9802,0.24133
343.2,200.0,3.9790,0.2442
344.9,210.9,3.9790,0.25032
346.6,221.6,3.9784,0.25572
348.3,232.4,3.9790,0.26017
350.0,243.0,3.9790,0.26468
351.7,253.6,3.9790,0.2672
353.4,264.2,3.9802,0.27074
355.1,274.6,3.9789,0.2701
356.8,285.1,3.9790,0.26716
358.5,295.5,3.9795,0.26707
360.2,305.8,3.9787,0.26841
361.9,316.1,3.9790,0.26773
363.6,326.3,3.9777,0.2722
365.3,336.5,3.9767,0.27352
367.0,346.7,3.9791,0.27778
368.7,356.8,3.9778,0.2807
370.4,367.0,3.9777,0.28082
372.1,377.0,3.9781,0.28463
373.8,387.1,3.9791,0.28613
375.5,397.2,3.9790,0.29245
377.2,407.2,3.9790,0.29499
378.9,417.2,3.9763,0.29883
380.6,427.1,3.9792,0.30503
382.3,437.1,3.9766,0.3082
384.0,447.1,3.9739,0.31364
385.7,457.1,3.9758,0.31882
387.4,467.1,3.9773,0.32226
389.1,477.0,3.9766,0.32809
390.8,487.0,3.9765,0.33457
392.5,496.9,3.9753,0.3428
394.2,506.9,3.9752,0.35063
395.9,516.8,3.9753,0.35808
397.6,526.8,3.9759,0.36807
399.3,536.7,3.9759,0.37235
401.0,546.6,3.9753,0.379
402.7,556.5,3.9740,0.38432
404.4,566.4,3.9743,0.38615
406.1,576.2,3.9738,0.38999
407.8,586.1,3.9726,0.3884
409.5,596.1,3.9710,0.39074
411.2,605.9,3.9713,0.39183
412.9,615.8,3.9713,0.39473
414.6,625.7,3.9719,0.39714
416.3,635.5,3.9710,0.39909
418.0,645.4,3.9697,0.40239
419.7,655.2,3.9711,0.40122
421.4,665.1,3.9698,0.40448
423.1,674.9,3.9685,0.4057
424.8,684.7,3.9671,0.40907
426.5,694.5,3.9671,0.4142
428.2,704.3,3.9672,0.41693
429.9,714.1,3.9658,0.42139
431.6,723.9,3.9638,0.42665
433.3,733.8,3.9616,0.4265
435.0,743.6,3.9609,0.43501
436.7,753.4,3.9586,0.43788
438.4,763.2,3.9584,0.44433
440.1,773.0,3.9575,0.44923
441.8,782.8,3.9558,0.45717
443.5,792.6,3.9534,0.46198
445.2,802.4,3.9508,0.46725
446.9,812.2,3.9493,0.47504
448.6,822.0,3.9478,0.48425
450.3,831.7,3.9451,0.48787
452.0,841.5,3.9423,0.49269
453.7,851.3,3.9391,0.49807
455.4,861.1,3.9369,0.50281
457.1,870.9,3.9338,0.50732
458.8,880.7,3.9317,0.5114
460.5,890.4,3.9265,0.5124
462.2,900.2,3.9225,0.5113
463.9,909.9,3.9194,0.50755
465.6,919.7,3.9173,0.5067
467.3,929.4,3.9128,0.5011
469.0,939.2,3.9092,0.49793
470.7,949.0,3.9066,0.49476
472.4,958.7,3.9027,0.4958
474.1,968.5,3.9000,0.49779
475.8,978.2,3.8961,0.50104
477.5,988.0,3.8928,0.50129
479.2,997.7,3.8901,0.5045
480.9,1007.5,3.8869,0.50864
482.6,1017.3,3.8833,0.5114
484.3,1027.0,3.8795,0.51423
486.0,1036.8,3.8763,0.51419
487.7,1046.5,3.8724,0.51358
489.4,1056.3,3.8701,0.51176
491.1,1066.0,3.8675,0.50665
492.8,1075.7,3.8651,0.49981
494.5,1085.5,3.8644,0.49031
496.2,1095.2,3.8625,0.48247
497.9,1104.9,3.8599,0.47767
499.6,1114.6,3.8586,0.47505
501.3,1124.3,3.8582,0.47309
503.0,1134.0,3.8582,0.47
504.7,1143.8,3.8559,0.46697
506.4,1153.5,3.8556,0.46861
508.1,1163.2,3.8546,0.46622
509.8,1173.0,3.8559,0.47145
511.5,1182.7,3.8546,0.47088
513.2,1192.5,3.8530,0.47368
514.9,1202.2,3.8520,0.47476
516.6,1211.9,3.8507,0.48054
518.3,1221.7,3.8493,0.4849
520.0,1231.4,3.8494,0.48845
521.7,1241.2,3.8494,0.48969
523.4,1250.9,3.8480,0.49366
525.1,1260.6,3.8490,0.49764
526.8,1270.4,3.8451,0.50178
528.5,1280.1,3.8431,0.50676
530.2,1289.8,3.8437,0.50992
531.9,1299.5,3.8425,0.51191
533.6,1309.3,3.8418,0.52035
535.3,1319.0,3.8405,0.52203
537.0,1328.8,3.8392,0.5316
538.7,1338.6,3.8338,0.53613
540.4,1348.3,3.8337,0.54279
542.1,1358.1,3.8308,0.55014
543.8,1367.8,3.8299,0.55792
545.5,1377.6,3.8262,0.56371
547.2,1387.4,3.8218,0.57444
548.9,1397.1,3.8176,0.58181
550.6,1406.9,3.8161,0.59205
552.3,1416.7,3.8111,0.60003
554.0,1426.4,3.8076,0.61079
555.7,1436.2,3.8045,0.61756
557.4,1446.0,3.7998,0.62204
559.1,1455.8,3.7938,0.62757
560.8,1465.5,3.7874,0.63633
562.5,1475.3,3.7812,0.64226
564.2,1485.1,3.7755,0.65114
565.9,1494.9,3.7706,0.65779
567.6,1504.7,3.7639,0.66828
569.3,1514.5,3.7569,0.67039
571.0,1524.2,3.7497,0.67598
572.7,1534.0,3.7441,0.68273
574.4,1543.8,3.7340,0.68948
576.1,1553.6,3.7263,0.69457
577.8,1563.4,3.7173,0.69373
579.5,1573.2,3.7079,0.68016
581.2,1582.9,3.6980,0.6684
582.9,1592.7,3.6883,0.672
584.6,1602.4,3.6746,0.69308
586.3,1612.2,3.6665,0.72415
588.0,1622.0,3.6539,0.76212
589.7,1631.7,3.6426,0.80439
591.4,1641.5,3.6250,0.84766
593.1,1651.4,3.6075,0.89541
594.8,1661.2,3.5907,0.9393
596.5,1671.1,3.5687,0.98443
598.2,1680.9,3.5496,1.03659
599.9,1690.8,3.5218,1.08925
601.6,1700.7,3.4964,1.14702
603.3,1710.6,3.4644,1.2109
605.0,1720.5,3.4312,1.28458
606.7,1730.5,3.3933,1.36233
608.4,1740.4,3.3526,1.44701
610.1,1750.3,3.3060,1.54329
611.8,1760.2,3.2572,1.64338
613.5,1770.1,3.2018,1.75062
615.2,1780.1,3.1435,1.86234
616.9,1790.0,3.0760,1.97774
618.6,1800.0,3.0046,2.09532
620.3,1810.0,2.9262,2.21814
622.0,1820.0,2.8436,2.33938
623.7,1830.1,2.7567,2.45744
625.4,1840.1,2.6592,2.56998
627.1,1850.0,2.5617,2.67658
628.8,1860.0,2.4546,2.77432
630.5,1870.0,2.3444,2.85226
632.2,1880.0,2.2298,2.91219
633.9,1890.0,2.1163,2.94801
635.6,1900.0,1.9960,2.96652
637.3,1910.0,1.8776,2.95104
639.0,1919.9,1.7559,2.9183
640.7,1929.9,1.6357,2.89593
642.4,1939.8,1.5183,2.84162
644.1,1949.7,1.4045,2.79531
645.8,1959.5,1.2928,2.72332
647.5,1969.5,1.1797,2.62493
649.2,1979.4,1.0746,2.50362
650.9,1989.2,0.9751,2.37724
652.6,1999.1,0.8796,2.22971
654.3,2008.9,0.7885,2.10172
656.0,2018.8,0.7044,1.94859
657.7,2028.6,0.6273,1.80251
659.4,2038.5,0.5549,1.64814
661.1,2048.3,0.4915,1.48829
662.8,2058.0,0.4301,1.33267
664.5,2067.9,0.3788,1.19608
666.2,2077.8,0.3310,1.06652
667.9,2087.7,0.2885,0.94386
669.6,2097.5,0.2494,0.83024
671.3,2107.4,0.2187,0.72645
673.0,2117.3,0.1926,0.62995
674.7,2127.2,0.1665,0.54907
676.4,2137.1,0.1435,0.4708
678.1,2147.0,0.1275,0.40412
679.8,2156.9,0.1140,0.3457
681.5,2166.8,0.1016,0.29484
683.2,2176.7,0.0905,0.25616
684.9,2186.6,0.0811,0.23264
686.6,2196.5,0.0736,0.22318
688.3,2206.4,0.0682,0.20777
690.0,2216.4,0.0628,0.20294
691.7,2226.3,0.0586,0.19874
693.4,2236.2,0.0546,0.19945
695.1,2246.2,0.0522,0.19193
696.8,2256.2,0.0494,0.17064
698.5,2266.2,0.0481,0.14467
700.2,2276.2,0.0467,0.12074
701.9,2286.3,0.0441,9.23E-02
703.6,2296.4,0.0441,6.15E-02
705.3,2306.4,0.0441,1.67E-02
707.0,2316.5,0.0428,-2.51E-02
708.7,2326.6,0.0418,-3.59E-02
710.4,2336.7,0.0454,-1.45E-02
712.1,2346.7,0.0441,1.23E-02
713.8,2356.8,0.0421,2.91E-02
715.5,2366.9,0.0421,3.34E-02
717.2,2376.9,0.0428,3.63E-02
718.9,2387.0,0.0422,3.82E-02
720.6,2397.1,0.0395,3.76E-02
722.3,2407.1,0.0415,4.06E-02
724.0,2417.2,0.0415,4.01E-02
725.7,2427.3,0.0410,4.32E-02
727.4,2437.3,0.0441,4.39E-02
729.1,2447.3,0.0415,4.59E-02
730.8,2457.4,0.0415,4.61E-02
732.5,2467.4,0.0416,5.06E-02
734.2,2477.5,0.0412,4.78E-02
735.9,2487.6,0.0412,4.60E-02
737.6,2497.6,0.0425,4.85E-02
739.3,2507.7,0.0399,5.17E-02
741.0,2517.7,0.0406,5.09E-02
742.7,2527.8,0.0421,5.11E-02
744.4,2537.8,0.0421,5.18E-02
746.1,2547.8,0.0409,5.73E-02
747.8,2557.9,0.0398,5.58E-02
749.5,2568.0,0.0391,5.64E-02
751.2,2578.0,0.0425,6.23E-02
752.9,2588.1,0.0411,5.80E-02
754.6,2598.1,0.0405,6.42E-02
756.3,2608.2,0.0398,6.35E-02
758.0,2618.2,0.0398,6.60E-02
759.7,2628.2,0.0411,6.83E-02
761.4,2638.3,0.0406,6.44E-02
763.1,2648.4,0.0412,6.78E-02
764.8,2658.5,0.0402,6.92E-02
766.5,2668.6,0.0388,7.04E-02
768.2,2678.7,0.0384,7.18E-02
769.9,2688.8,0.0425,7.19E-02
771.6,2698.9,0.0402,7.68E-02
773.3,2709.0,0.0402,7.38E-02
775.0,2719.1,0.0389,7.85E-02
776.7,2729.3,0.0365,7.97E-02
778.4,2739.4,0.0379,8.00E-02
780.1,2749.5,0.0392,8.07E-02
781.8,2759.7,0.0392,8.37E-02
783.5,2769.8,0.0405,8.33E-02
785.2,2779.9,0.0392,8.37E-02
786.9,2790.1,0.0379,8.92E-02
788.6,2800.2,0.0395,8.82E-02
790.3,2810.3,0.0387,9.30E-02
792.0,2820.4,0.0395,9.84E-02
793.7,2830.5,0.0384,9.65E-02
795.4,2840.6,0.0395,9.82E-02
797.1,2850.7,0.0395,0.10176
798.8,2860.9,0.0395,0.10474
800.5,2871.0,0.0382,0.10666
802.2,2881.0,0.0383,0.10769
803.9,2891.2,0.0378,0.10971
805.6,2901.3,0.0392,0.10928
807.3,2911.4,0.0394,0.1086
809.0,2921.5,0.0408,0.10817
810.7,2931.6,0.0375,0.11085
812.4,2941.8,0.0402,0.10791
814.1,2952.0,0.0389,0.11173
815.8,2962.1,0.0389,0.10867
817.5,2972.3,0.0386,0.11216
819.2,2982.6,0.0398,0.1121
820.9,2992.8,0.0385,0.11253
822.0,2999.4,0.0372,0.11372