Folder: matl-db/PMMA/Calibration_Data/FSRI (part 9)

File: FSRI_TGA_N2_10K_3.csv
Temp,time,TGA
[K],[s],[mg]
323,0,3.9002
325,65.4,3.8976
327,85.8,3.8969
329,102.4,3.8958
331,117.3,3.8962
333,131.4,3.8953
335,145.2,3.896
337,158.6,3.8952
339,171.7,3.8954
341,184.6,3.8963
343,197.5,3.8956
345,210.4,3.8942
347,223.1,3.8925
349,235.7,3.8939
351,248.2,3.893
353,260.7,3.8927
355,273.1,3.8916
357,285.5,3.8916
359,297.7,3.8912
361,309.9,3.8916
363,322,3.8903
365,334.1,3.889
367,346.1,3.889
369,358.1,3.889
371,370,3.8877
373,381.8,3.8879
375,393.7,3.8862
377,405.6,3.8864
379,417.4,3.8864
381,429.1,3.8863
383,440.9,3.8855
385,452.6,3.8851
387,464.4,3.8851
389,476.1,3.8838
391,487.8,3.8851
393,499.5,3.8824
395,511.2,3.8824
397,522.9,3.8811
399,534.6,3.8811
401,546.3,3.8809
403,558,3.8788
405,569.7,3.8788
407,581.3,3.8785
409,593,3.8776
411,604.6,3.8771
413,616.2,3.8755
415,627.8,3.8755
417,639.4,3.8742
419,650.9,3.8729
421,662.4,3.8732
423,674.1,3.8712
425,685.7,3.8712
427,697.2,3.8689
429,708.7,3.8671
431,720.2,3.867
433,731.8,3.865
435,743.3,3.8637
437,754.9,3.86
439,766.4,3.8597
441,777.8,3.8581
443,789.4,3.8567
445,800.9,3.8529
447,812.5,3.8501
449,823.9,3.8448
451,835.4,3.8409
453,846.9,3.839
455,858.5,3.8351
457,870,3.8311
459,881.5,3.8258
461,893,3.8219
463,904.5,3.8164
465,915.9,3.8128
467,927.4,3.8084
469,938.8,3.8045
471,950.3,3.7995
473,961.7,3.7941
475,973.2,3.79
477,984.6,3.786
479,996.1,3.7821
481,1007.6,3.7781
483,1019.1,3.7752
485,1030.6,3.7706
487,1042,3.7663
489,1053.5,3.7626
491,1065,3.7597
493,1076.4,3.7584
495,1087.8,3.7557
497,1099.3,3.7544
499,1110.7,3.7521
501,1122.2,3.7521
503,1133.7,3.7508
505,1145.1,3.7492
507,1156.5,3.7489
509,1168,3.7489
511,1179.4,3.7476
513,1190.9,3.7463
515,1202.3,3.7469
517,1213.7,3.7453
519,1225.2,3.745
521,1236.6,3.7427
523,1248.1,3.7417
525,1259.6,3.7404
527,1271.1,3.7404
529,1282.6,3.7377
531,1294.1,3.7377
533,1305.5,3.7351
535,1317,3.7344
537,1328.5,3.7331
539,1340.1,3.7302
541,1351.6,3.7279
543,1363.1,3.7252
545,1374.6,3.7223
547,1386.2,3.7197
549,1397.7,3.7171
551,1409.2,3.7123
553,1420.7,3.7084
555,1432.2,3.7049
557,1443.8,3.7003
559,1455.2,3.6936
561,1466.7,3.6882
563,1478.2,3.6811
565,1489.7,3.6742
567,1501.2,3.6672
569,1512.7,3.6593
571,1524.3,3.6484
573,1535.8,3.6429
575,1547.3,3.633
577,1558.8,3.623
579,1570.3,3.6123
581,1581.9,3.6028
583,1593.4,3.5909
585,1605,3.5799
587,1616.5,3.5649
589,1628.1,3.5507
591,1639.7,3.536
593,1651.2,3.5154
595,1662.7,3.4957
597,1674.3,3.4723
599,1685.9,3.4467
601,1697.5,3.4167
603,1709,3.3845
605,1720.6,3.3458
607,1732.2,3.3051
609,1743.8,3.2568
611,1755.5,3.2008
613,1767.2,3.1381
615,1778.9,3.0693
617,1790.6,2.9928
619,1802.3,2.9101
621,1814.1,2.8173
623,1825.8,2.7173
625,1837.6,2.6073
627,1849.4,2.4912
629,1861.2,2.367
631,1873,2.2359
633,1884.8,2.0993
635,1896.5,1.958
637,1908.2,1.8138
639,1919.9,1.6704
641,1931.6,1.5318
643,1943.2,1.391
645,1954.8,1.2535
647,1966.5,1.1179
649,1978.1,0.9916
651,1989.6,0.8679
653,2001.2,0.7582
655,2012.7,0.6543
657,2024.2,0.5584
659,2035.7,0.4706
661,2047.2,0.3933
663,2058.8,0.3246
665,2070.3,0.2619
667,2081.9,0.2108
669,2093.5,0.1637
671,2105.1,0.1225
673,2116.8,0.0894
675,2128.4,0.0602
677,2140.1,0.0358
679,2151.8,0.0169
681,2163.4,-0.0009
683,2175.1,-0.0129
685,2186.8,-0.0243
687,2198.5,-0.0334
689,2210.2,-0.0407
691,2221.9,-0.0448
693,2233.6,-0.0516
695,2245.3,-0.0559
697,2257,-0.0584
699,2268.8,-0.0594
701,2280.5,-0.0623
703,2292.2,-0.0636
705,2303.9,-0.0646
707,2315.6,-0.0648
709,2327.5,-0.066
711,2339.2,-0.066
713,2351.1,-0.0686
715,2362.9,-0.0692
717,2374.8,-0.0686
719,2386.6,-0.0673
721,2398.5,-0.0672
723,2410.2,-0.066
725,2422.1,-0.0687
727,2433.9,-0.0717
729,2445.7,-0.068
731,2457.4,-0.0667
733,2469.2,-0.068
735,2481,-0.0693
737,2492.9,-0.0657
739,2504.7,-0.0679
741,2516.5,-0.0666
743,2528.3,-0.0693
745,2540.2,-0.0692
747,2552,-0.0679
749,2563.9,-0.0683
751,2575.7,-0.0675
753,2587.6,-0.0696
755,2599.5,-0.0683
757,2611.3,-0.0696
759,2623.2,-0.0696
761,2635.1,-0.0682
763,2646.9,-0.0673
765,2658.8,-0.0669
767,2670.6,-0.0683
769,2682.5,-0.0658
771,2694.4,-0.0669
773,2706.3,-0.0656
775,2718.3,-0.0659
777,2730.2,-0.0676
779,2742.1,-0.0663
781,2754,-0.0679
783,2765.9,-0.0663
785,2777.9,-0.0663
787,2789.7,-0.0673
789,2801.6,-0.0673
791,2813.5,-0.0673
793,2825.4,-0.0663
795,2837.3,-0.0663
797,2849.2,-0.0669
799,2861.1,-0.0666
801,2873,-0.0683
803,2885,-0.0669
805,2897,-0.0683
807,2908.9,-0.0683
809,2920.8,-0.0663
811,2932.8,-0.0663
813,2944.7,-0.0679
815,2956.6,-0.068
817,2968.6,-0.0666
819,2980.6,-0.0671
821,2992.6,-0.0669
822,2998.6,-0.0669

File: FSRI_TGA_N2_20K_1.csv
Temp,time,TGA
[K],[s],[mg]
322.5,31.2,3.9576
324.5,54.4,3.9581
326.5,67.3,3.9561
328.5,77.5,3.957
330.5,86.4,3.9569
332.5,94.5,3.9567
334.5,102.1,3.9573
336.5,109.4,3.9566
338.5,116.4,3.9578
340.5,123.2,3.9576
342.5,129.9,3.9568
344.5,136.5,3.9558
346.5,143,3.9568
348.5,149.5,3.9564
350.5,155.9,3.9566
352.5,162.3,3.9567
354.5,168.6,3.9567
356.5,174.9,3.9555
358.5,181.2,3.957
360.5,187.4,3.957
362.5,193.7,3.9549
364.5,199.8,3.9543
366.5,206,3.9549
368.5,212.1,3.9546
370.5,218.2,3.9543
372.5,224.3,3.9544
374.5,230.4,3.953
376.5,236.4,3.953
378.5,242.4,3.953
380.5,248.5,3.9544
382.5,254.4,3.953
384.5,260.4,3.953
386.5,266.4,3.9517
388.5,272.4,3.9517
390.5,278.3,3.9528
392.5,284.3,3.9517
394.5,290.2,3.9517
396.5,296.1,3.9519
398.5,302,3.951
400.5,307.8,3.9511
402.5,313.7,3.9511
404.5,319.5,3.9505
406.5,325.4,3.9503
408.5,331.2,3.9504
410.5,337,3.9491
412.5,342.7,3.9491
414.5,348.5,3.9491
416.5,354.2,3.9491
418.5,360,3.9465
420.5,365.8,3.9461
422.5,371.5,3.9461
424.5,377.2,3.9461
426.5,382.9,3.946
428.5,388.6,3.9446
430.5,394.3,3.9442
432.5,400,3.9425
434.5,405.7,3.9402
436.5,411.4,3.9402
438.5,417.1,3.9375
440.5,422.7,3.9376
442.5,428.4,3.9349
444.5,434.1,3.9336
446.5,439.8,3.9336
448.5,445.5,3.9311
450.5,451.2,3.9283
452.5,456.8,3.9271
454.5,462.5,3.923
456.5,468.1,3.9203
458.5,473.8,3.917
460.5,479.4,3.912
462.5,485.1,3.9073
464.5,490.7,3.9026
466.5,496.3,3.8991
468.5,501.9,3.8947
470.5,507.5,3.8915
472.5,513.1,3.8866
474.5,518.7,3.8822
476.5,524.3,3.8778
478.5,529.9,3.8736
480.5,535.5,3.8709
482.5,541.1,3.8663
484.5,546.7,3.8633
486.5,552.3,3.8608
488.5,557.9,3.8579
490.5,563.4,3.8522
492.5,569,3.848
494.5,574.6,3.8439
496.5,580.2,3.8411
498.5,585.8,3.8373
500.5,591.4,3.8348
502.5,597,3.8322
504.5,602.6,3.8288
506.5,608.1,3.8275
508.5,613.7,3.8256
510.5,619.3,3.8245
512.5,624.9,3.8236
514.5,630.4,3.823
516.5,636,3.8216
518.5,641.6,3.8197
520.5,647.2,3.8206
522.5,652.7,3.8194
524.5,658.3,3.818
526.5,663.9,3.818
528.5,669.5,3.8181
530.5,675.1,3.8154
532.5,680.6,3.8141
534.5,686.2,3.8127
536.5,691.8,3.8127
538.5,697.4,3.8101
540.5,703,3.8101
542.5,708.5,3.8075
544.5,714.1,3.8062
546.5,719.7,3.8048
548.5,725.3,3.8035
550.5,730.9,3.7996
552.5,736.5,3.7971
554.5,742.1,3.7944
556.5,747.7,3.7917
558.5,753.3,3.7876
560.5,758.9,3.7831
562.5,764.5,3.7804
564.5,770.1,3.7753
566.5,775.7,3.7699
568.5,781.3,3.7633
570.5,786.9,3.76
572.5,792.5,3.7538
574.5,798.1,3.7465
576.5,803.7,3.7388
578.5,809.3,3.731
580.5,814.9,3.7226
582.5,820.6,3.714
584.5,826.2,3.7053
586.5,831.8,3.6969
588.5,837.4,3.6865
590.5,843.1,3.6764
592.5,848.7,3.6624
594.5,854.3,3.6488
596.5,859.9,3.639
598.5,865.6,3.6259
600.5,871.2,3.6078
602.5,876.9,3.5909
604.5,882.5,3.5703
606.5,888.2,3.5473
608.5,893.8,3.5204
610.5,899.5,3.4916
612.5,905.1,3.4587
614.5,910.8,3.4229
616.5,916.5,3.3794
618.5,922.2,3.3338
620.5,927.9,3.2842
622.5,933.6,3.2228
624.5,939.3,3.159
626.5,945,3.0846
628.5,950.8,3.0062
630.5,956.5,2.9196
632.5,962.2,2.8258
634.5,968,2.7253
636.5,973.8,2.6111
638.5,979.6,2.497
640.5,985.3,2.3721
642.5,991.1,2.243
644.5,996.9,2.1096
646.5,1002.6,1.9686
648.5,1008.4,1.835
650.5,1014.1,1.6945
652.5,1019.9,1.5548
654.5,1025.6,1.4178
656.5,1031.4,1.2764
658.5,1037.1,1.1485
660.5,1042.8,1.0209
662.5,1048.5,0.8994
664.5,1054.2,0.7895
666.5,1059.8,0.6852
668.5,1065.5,0.5909
670.5,1071.1,0.507
672.5,1076.8,0.4299
674.5,1082.4,0.3627
676.5,1088,0.3057
678.5,1093.7,0.2509
680.5,1099.3,0.2058
682.5,1105,0.1681
684.5,1110.6,0.1354
686.5,1116.2,0.1082
688.5,1121.9,0.0861
690.5,1127.5,0.067
692.5,1133.2,0.0514
694.5,1138.9,0.0398
696.5,1144.6,0.0305
698.5,1150.3,0.0215
700.5,1156.1,0.0154
702.5,1161.8,0.0108
704.5,1167.5,0.0073
706.5,1173.3,0.0031
708.5,1179,0.0018
710.5,1184.8,0.0004
712.5,1190.5,-0.001
714.5,1196.3,-0.0023
716.5,1202,-0.0035
718.5,1207.8,-0.0049
720.5,1213.6,-0.0055
722.5,1219.4,-0.0042
724.5,1225.2,-0.0055
726.5,1231,-0.0068
728.5,1236.8,-0.0079
730.5,1242.6,-0.0058
732.5,1248.4,-0.0051
734.5,1254.2,-0.0071
736.5,1260,-0.0071
738.5,1265.9,-0.0071
740.5,1271.7,-0.0082
742.5,1277.5,-0.0077
744.5,1283.3,-0.0077
746.5,1289.2,-0.0077
748.5,1295,-0.009
750.5,1300.8,-0.0097
752.5,1306.6,-0.0084
754.5,1312.5,-0.0097
756.5,1318.3,-0.0097
758.5,1324.2,-0.0097
760.5,1330,-0.0073
762.5,1335.9,-0.0089
764.5,1341.7,-0.0085
766.5,1347.6,-0.0082
768.5,1353.4,-0.0082
770.5,1359.3,-0.0082
772.5,1365.2,-0.0082
774.5,1371,-0.0082
776.5,1376.9,-0.0098
778.5,1382.8,-0.007
780.5,1388.6,-0.0083
782.5,1394.5,-0.0076
784.5,1400.4,-0.0086
786.5,1406.3,-0.0083
788.5,1412.1,-0.0083
790.5,1418,-0.0081
792.5,1423.9,-0.0089
794.5,1429.8,-0.0089
796.5,1435.6,-0.0089
798.5,1441.5,-0.008
800.5,1447.4,-0.0083
802.5,1453.3,-0.0083
804.5,1459.2,-0.0083
806.5,1465.1,-0.0089
808.5,1471,-0.0089
810.5,1476.9,-0.0089
812.5,1482.8,-0.0089
814.5,1488.7,-0.0093
816.5,1494.6,-0.008
817.5,1497.5,-0.0083

File: FSRI_TGA_N2_20K_2.csv
Temp,time,TGA
[K],[s],[mg]
322,20.2,3.9488
324,51.8,3.9492
326,65.4,3.9488
328,76,3.9497
330,85,3.9467
332,93.3,3.9477
334,101,3.9484
336,108.3,3.9478
338,115.3,3.9481
340,122.2,3.9493
342,129,3.9474
344,135.6,3.9476
346,142.1,3.9469
348,148.6,3.9488
350,155.1,3.9472
352,161.5,3.9473
354,167.9,3.9485
356,174.2,3.9473
358,180.5,3.9464
360,186.8,3.9472
362,193,3.9459
364,199.2,3.946
366,205.4,3.9473
368,211.5,3.9476
370,217.6,3.9473
372,223.7,3.9473
374,229.7,3.9467
376,235.8,3.9473
378,241.8,3.948
380,247.9,3.9473
382,253.9,3.9459
384,259.8,3.9446
386,265.8,3.9453
388,271.8,3.946
390,277.7,3.9456
392,283.6,3.9458
394,289.5,3.9459
396,295.4,3.946
398,301.3,3.9459
400,307.1,3.9452
402,313,3.9447
404,318.8,3.9432
406,324.7,3.9436
408,330.5,3.9438
410,336.3,3.9433
412,342,3.944
414,347.8,3.9433
416,353.6,3.9414
418,359.3,3.9407
420,365,3.9404
422,370.7,3.9406
424,376.4,3.9407
426,382.1,3.9381
428,387.8,3.9381
430,393.5,3.9367
432,399.2,3.9366
434,404.8,3.9341
436,410.5,3.9352
438,416.2,3.9337
440,421.9,3.9325
442,427.6,3.9314
444,433.2,3.9298
446,438.9,3.9271
448,444.5,3.9246
450,450.2,3.9232
452,455.8,3.92
454,461.4,3.9193
456,467.1,3.9151
458,472.7,3.9128
460,478.3,3.9086
462,483.9,3.9056
464,489.5,3.9018
466,495.1,3.8975
468,500.7,3.8924
470,506.3,3.8889
472,511.9,3.883
474,517.5,3.8805
476,523.1,3.8779
478,528.7,3.8729
480,534.3,3.8686
482,539.9,3.8651
484,545.5,3.8618
486,551.1,3.8583
488,556.7,3.8539
490,562.3,3.8507
492,567.8,3.8483
494,573.4,3.8442
496,579,3.8392
498,584.6,3.8366
500,590.2,3.8335
502,595.8,3.8301
504,601.4,3.8278
506,607,3.8252
508,612.6,3.8232
510,618.1,3.8219
512,623.7,3.8219
514,629.3,3.8206
516,634.9,3.8193
518,640.5,3.8183
520,646.1,3.8183
522,651.6,3.817
524,657.2,3.8156
526,662.8,3.8156
528,668.4,3.8156
530,673.9,3.814
532,679.5,3.8119
534,685.1,3.8114
536,690.7,3.8114
538,696.3,3.8091
540,701.9,3.8087
542,707.5,3.8061
544,713,3.8047
546,718.6,3.8044
548,724.2,3.802
550,729.8,3.8005
552,735.4,3.7981
554,741,3.7968
556,746.6,3.7931
558,752.2,3.7901
560,757.8,3.7854
562,763.4,3.7814
564,769,3.7785
566,774.6,3.773
568,780.2,3.7677
570,785.8,3.7629
572,791.4,3.7569
574,797,3.75
576,802.7,3.744
578,808.3,3.7368
580,813.9,3.7296
582,819.5,3.721
584,825.1,3.7124
586,830.7,3.7056
588,836.4,3.696
590,842,3.687
592,847.6,3.6754
594,853.2,3.6643
596,858.9,3.6529
598,864.5,3.6396
600,870.1,3.6239
602,875.8,3.6088
604,881.4,3.5894
606,887.1,3.5674
608,892.7,3.5429
610,898.3,3.5163
612,904,3.4849
614,909.7,3.4482
616,915.4,3.4102
618,921.1,3.3651
620,926.8,3.3144
622,932.5,3.2596
624,938.2,3.1937
626,944,3.1252
628,949.7,3.0484
630,955.4,2.9614
632,961.2,2.8701
634,966.9,2.7678
636,972.7,2.6608
638,978.5,2.5453
640,984.2,2.4207
642,990,2.296
644,995.8,2.1594
646,1001.5,2.0255
648,1007.3,1.8872
650,1013,1.7469
652,1018.8,1.6095
654,1024.5,1.47
656,1030.3,1.3353
658,1036,1.2042
660,1041.7,1.075
662,1047.3,0.9594
664,1053,0.8473
666,1058.7,0.7404
668,1064.3,0.6477
670,1070,0.5604
672,1075.6,0.4848
674,1081.2,0.4157
676,1086.9,0.3535
678,1092.5,0.3012
680,1098.1,0.254
682,1103.8,0.2139
684,1109.4,0.1819
686,1115,0.1553
688,1120.7,0.1306
690,1126.4,0.1103
692,1132.1,0.0945
694,1137.8,0.0829
696,1143.5,0.0727
698,1149.2,0.0642
700,1154.9,0.0581
702,1160.6,0.0533
704,1166.3,0.0486
706,1172.1,0.0458
708,1177.8,0.0418
710,1183.6,0.0419
712,1189.3,0.0382
714,1195.1,0.0356
716,1200.8,0.0355
718,1206.6,0.0339
720,1212.4,0.0339
722,1218.1,0.0339
724,1223.9,0.0326
726,1229.7,0.0352
728,1235.5,0.0339
730,1241.3,0.0327
732,1247.1,0.0326
734,1252.9,0.0332
736,1258.7,0.0332
738,1264.5,0.0332
740,1270.3,0.0332
742,1276.2,0.0319
744,1282,0.0319
746,1287.8,0.033
748,1293.7,0.0336
750,1299.5,0.0339
752,1305.4,0.0325
754,1311.2,0.0315
756,1317,0.0339
758,1322.9,0.032
760,1328.7,0.0316
762,1334.6,0.0329
764,1340.5,0.0322
766,1346.3,0.0323
768,1352.2,0.0309
770,1358.1,0.0322
772,1363.9,0.0325
774,1369.8,0.0319
776,1375.6,0.0319
778,1381.5,0.0319
780,1387.4,0.0319
782,1393.2,0.0313
784,1399.1,0.0313
786,1405,0.0313
788,1410.9,0.0315
790,1416.7,0.0322
792,1422.6,0.0322
794,1428.5,0.0322
796,1434.3,0.0322
798,1440.3,0.0322
800,1446.2,0.0322
802,1452,0.0322
804,1457.9,0.032
806,1463.8,0.0313
808,1469.7,0.0326
810,1475.6,0.0326
812,1481.5,0.0336
814,1487.4,0.0336
816,1493.3,0.0322
817.5,1497.7,0.0322

File: FSRI_TGA_N2_20K_3.csv
Temp,time ,TGA
[K],[s],[mg]
322.5,30.7,3.979
324.5,54.2,3.9773
326.5,67.1,3.9773
328.5,77.4,3.977
330.5,86.3,3.9779
332.5,94.5,3.9773
334.5,102.1,3.9778
336.5,109.4,3.978
338.5,116.5,3.978
340.5,123.3,3.979
342.5,130,3.9781
344.5,136.7,3.9756
346.5,143.2,3.978
348.5,149.7,3.9786
350.5,156.2,3.9772
352.5,162.6,3.9771
354.5,168.9,3.977
356.5,175.3,3.977
358.5,181.6,3.977
360.5,187.8,3.977
362.5,194,3.9768
364.5,200.2,3.9766
366.5,206.4,3.9757
368.5,212.5,3.9756
370.5,218.6,3.9757
372.5,224.7,3.9761
374.5,230.7,3.9757
376.5,236.8,3.976
378.5,242.8,3.9758
380.5,248.9,3.9761
382.5,254.9,3.977
384.5,260.8,3.9745
386.5,266.8,3.9756
388.5,272.8,3.9756
390.5,278.7,3.9756
392.5,284.7,3.9754
394.5,290.6,3.9743
396.5,296.5,3.9743
398.5,302.4,3.9743
400.5,308.3,3.9743
402.5,314.1,3.9742
404.5,319.9,3.9746
406.5,325.7,3.9743
408.5,331.5,3.974
410.5,337.3,3.9726
412.5,343.1,3.9727
414.5,348.8,3.9714
416.5,354.6,3.9717
418.5,360.4,3.9704
420.5,366.1,3.9704
422.5,371.8,3.97
424.5,377.5,3.9691
426.5,383.2,3.9677
428.5,388.9,3.9664
430.5,394.6,3.9658
432.5,400.3,3.9651
434.5,406,3.9651
436.5,411.6,3.9625
438.5,417.3,3.9625
440.5,423,3.9612
442.5,428.6,3.9605
444.5,434.3,3.9592
446.5,440,3.9572
448.5,445.7,3.9548
450.5,451.3,3.9519
452.5,456.9,3.9503
454.5,462.6,3.9467
456.5,468.2,3.9441
458.5,473.8,3.9411
460.5,479.4,3.9356
462.5,485.1,3.9322
464.5,490.7,3.9273
466.5,496.3,3.9232
468.5,501.9,3.9193
470.5,507.5,3.9151
472.5,513.1,3.9108
474.5,518.7,3.9057
476.5,524.3,3.9035
478.5,529.9,3.8986
480.5,535.5,3.8942
482.5,541.1,3.8909
484.5,546.7,3.8868
486.5,552.3,3.8841
488.5,557.9,3.8797
490.5,563.5,3.8755
492.5,569.1,3.8729
494.5,574.7,3.8694
496.5,580.2,3.8665
498.5,585.8,3.862
500.5,591.4,3.859
502.5,597,3.8565
504.5,602.6,3.8536
506.5,608.2,3.851
508.5,613.7,3.8497
510.5,619.3,3.8487
512.5,624.9,3.8461
514.5,630.5,3.8459
516.5,636,3.8448
518.5,641.6,3.8435
520.5,647.1,3.8422
522.5,652.8,3.8408
524.5,658.3,3.8408
526.5,663.9,3.8402
528.5,669.5,3.8397
530.5,675,3.8389
532.5,680.6,3.8372
534.5,686.2,3.8352
536.5,691.8,3.8349
538.5,697.3,3.8336
540.5,702.9,3.8324
542.5,708.5,3.831
544.5,714.1,3.8297
546.5,719.6,3.828
548.5,725.2,3.8242
550.5,730.8,3.8227
552.5,736.4,3.8201
554.5,742,3.8181
556.5,747.6,3.8151
558.5,753.1,3.8111
560.5,758.7,3.8073
562.5,764.3,3.803
564.5,769.9,3.7985
566.5,775.5,3.7922
568.5,781.1,3.7884
570.5,786.7,3.7825
572.5,792.3,3.7745
574.5,797.9,3.7677
576.5,803.5,3.7612
578.5,809.1,3.7535
580.5,814.6,3.7455
582.5,820.3,3.7371
584.5,825.9,3.7283
586.5,831.5,3.7214
588.5,837.1,3.7103
590.5,842.7,3.6993
592.5,848.4,3.6883
594.5,854,3.677
596.5,859.6,3.6642
598.5,865.2,3.6504
600.5,870.9,3.633
602.5,876.5,3.6166
604.5,882.2,3.597
606.5,887.8,3.575
608.5,893.5,3.5493
610.5,899.1,3.5212
612.5,904.8,3.4898
614.5,910.5,3.4516
616.5,916.2,3.4115
618.5,921.9,3.3673
620.5,927.6,3.3131
622.5,933.3,3.2558
624.5,939,3.1903
626.5,944.7,3.1179
628.5,950.5,3.04
630.5,956.2,2.9506
632.5,962,2.8588
634.5,967.7,2.7568
636.5,973.5,2.6445
638.5,979.3,2.5308
640.5,985,2.4058
642.5,990.8,2.2783
644.5,996.6,2.144
646.5,1002.3,2.0055
648.5,1008.1,1.8718
650.5,1013.8,1.7303
652.5,1019.6,1.5927
654.5,1025.3,1.4537
656.5,1031.1,1.3157
658.5,1036.8,1.1861
660.5,1042.5,1.0561
662.5,1048.2,0.9367
664.5,1053.8,0.8245
666.5,1059.5,0.718
668.5,1065.1,0.6262
670.5,1070.8,0.5401
672.5,1076.4,0.461
674.5,1082,0.3942
676.5,1087.7,0.3348
678.5,1093.3,0.2823
680.5,1098.9,0.2372
682.5,1104.6,0.198
684.5,1110.3,0.1659
686.5,1115.9,0.1394
688.5,1121.6,0.1149
690.5,1127.3,0.0972
692.5,1133,0.082
694.5,1138.7,0.0691
696.5,1144.4,0.0592
698.5,1150.1,0.0522
700.5,1155.8,0.0453
702.5,1161.6,0.0406
704.5,1167.3,0.0348
706.5,1173.1,0.032
708.5,1178.8,0.0293
710.5,1184.6,0.0267
712.5,1190.4,0.0254
714.5,1196.1,0.024
716.5,1201.9,0.0241
718.5,1207.6,0.0241
720.5,1213.4,0.0215
722.5,1219.2,0.0215
724.5,1225,0.0215
726.5,1230.8,0.0218
728.5,1236.6,0.0218
730.5,1242.4,0.0218
732.5,1248.2,0.0218
734.5,1254,0.0218
736.5,1259.8,0.021
738.5,1265.7,0.0205
740.5,1271.5,0.0218
742.5,1277.3,0.0212
744.5,1283.2,0.0198
746.5,1289,0.0205
748.5,1294.8,0.0205
750.5,1300.7,0.0205
752.5,1306.5,0.0205
754.5,1312.4,0.0205
756.5,1318.2,0.0218
758.5,1324.1,0.0205
760.5,1329.9,0.0205
762.5,1335.8,0.0205
764.5,1341.6,0.0209
766.5,1347.5,0.0215
768.5,1353.4,0.0223
770.5,1359.2,0.0208
772.5,1365.1,0.0221
774.5,1371,0.0208
776.5,1376.8,0.0208
778.5,1382.7,0.0221
780.5,1388.5,0.0208
782.5,1394.4,0.0221
784.5,1400.3,0.0202
786.5,1406.2,0.0202
788.5,1412,0.0215
790.5,1417.9,0.0204
792.5,1423.8,0.0198
794.5,1429.6,0.0192
796.5,1435.5,0.0205
798.5,1441.4,0.0205
800.5,1447.2,0.0202
802.5,1453.1,0.0215
804.5,1459,0.0218
806.5,1464.9,0.0218
808.5,1470.7,0.0204
810.5,1476.6,0.0205
812.5,1482.5,0.0205
814.5,1488.4,0.0205
816.5,1494.4,0.0202
817.5,1497.3,0.0201

File: FSRI_TGA_N2_30K_1.csv
Temp,time,TGA
[K],[s],[mg]
322.5,27.3,4.029
324.5,47,4.0298
326.5,57.6,4.0306
328.5,65.7,4.0305
330.5,72.7,4.0291
332.5,78.9,4.0286
334.5,84.7,4.0268
336.5,90.1,4.0283
338.5,95.3,4.0292
340.5,100.2,4.0275
342.5,105,4.0286
344.5,109.7,4.0273
346.5,114.3,4.0278
348.5,118.8,4.0308
350.5,123.3,4.0307
352.5,127.7,4.0299
354.5,132,4.0276
356.5,136.3,4.0279
358.5,140.6,4.029
360.5,144.7,4.0283
362.5,148.9,4.0301
364.5,153.1,4.0308
366.5,157.2,4.0307
368.5,161.3,4.0308
370.5,165.4,4.0308
372.5,169.5,4.0293
374.5,173.6,4.0282
376.5,177.6,4.0295
378.5,181.7,4.0295
380.5,185.7,4.0295
382.5,189.8,4.0294
384.5,193.8,4.0289
386.5,197.8,4.0292
388.5,201.8,4.0279
390.5,205.8,4.0279
392.5,209.8,4.0282
394.5,213.8,4.0288
396.5,217.8,4.0282
398.5,221.8,4.0269
400.5,225.7,4.028
402.5,229.7,4.0269
404.5,233.6,4.0272
406.5,237.5,4.0283
408.5,241.5,4.0269
410.5,245.4,4.0269
412.5,249.2,4.0256
414.5,253.1,4.0256
416.5,257,4.0256
418.5,260.9,4.0249
420.5,264.7,4.0242
422.5,268.5,4.0243
424.5,272.4,4.0229
426.5,276.2,4.0223
428.5,280,4.0209
430.5,283.8,4.0203
432.5,287.6,4.019
434.5,291.4,4.019
436.5,295.2,4.019
438.5,299,4.0181
440.5,302.8,4.0178
442.5,306.5,4.0164
444.5,310.3,4.0137
446.5,314.1,4.0124
448.5,317.8,4.011
450.5,321.6,4.0097
452.5,325.3,4.0085
454.5,329,4.0071
456.5,332.8,4.0068
458.5,336.5,4.0058
460.5,340.2,4.0029
462.5,343.9,3.9998
464.5,347.6,3.9952
466.5,351.3,3.9919
468.5,355,3.9891
470.5,358.7,3.9854
472.5,362.3,3.9829
474.5,366,3.9793
476.5,369.7,3.973
478.5,373.4,3.9698
480.5,377,3.9638
482.5,380.7,3.9593
484.5,384.4,3.9553
486.5,388,3.9533
488.5,391.7,3.9492
490.5,395.3,3.9466
492.5,399,3.9417
494.5,402.7,3.9383
496.5,406.3,3.9338
498.5,410,3.9308
500.5,413.6,3.9264
502.5,417.3,3.9233
504.5,420.9,3.9201
506.5,424.5,3.9152
508.5,428.2,3.912
510.5,431.8,3.9086
512.5,435.5,3.9056
514.5,439.1,3.9026
516.5,442.7,3.8998
518.5,446.4,3.8973
520.5,450,3.8958
522.5,453.6,3.8955
524.5,457.3,3.8941
526.5,460.9,3.8928
528.5,464.5,3.8928
530.5,468.2,3.8915
532.5,471.8,3.8906
534.5,475.4,3.8899
536.5,479.1,3.8881
538.5,482.7,3.8876
540.5,486.3,3.8877
542.5,489.9,3.8863
544.5,493.6,3.8863
546.5,497.2,3.8837
548.5,500.9,3.8836
550.5,504.5,3.8821
552.5,508.1,3.8799
554.5,511.8,3.8778
556.5,515.4,3.8762
558.5,519,3.8724
560.5,522.7,3.8699
562.5,526.3,3.8669
564.5,530,3.864
566.5,533.6,3.8606
568.5,537.3,3.8567
570.5,540.9,3.8528
572.5,544.5,3.8473
574.5,548.2,3.8421
576.5,551.8,3.836
578.5,555.4,3.829
580.5,559.1,3.8221
582.5,562.7,3.8146
584.5,566.4,3.8082
586.5,570,3.8014
588.5,573.7,3.7941
590.5,577.3,3.7846
592.5,581,3.7757
594.5,584.6,3.7674
596.5,588.3,3.7557
598.5,592,3.7465
600.5,595.6,3.735
602.5,599.3,3.7232
604.5,602.9,3.709
606.5,606.6,3.6939
608.5,610.3,3.6769
610.5,613.9,3.6567
612.5,617.6,3.6348
614.5,621.3,3.6111
616.5,625,3.5832
618.5,628.7,3.5536
620.5,632.3,3.5177
622.5,636.1,3.4784
624.5,639.8,3.4342
626.5,643.5,3.3864
628.5,647.2,3.3305
630.5,650.9,3.2689
632.5,654.6,3.2002
634.5,658.4,3.1253
636.5,662.1,3.0452
638.5,665.9,2.951
640.5,669.6,2.8581
642.5,673.4,2.7502
644.5,677.2,2.6433
646.5,680.9,2.5223
648.5,684.7,2.398
650.5,688.5,2.2683
652.5,692.3,2.1273
654.5,696,1.9945
656.5,699.8,1.8514
658.5,703.6,1.7141
660.5,707.3,1.5713
662.5,711.1,1.4308
664.5,714.8,1.293
666.5,718.6,1.155
668.5,722.3,1.0286
670.5,726,0.9009
672.5,729.7,0.7902
674.5,733.4,0.6797
676.5,737.1,0.586
678.5,740.8,0.4956
680.5,744.5,0.4191
682.5,748.1,0.3487
684.5,751.8,0.2874
686.5,755.5,0.2345
688.5,759.2,0.1865
690.5,762.8,0.1471
692.5,766.5,0.1127
694.5,770.2,0.0865
696.5,773.9,0.0617
698.5,777.5,0.0448
700.5,781.2,0.0287
702.5,784.9,0.0162
704.5,788.6,0.007
706.5,792.4,-0.002
708.5,796.1,-0.0073
710.5,799.8,-0.0131
712.5,803.5,-0.0168
714.5,807.3,-0.0199
716.5,811,-0.0211
718.5,814.7,-0.0226
720.5,818.5,-0.0255
722.5,822.2,-0.0268
724.5,826,-0.0267
726.5,829.8,-0.0294
728.5,833.6,-0.0294
730.5,837.4,-0.0307
732.5,841.2,-0.0307
734.5,845,-0.0297
736.5,848.8,-0.0299
738.5,852.6,-0.0311
740.5,856.4,-0.0311
742.5,860.2,-0.0298
744.5,864,-0.0284
746.5,867.8,-0.0311
748.5,871.7,-0.0311
750.5,875.5,-0.0324
752.5,879.3,-0.0311
754.5,883.1,-0.0311
756.5,886.9,-0.0311
758.5,890.8,-0.031
760.5,894.6,-0.0324
762.5,898.4,-0.0334
764.5,902.3,-0.0324
766.5,906.1,-0.0324
768.5,909.9,-0.0324
770.5,913.7,-0.0317
772.5,917.6,-0.0317
774.5,921.4,-0.0311
776.5,925.3,-0.0311
778.5,929.1,-0.031
780.5,933,-0.0301
782.5,936.8,-0.0328
784.5,940.7,-0.0329
786.5,944.5,-0.0343
788.5,948.3,-0.0328
790.5,952.2,-0.0344
792.5,956.1,-0.0357
794.5,959.9,-0.0344
796.5,963.8,-0.0335
798.5,967.7,-0.0331
800.5,971.5,-0.0331
802.5,975.4,-0.0317
804.5,979.3,-0.0317
806.5,983.1,-0.0321
808.5,987,-0.0324
810.5,990.9,-0.0324
812.5,994.8,-0.0324
814.5,998.7,-0.0311