Folder: matl-db/PMMA/Calibration_Data/FSRI

Note: PMMA/Calibration_Data/FSRI/README.md
# UL's Fire Safety Research Insistute (FSRI)

### Experimental Conditions: TGA and DSC
A Netzsch STA 449 F3 Jupiter was used to conduct Thermogravimetric Analysis (TGA) and Differential Scanning Calorimetry (DSC) experiments. 

* Heating Rate: 3, 10, and 30 K/min
* Temperature program
  - Initial Temperature: 323 K
  - Initial Isotherm: 600 s (hold at 323 K for 600 s)  
  - Maximum Temperature: 823 K
  - Final Isotherm: 300 s (hold at 823 K for 300 s)
* Sample mass: 4.0 +/- 0.1 mg
* Sample geometry: Powdered (Supplied by NIST)
* Calibration type: Before each experiment, a baseline test was performed using an empty crucible. Temperature/Heat flow calibration were performed every 200 temperature cycles using a set of 6 reference materials with melting temperatures between 60-820 C (biphenyl, benzoic acid, KClO4, Ag2SO4, CsCl, BaCO3)
* Crucible
  - Type: Pt-Rh
  - Volume: 85 µL
  - Diameter: 6.6 mm
  - Mass: None
  - Lid: True
  - Note: Pt-Rh crucibles (outer diameter 6.6mm / volume 85µL) with a pierced lid.
* Carrier Gas
  - Type: Nitrogen
  - Flow rate: 70 mL/min (20 mL/min protective, 50 mL/min purge)
  - Note: Ultra High Purity (UHP) Nitrogen
* Instrument
  - Type: Netzsch F3 Jupiter
  - Note: Heat flow rate data provided on an initial mass basis
| Test Name		| O2 volume %	|  Initial Sample Mass (mg)	| 
| ---------		| :---------:	| :------------------------:	|
|FSRI\_STA\_N2\_3K\_1 	| 0 		| 3.98				|  
|FSRI\_STA\_N2\_10K\_1 	| 0 		| 3.97				|  
|FSRI\_STA\_N2\_10K\_2 	| 0 		| 3.98				|  
|FSRI\_STA\_N2\_10K\_3 	| 0 		| 3.94				|  
|FSRI\_STA\_N2\_30K\_1 	| 0 		| 4.06				| 
|FSRI\_STA\_N2\_30K\_2 	| 0 		| 4.09				| 
|FSRI\_STA\_N2\_30K\_3 	| 0 		| 3.95				| 

### Experimental Conditions: Specific Heat Capacity by ASTM E 1269 (Sapphire Method)
A Netzsch STA 449 F3 Jupiter was used to conduct Differential Scanning Calorimetry (DSC) experiments consistent with ASTM E1269.

* Heating Rate: 20 K/min
* Temperature program
  - Initial Temperature: 323 K
  - Initial Isotherm: 600 s (hold at 323 K for 600 s)  
  - Maximum Temperature: 823 K
  - Final Isotherm: 300 s (hold at 823 K for 300 s)
* Sample mass: 4.0 +/- 0.1 mg
* Sample geometry: Powdered (Supplied by NIST)
* Calibration type: Temperature calibration performed with 6 reference materials. Sapphire (Al2O3) standard tested for sensible enthalpy heat flow calibration.
* Crucible
  - Type: Pt-Rh
  - Volume: 85 µL
  - Diameter: 6.6 mm
  - Mass: None
  - Lid: True
  - Note: Pt-Rh crucibles (outer diameter 6.6mm / volume 85µL) with a pierced lid.
* Carrier Gas
  - Type: Nitrogen
  - Flow rate: 70 mL/min (20 mL/min protective, 50 mL/min purge)
  - Note: Ultra High Purity (UHP) Nitrogen
* Instrument
  - Type: Netzsch F3 Jupiter
  - Note: Heat flow rate data on an initial mass basis are provided. To determine heat capacity, the heat flow rate must be divided by the instantaneous heating rate. Heat capacities determined through this method are only accurate in temperature ranges where no mass loss occurs. 

File: FSRI_DSC_N2_3K_1.csv
Temp,time,Heat Flow Rate
[K],[s],[mW/mg]
323.5,31.6,1.29E-02
325.5,110.2,6.49E-02
327.5,158.3,7.55E-02
329.5,203.4,7.65E-02
331.5,246.8,7.97E-02
333.5,289.2,8.54E-02
335.5,330.6,8.56E-02
337.5,371.9,8.67E-02
339.5,413,8.92E-02
341.5,453.9,9.01E-02
343.5,494.3,9.05E-02
345.5,534.6,9.49E-02
347.5,574.8,9.18E-02
349.5,615.2,9.22E-02
351.5,655.4,9.11E-02
353.5,695.7,9.38E-02
355.5,736,9.40E-02
357.5,776.7,9.22E-02
359.5,816.7,9.42E-02
361.5,856.5,9.71E-02
363.5,896.8,9.43E-02
365.5,936.9,9.61E-02
367.5,976.9,9.60E-02
369.5,1016.7,9.99E-02
371.5,1056.5,9.77E-02
373.5,1096,9.96E-02
375.5,1135.7,9.86E-02
377.5,1175.4,9.88E-02
379.5,1215.4,9.87E-02
381.5,1254.9,0.10337
383.5,1294.2,0.10737
385.5,1333.8,0.10606
387.5,1373.5,0.10797
389.5,1413.2,0.10841
391.5,1452.8,0.11361
393.5,1492.5,0.11285
395.5,1532.6,0.11672
397.5,1572.5,0.11772
399.5,1612,0.12437
401.5,1651.3,0.12915
403.5,1690.5,0.12793
405.5,1729.9,0.13036
407.5,1769.4,0.13131
409.5,1808.8,0.13174
411.5,1848.4,0.12973
413.5,1887.8,0.1314
415.5,1927.1,0.12973
417.5,1966.6,0.13193
419.5,2005.8,0.13435
421.5,2045,0.13712
423.5,2084.1,0.13731
425.5,2123.3,0.13941
427.5,2162.4,0.14313
429.5,2201.7,0.14346
431.5,2241,0.14339
433.5,2280.2,0.14841
435.5,2319.4,0.14893
437.5,2358.7,0.15148
439.5,2398,0.15277
441.5,2437.2,0.15885
443.5,2476.3,0.15916
445.5,2515.3,0.15836
447.5,2554.3,0.15987
449.5,2593.3,0.15896
451.5,2632.5,0.15969
453.5,2671.6,0.15736
455.5,2711,0.15581
457.5,2750.5,0.1523
459.5,2789.7,0.15333
461.5,2828.7,0.15283
463.5,2867.7,0.15274
465.5,2906.8,0.15715
467.5,2946,0.1519
469.5,2985.5,0.15001
471.5,3025,0.1494
473.5,3064.1,0.14976
475.5,3102.5,0.14943
477.5,3141.2,0.14877
479.5,3179.6,0.14793
481.5,3217.9,0.14606
483.5,3256.6,0.14254
485.5,3295.9,0.14249
487.5,3335,0.13975
489.5,3374.3,0.14253
491.5,3413.3,0.14118
493.5,3452.3,0.14071
495.5,3491.3,0.14266
497.5,3530.4,0.14164
499.5,3569.5,0.14492
501.5,3608.5,0.14575
503.5,3647.4,0.14792
505.5,3686.3,0.14948
507.5,3725,0.15287
509.5,3763.9,0.14915
511.5,3803.3,0.14981
513.5,3842.5,0.15426
515.5,3881.6,0.15603
517.5,3920.5,0.15856
519.5,3959.4,0.16044
521.5,3998.2,0.16176
523.5,4037.2,0.16289
525.5,4076.2,0.16264
527.5,4115.2,0.17582
529.5,4154,0.17924
531.5,4192.9,0.18423
533.5,4232,0.1859
535.5,4271,0.18965
537.5,4309.8,0.19394
539.5,4348.6,0.19394
541.5,4387.7,0.19616
543.5,4426.5,0.20104
545.5,4465.8,0.2061
547.5,4504.8,0.20721
549.5,4543.8,0.20668
551.5,4582.8,0.21181
553.5,4621.7,0.21452
555.5,4660.5,0.21781
557.5,4699.7,0.21665
559.5,4738.9,0.21786
561.5,4778,0.22236
563.5,4817.1,0.22238
565.5,4856.1,0.22535
567.5,4895.2,0.22479
569.5,4934.3,0.23323
571.5,4973.2,0.24352
573.5,5012.3,0.25234
575.5,5051.6,0.26161
577.5,5090.5,0.27127
579.5,5129.5,0.28687
581.5,5168.7,0.29958
583.5,5208.3,0.31687
585.5,5247.3,0.34232
587.5,5286.1,0.36411
589.5,5325.3,0.3859
591.5,5364.8,0.41371
593.5,5404.3,0.44547
595.5,5443.5,0.48136
597.5,5482.6,0.5231
599.5,5521.6,0.56943
601.5,5560.8,0.61225
603.5,5600,0.65839
605.5,5639.6,0.70543
607.5,5679.1,0.75487
609.5,5718.5,0.79958
611.5,5757.9,0.84079
613.5,5797.3,0.87448
615.5,5836.8,0.9054
617.5,5876.2,0.9212
619.5,5915.7,0.92605
621.5,5955.1,0.91456
623.5,5994.3,0.90779
625.5,6033.6,0.8822
627.5,6073,0.85305
629.5,6112,0.8247
631.5,6151,0.78919
633.5,6190.1,0.75105
635.5,6229.4,0.70288
637.5,6268.7,0.65105
639.5,6308.1,0.59529
641.5,6347.6,0.53599
643.5,6387,0.48283
645.5,6426.1,0.42538
647.5,6465.1,0.3854
649.5,6504.3,0.33326
651.5,6543.7,0.28965
653.5,6583.3,0.25293
655.5,6622.8,0.21877
657.5,6662.2,0.1858
659.5,6701.2,0.16108
661.5,6740.5,0.1358
663.5,6780.2,0.11377
665.5,6819.6,0.10031
667.5,6859.1,8.58E-02
669.5,6898.5,7.64E-02
671.5,6938,7.76E-02
673.5,6977.6,7.47E-02
675.5,7017.1,7.33E-02
677.5,7056.4,7.39E-02
679.5,7095.7,6.73E-02
681.5,7135.1,5.71E-02
683.5,7174.8,4.42E-02
685.5,7214.5,2.69E-02
687.5,7254.1,7.64E-03
689.5,7294,-1.25E-02
691.5,7333.7,-2.12E-02
693.5,7373.3,-4.78E-03
695.5,7413.2,4.19E-03
697.5,7453,6.95E-03
699.5,7492.6,9.77E-03
701.5,7532,1.55E-02
703.5,7571.4,1.18E-02
705.5,7611.2,1.02E-02
707.5,7651.3,1.17E-02
709.5,7691,9.77E-03
711.5,7730.6,1.47E-02
713.5,7770.4,1.21E-02
715.5,7810.1,1.41E-02
717.5,7849.7,1.30E-02
719.5,7889.5,1.05E-02
721.5,7929.3,1.22E-02
723.5,7968.9,1.24E-02
725.5,8008.9,1.22E-02
727.5,8049,1.08E-02
729.5,8088.6,1.43E-02
731.5,8128,1.38E-02
733.5,8167.6,1.57E-02
735.5,8207.7,1.71E-02
737.5,8247.8,1.76E-02
739.5,8287.8,1.80E-02
741.5,8327.9,1.79E-02
743.5,8367.9,1.99E-02
745.5,8407.5,1.95E-02
747.5,8447,2.15E-02
749.5,8486.8,2.39E-02
751.5,8526.8,2.30E-02
753.5,8566.6,2.01E-02
755.5,8606.6,2.46E-02
757.5,8646.2,2.18E-02
759.5,8686.2,2.25E-02
761.5,8726,2.47E-02
763.5,8765.9,2.43E-02
765.5,8805.8,2.88E-02
767.5,8846,2.37E-02
769.5,8886,2.71E-02
771.5,8925.7,2.68E-02
773.5,8965.8,2.36E-02
775.5,9006.1,2.44E-02
777.5,9046,2.43E-02
779.5,9085.6,2.20E-02
781.5,9125.3,2.52E-02
783.5,9165.3,2.91E-02
785.5,9205.5,2.87E-02
787.5,9245.7,2.80E-02
789.5,9285.8,2.86E-02
791.5,9325.5,2.76E-02
793.5,9365.4,3.00E-02
795.5,9405.6,2.98E-02
797.5,9445.7,3.14E-02
799.5,9485.9,2.93E-02
801.5,9526,3.22E-02
803.5,9565.9,3.25E-02
805.5,9605.9,3.45E-02
807.5,9645.9,3.49E-02
809.5,9686.1,3.58E-02
811.5,9726.4,3.53E-02
813.5,9766.5,3.88E-02
815.5,9806.8,4.02E-02
817.5,9846.9,4.12E-02
819.5,9887,3.96E-02
821.5,9926.8,3.96E-02
823.5,9966.7,4.27E-02
825,9996.8,4.28E-02

File: FSRI_DSC_N2_10K_1.csv
Temp,time,Heat Flow Rate
[K],[s],[mW/mg]
323,28.4,6.87E-03
325,67.3,9.24E-02
327,87.3,0.14272
329,103.7,0.17209
331,118.6,0.19437
333,132.7,0.20721
335,146.2,0.21764
337,159.7,0.22759
339,172.8,0.23382
341,185.8,0.2405
343,198.7,0.24521
345,211.5,0.25088
347,224.2,0.25645
349,236.8,0.26283
351,249.3,0.26546
353,261.7,0.27165
355,274,0.27003
357,286.3,0.26911
359,298.5,0.26949
361,310.7,0.2684
363,322.7,0.26899
365,334.7,0.2736
367,346.7,0.27778
369,358.6,0.28111
371,370.5,0.2833
373,382.4,0.28662
375,394.2,0.2908
377,406,0.29228
379,417.8,0.29956
381,429.5,0.30528
383,441.3,0.31183
385,453,0.31503
387,464.7,0.32096
389,476.4,0.32637
391,488.2,0.33535
393,499.9,0.34621
395,511.6,0.35475
397,523.2,0.36231
399,534.9,0.3721
401,546.6,0.379
403,558.2,0.38401
405,569.9,0.38862
407,581.4,0.39063
409,593.2,0.39
411,604.7,0.39521
413,616.4,0.39559
415,628,0.39768
417,639.6,0.40073
419,651.2,0.40128
421,662.8,0.40419
423,674.3,0.40589
425,685.9,0.41067
427,697.4,0.41285
429,708.9,0.42049
431,720.5,0.42554
433,732,0.42638
435,743.6,0.43501
437,755.1,0.43898
439,766.6,0.44548
441,778.2,0.45408
443,789.7,0.45879
445,801.2,0.46853
447,812.7,0.47385
449,824.3,0.48156
451,835.8,0.49041
453,847.3,0.49672
455,858.8,0.50124
457,870.3,0.50804
459,881.8,0.51088
461,893.3,0.51229
463,904.7,0.5119
465,916.2,0.50674
467,927.7,0.50147
469,939.2,0.49793
471,950.7,0.49658
473,962.2,0.4956
475,973.6,0.49818
477,985.1,0.50122
479,996.6,0.50291
481,1008.1,0.51128
483,1019.6,0.51144
485,1031.1,0.51326
487,1042.5,0.51504
489,1054,0.51099
491,1065.4,0.5054
493,1076.9,0.49817
495,1088.3,0.48898
497,1099.8,0.48135
499,1111.2,0.4779
501,1122.6,0.47441
503,1134,0.47
505,1145.5,0.46839
507,1156.9,0.46751
509,1168.4,0.46988
511,1179.9,0.46822
513,1191.3,0.47354
515,1202.8,0.47523
517,1214.2,0.47789
519,1225.7,0.48728
521,1237.2,0.48801
523,1248.6,0.49325
525,1260.1,0.49879
527,1271.5,0.50237
529,1282.9,0.50604
531,1294.4,0.51071
533,1305.9,0.51583
535,1317.3,0.52107
537,1328.8,0.5316
539,1340.3,0.53731
541,1351.8,0.54555
543,1363.3,0.55328
545,1374.7,0.56568
547,1386.3,0.57434
549,1397.7,0.58377
551,1409.2,0.59065
553,1420.7,0.60533
555,1432.1,0.61397
557,1443.6,0.61991
559,1455.2,0.63006
561,1466.7,0.63603
563,1478.2,0.64539
565,1489.7,0.65215
567,1501.2,0.6652
569,1512.7,0.67108
571,1524.2,0.67598
573,1535.7,0.6831
575,1547.3,0.691
577,1558.8,0.69425
579,1570.3,0.6847
581,1581.8,0.66862
583,1593.3,0.67083
585,1604.7,0.70083
587,1616.2,0.74186
589,1627.7,0.78755
591,1639.2,0.83734
593,1650.8,0.8928
595,1662.4,0.94415
597,1674,0.99889
599,1685.6,1.05921
601,1697.2,1.12735
603,1708.9,1.19767
605,1720.5,1.28458
607,1732.2,1.37406
609,1743.9,1.47805
611,1755.5,1.59239
613,1767.2,1.71648
615,1779,1.84598
617,1790.6,1.98607
619,1802.3,2.12827
621,1814.1,2.26987
623,1825.9,2.41006
625,1837.7,2.54321
627,1849.5,2.67176
629,1861.2,2.78431
631,1872.9,2.87183
633,1884.7,2.93069
635,1896.4,2.96178
637,1908.2,2.95714
639,1919.9,2.9183
641,1931.6,2.88489
643,1943.3,2.84165
645,1954.9,2.75361
647,1966.6,2.63601
649,1978.2,2.52265
651,1989.8,2.36701
653,2001.4,2.20981
655,2013,2.02351
657,2024.6,1.86634
659,2036.2,1.68558
661,2047.7,1.49791
663,2059.2,1.31313
665,2070.8,1.15663
667,2082.4,1.00273
669,2094.1,0.86644
671,2105.7,0.74415
673,2117.3,0.62995
675,2128.9,0.53195
677,2140.6,0.44576
679,2152.2,0.3728
681,2163.9,0.3096
683,2175.6,0.26103
685,2187.2,0.23459
687,2198.8,0.21786
689,2210.5,0.20882
691,2222.2,0.20061
693,2233.9,0.19571
695,2245.6,0.19336
697,2257.3,0.16593
699,2269.2,0.13674
701,2281,0.10791
703,2292.8,7.42E-02
705,2304.6,2.55E-02
707,2316.5,-2.51E-02
709,2328.4,-3.65E-02
711,2340.2,-2.66E-03
713,2352.1,2.15E-02
715,2363.9,3.13E-02
717,2375.8,3.66E-02
719,2387.6,3.78E-02
721,2399.5,4.04E-02
723,2411.3,4.12E-02
725,2423.1,4.24E-02
727,2434.9,4.38E-02
729,2446.7,4.61E-02
731,2458.6,4.92E-02
733,2470.4,4.83E-02
735,2482.2,4.86E-02
737,2494.1,4.70E-02
739,2505.9,5.25E-02
741,2517.7,5.09E-02
743,2529.5,5.21E-02
745,2541.4,5.41E-02
747,2553.2,5.43E-02
749,2565,5.72E-02
751,2576.8,5.78E-02
753,2588.7,6.26E-02
755,2600.5,6.57E-02
757,2612.3,6.50E-02
759,2624.1,6.40E-02
761,2635.9,6.82E-02
763,2647.8,7.03E-02
765,2659.7,7.15E-02
767,2671.6,7.24E-02
769,2683.5,7.10E-02
771,2695.3,7.40E-02
773,2707.2,7.51E-02
775,2719.1,7.85E-02
777,2731.1,8.10E-02
779,2743,7.96E-02
781,2754.9,8.22E-02
783,2766.8,8.44E-02
785,2778.7,8.50E-02
787,2790.7,8.75E-02
789,2802.6,9.14E-02
791,2814.5,9.33E-02
793,2826.3,9.72E-02
795,2838.2,9.72E-02
797,2850.1,0.10295
799,2862.1,0.10032
801,2873.9,0.10816
803,2885.8,0.10621
805,2897.7,0.10994
807,2909.6,0.10731
809,2921.5,0.10817
811,2933.4,0.11144
813,2945.4,0.11346
815,2957.3,0.11267
817,2969.3,0.11334
819,2981.4,0.11149
821,2993.4,0.11383
822,2999.4,0.11372

File: FSRI_DSC_N2_10K_2.csv
Temp,time,Heat Flow Rate
[K],[s],[mW/mg]
323,0,8.92E-04
325,65.2,8.46E-02
327,85.6,0.13042
329,102.2,0.15916
331,117.3,0.18311
333,131.5,0.19357
335,145.1,0.20725
337,158.5,0.21433
339,171.7,0.22196
341,184.7,0.22697
343,197.7,0.23071
345,210.4,0.23601
347,223.1,0.2435
349,235.7,0.24762
351,248.3,0.25199
353,260.7,0.25466
355,273,0.25425
357,285.3,0.25358
359,297.5,0.25329
361,309.6,0.2525
363,321.7,0.25204
365,333.7,0.25417
367,345.7,0.25345
369,357.6,0.25818
371,369.6,0.25849
373,381.5,0.26373
375,393.3,0.26404
377,405.2,0.26934
379,417,0.27523
381,428.8,0.27964
383,440.5,0.27985
385,452.3,0.28816
387,464.1,0.29259
389,475.8,0.2985
391,487.6,0.3043
393,499.3,0.31333
395,511,0.32443
397,522.7,0.33261
399,534.3,0.33959
401,546,0.34618
403,557.7,0.35112
405,569.3,0.35573
407,581,0.35823
409,592.6,0.36002
411,604.2,0.36234
413,615.8,0.36381
415,627.4,0.36483
417,638.9,0.3664
419,650.5,0.37001
421,662,0.37654
423,673.6,0.37586
425,685.1,0.37927
427,696.7,0.38354
429,708.2,0.38509
431,719.8,0.38945
433,731.3,0.39294
435,742.9,0.39975
437,754.4,0.40693
439,766,0.41437
441,777.5,0.42213
443,789,0.43044
445,800.5,0.43812
447,812,0.44398
449,823.6,0.45096
451,835.1,0.45867
453,846.6,0.46623
455,858.1,0.47062
457,869.6,0.47093
459,881.1,0.47442
461,892.6,0.47094
463,904.1,0.4699
465,915.7,0.46399
467,927.2,0.45964
469,938.7,0.45467
471,950.2,0.45452
473,961.7,0.4514
475,973.2,0.4542
477,984.7,0.45333
479,996.2,0.46004
481,1007.6,0.46142
483,1019.1,0.46416
485,1030.6,0.46527
487,1042.1,0.46141
489,1053.6,0.45645
491,1065,0.44944
493,1076.5,0.44167
495,1087.9,0.43594
497,1099.4,0.43152
499,1110.8,0.42775
501,1122.3,0.42616
503,1133.7,0.42259
505,1145.2,0.42207
507,1156.6,0.42452
509,1168.1,0.42333
511,1179.6,0.42474
513,1191.1,0.42655
515,1202.6,0.42864
517,1214.1,0.43124
519,1225.6,0.43008
521,1237,0.43533
523,1248.5,0.43928
525,1260,0.4431
527,1271.5,0.44725
529,1282.9,0.45962
531,1294.4,0.46866
533,1305.8,0.47295
535,1317.2,0.48113
537,1328.7,0.48639
539,1340.1,0.49113
541,1351.6,0.49516
543,1363.1,0.50025
545,1374.5,0.50609
547,1386,0.50981
549,1397.5,0.51523
551,1409,0.52375
553,1420.6,0.53613
555,1432.1,0.54101
557,1443.6,0.54724
559,1455.1,0.55781
561,1466.7,0.56655
563,1478.2,0.57656
565,1489.7,0.58406
567,1501.1,0.59284
569,1512.7,0.59708
571,1524.2,0.60582
573,1535.7,0.61065
575,1547.3,0.61365
577,1558.8,0.61214
579,1570.3,0.6123
581,1581.8,0.61345
583,1593.3,0.62876
585,1604.8,0.6514
587,1616.4,0.68019
589,1628.1,0.71328
591,1639.6,0.75002
593,1651.2,0.78818
595,1662.8,0.83382
597,1674.4,0.88698
599,1686,0.94272
601,1697.6,1.01484
603,1709.2,1.08927
605,1720.9,1.17167
607,1732.5,1.26702
609,1744.1,1.37191
611,1755.7,1.48516
613,1767.4,1.60879
615,1779.1,1.74161
617,1790.8,1.8807
619,1802.5,2.0239
621,1814.3,2.16805
623,1826,2.30921
625,1837.8,2.44579
627,1849.5,2.57488
629,1861.2,2.68571
631,1873,2.77985
633,1884.7,2.84777
635,1896.4,2.88467
637,1908.1,2.87219
639,1919.8,2.81698
641,1931.5,2.82132
643,1943.1,2.80225
645,1954.8,2.73739
647,1966.4,2.63067
649,1978,2.48689
651,1989.6,2.3288
653,2001.1,2.17341
655,2012.7,1.9955
657,2024.3,1.8149
659,2035.8,1.64035
661,2047.4,1.45876
663,2058.9,1.28053
665,2070.5,1.11901
667,2082.1,0.97161
669,2093.6,0.83366
671,2105.2,0.70958
673,2116.9,0.59803
675,2128.5,0.49829
677,2140.1,0.4104
679,2151.8,0.33737
681,2163.4,0.27428
683,2175.1,0.21939
685,2186.8,0.17757
687,2198.5,0.14263
689,2210.2,0.11554
691,2221.9,9.49E-02
693,2233.7,8.00E-02
695,2245.4,7.37E-02
697,2257.1,7.61E-02
699,2268.9,7.64E-02
701,2280.6,6.94E-02
703,2292.4,6.35E-02
705,2304.1,5.65E-02
707,2315.9,4.17E-02
709,2327.7,1.92E-02
711,2339.4,-2.15E-02
713,2351.2,-3.41E-02
715,2363,-2.02E-02
717,2374.9,-1.05E-02
719,2386.7,-3.93E-03
721,2398.5,-1.03E-03
723,2410.3,-2.70E-03
725,2422.1,2.55E-03
727,2434,5.76E-03
729,2445.8,1.28E-02
731,2457.6,1.25E-02
733,2469.4,1.15E-02
735,2481.3,1.31E-02
737,2493.1,1.22E-02
739,2504.9,1.35E-02
741,2516.8,1.31E-02
743,2528.7,1.43E-02
745,2540.6,1.76E-02
747,2552.4,1.67E-02
749,2564.2,1.94E-02
751,2576.1,2.07E-02
753,2587.9,2.13E-02
755,2599.8,2.15E-02
757,2611.6,2.23E-02
759,2623.5,2.38E-02
761,2635.3,2.62E-02
763,2647.2,2.96E-02
765,2659,3.08E-02
767,2670.9,3.14E-02
769,2682.8,3.56E-02
771,2694.6,3.53E-02
773,2706.4,3.79E-02
775,2718.3,3.67E-02
777,2730.2,4.10E-02
779,2742.1,3.78E-02
781,2754,4.03E-02
783,2765.9,4.21E-02
785,2777.8,4.35E-02
787,2789.7,4.18E-02
789,2801.6,4.26E-02
791,2813.6,4.52E-02
793,2825.5,4.81E-02
795,2837.4,4.98E-02
797,2849.3,4.98E-02
799,2861.3,5.37E-02
801,2873.2,5.27E-02
803,2885.1,5.39E-02
805,2897.1,5.31E-02
807,2909,5.42E-02
809,2920.9,5.59E-02
811,2932.9,5.78E-02
813,2944.9,5.81E-02
815,2956.8,5.91E-02
817,2968.8,6.19E-02
819,2980.8,6.17E-02
821,2992.7,6.15E-02
822,2998.7,6.13E-02

File: FSRI_DSC_N2_10K_3.csv
Temp,time,Heat Flow Rate
[K],[s],[mW/mg]
323,0,-2.16E-03
325,65.4,8.73E-02
327,85.8,0.13626
329,102.4,0.16735
331,117.3,0.18869
333,131.4,0.20271
335,145.2,0.21451
337,158.6,0.22054
339,171.7,0.23007
341,184.6,0.2349
343,197.5,0.24107
345,210.4,0.24633
347,223.1,0.25097
349,235.7,0.25751
351,248.2,0.26457
353,260.7,0.26424
355,273.1,0.26534
357,285.5,0.266
359,297.7,0.26361
361,309.9,0.26388
363,322,0.26711
365,334.1,0.26719
367,346.1,0.26853
369,358.1,0.27557
371,370,0.27688
373,381.8,0.28047
375,393.7,0.28478
377,405.6,0.28956
379,417.4,0.29087
381,429.1,0.29669
383,440.9,0.29993
385,452.6,0.30594
387,464.4,0.3088
389,476.1,0.31517
391,487.8,0.32238
393,499.5,0.33257
395,511.2,0.34273
397,522.9,0.3506
399,534.6,0.36001
401,546.3,0.36719
403,558,0.37254
405,569.7,0.3775
407,581.3,0.37952
409,593,0.38281
411,604.6,0.38435
413,616.2,0.38872
415,627.8,0.39082
417,639.4,0.39502
419,650.9,0.39495
421,662.4,0.39663
423,674.1,0.40101
425,685.7,0.4034
427,697.2,0.40768
429,708.7,0.4116
431,720.2,0.41993
433,731.8,0.42495
435,743.3,0.43094
437,754.9,0.43821
439,766.4,0.44429
441,777.8,0.45243
443,789.4,0.45785
445,800.9,0.46687
447,812.5,0.47613
449,823.9,0.48359
451,835.4,0.4941
453,846.9,0.49737
455,858.5,0.5008
457,870,0.50218
459,881.5,0.50502
461,893,0.50433
463,904.5,0.50035
465,915.9,0.50032
467,927.4,0.49649
469,938.8,0.4886
471,950.3,0.48728
473,961.7,0.48584
475,973.2,0.48417
477,984.6,0.4838
479,996.1,0.48665
481,1007.6,0.48526
483,1019.1,0.4903
485,1030.6,0.49302
487,1042,0.49302
489,1053.5,0.48939
491,1065,0.48504
493,1076.4,0.4759
495,1087.8,0.46954
497,1099.3,0.46265
499,1110.7,0.45683
501,1122.2,0.45407
503,1133.7,0.45378
505,1145.1,0.45299
507,1156.5,0.45174
509,1168,0.45508
511,1179.4,0.45542
513,1190.9,0.45561
515,1202.3,0.45875
517,1213.7,0.46054
519,1225.2,0.46317
521,1236.6,0.4648
523,1248.1,0.46292
525,1259.6,0.46768
527,1271.1,0.47018
529,1282.6,0.47153
531,1294.1,0.47682
533,1305.5,0.47933
535,1317,0.48377
537,1328.5,0.48814
539,1340.1,0.49412
541,1351.6,0.50104
543,1363.1,0.50565
545,1374.6,0.51377
547,1386.2,0.52213
549,1397.7,0.53178
551,1409.2,0.54144
553,1420.7,0.55375
555,1432.2,0.56463
557,1443.8,0.57324
559,1455.2,0.58175
561,1466.7,0.58957
563,1478.2,0.59653
565,1489.7,0.60214
567,1501.2,0.60846
569,1512.7,0.6117
571,1524.3,0.61274
573,1535.8,0.61295
575,1547.3,0.61622
577,1558.8,0.62564
579,1570.3,0.63747
581,1581.9,0.65217
583,1593.4,0.67049
585,1605,0.68858
587,1616.5,0.71014
589,1628.1,0.73717
591,1639.7,0.77127
593,1651.2,0.80975
595,1662.7,0.85435
597,1674.3,0.90272
599,1685.9,0.959
601,1697.5,1.02817
603,1709,1.10323
605,1720.6,1.18423
607,1732.2,1.27868
609,1743.8,1.38034
611,1755.5,1.49639
613,1767.2,1.61992
615,1778.9,1.74891
617,1790.6,1.89062
619,1802.3,2.03492
621,1814.1,2.17965
623,1825.8,2.32664
625,1837.6,2.46811
627,1849.4,2.59923
629,1861.2,2.71623
631,1873,2.81844
633,1884.8,2.89347
635,1896.5,2.94007
637,1908.2,2.94421
639,1919.9,2.9237
641,1931.6,2.87631
643,1943.2,2.84259
645,1954.8,2.77597
647,1966.5,2.66712
649,1978.1,2.51901
651,1989.6,2.35328
653,2001.2,2.17742
655,2012.7,1.99377
657,2024.2,1.8106
659,2035.7,1.63476
661,2047.2,1.45833
663,2058.8,1.27956
665,2070.3,1.12215
667,2081.9,0.96921
669,2093.5,0.82983
671,2105.1,0.70479
673,2116.8,0.59349
675,2128.4,0.49529
677,2140.1,0.40829
679,2151.8,0.33582
681,2163.4,0.27404
683,2175.1,0.21969
685,2186.8,0.17965
687,2198.5,0.14119
689,2210.2,0.11413
691,2221.9,9.39E-02
693,2233.6,7.45E-02
695,2245.3,6.14E-02
697,2257,5.18E-02
699,2268.8,4.53E-02
701,2280.5,4.53E-02
703,2292.2,4.85E-02
705,2303.9,4.76E-02
707,2315.6,4.20E-02
709,2327.5,3.06E-02
711,2339.2,9.74E-03
713,2351.1,-2.24E-02
715,2362.9,-3.53E-02
717,2374.8,-2.18E-02
719,2386.6,-1.28E-03
721,2398.5,1.04E-02
723,2410.2,2.36E-02
725,2422.1,2.60E-02
727,2433.9,3.07E-02
729,2445.7,2.73E-02
731,2457.4,2.54E-02
733,2469.2,2.82E-02
735,2481,2.91E-02
737,2492.9,3.16E-02
739,2504.7,3.06E-02
741,2516.5,3.16E-02
743,2528.3,3.54E-02
745,2540.2,3.54E-02
747,2552,3.50E-02
749,2563.9,3.63E-02
751,2575.7,3.56E-02
753,2587.6,3.62E-02
755,2599.5,3.77E-02
757,2611.3,3.72E-02
759,2623.2,3.95E-02
761,2635.1,4.23E-02
763,2646.9,4.06E-02
765,2658.8,4.33E-02
767,2670.6,4.23E-02
769,2682.5,4.46E-02
771,2694.4,4.56E-02
773,2706.3,4.30E-02
775,2718.3,4.83E-02
777,2730.2,4.62E-02
779,2742.1,5.24E-02
781,2754,5.19E-02
783,2765.9,5.47E-02
785,2777.9,5.53E-02
787,2789.7,5.49E-02
789,2801.6,5.71E-02
791,2813.5,6.05E-02
793,2825.4,6.24E-02
795,2837.3,6.50E-02
797,2849.2,6.59E-02
799,2861.1,6.90E-02
801,2873,6.66E-02
803,2885,6.61E-02
805,2897,7.02E-02
807,2908.9,7.10E-02
809,2920.8,7.35E-02
811,2932.8,7.16E-02
813,2944.7,6.95E-02
815,2956.6,7.56E-02
817,2968.6,7.27E-02
819,2980.6,7.48E-02
821,2992.6,7.52E-02
822,2998.6,7.50E-02