Folder: matl-db/PMMA/Calibration_Data/FSRI (part 5)

File: FSRI_STA_N2_20K_1.csv
Temp,time,TGA,DSC,Sensitivity,Heating Rate,Heat Capacity
[K],[s],[mg],[uV/mg],[mW/uV],[K/s],[J/g/K]
322.1,0.0,3.9605,-3.63E-03,2.861,0.005,-2.21
324.4,53.6,3.9582,0.11925,1.485,0.126,1.41
326.7,68.4,3.9560,0.20873,1.268,0.184,1.44
329.0,79.8,3.9574,0.27014,1.169,0.221,1.43
331.3,89.7,3.9571,0.32262,1.122,0.245,1.48
333.6,98.8,3.9577,0.36412,1.062,0.263,1.47
335.9,107.2,3.9568,0.39989,1.035,0.276,1.50
338.2,115.4,3.9575,0.42647,1.004,0.289,1.48
340.5,123.2,3.9576,0.45142,0.984,0.295,1.51
342.8,130.9,3.9564,0.47202,0.969,0.302,1.51
345.1,138.5,3.9567,0.49025,0.959,0.306,1.54
347.4,146.0,3.9551,0.50656,0.948,0.310,1.55
349.7,153.4,3.9559,0.52234,0.929,0.312,1.55
352.0,160.7,3.9564,0.53658,0.928,0.314,1.59
354.3,168.0,3.9561,0.55224,0.927,0.317,1.61
356.6,175.3,3.9557,0.5553,0.921,0.318,1.61
358.9,182.5,3.9565,0.55388,0.918,0.321,1.59
361.2,189.6,3.9557,0.54951,0.918,0.320,1.58
363.5,196.7,3.9554,0.55003,0.918,0.325,1.55
365.8,203.8,3.9554,0.55141,0.915,0.325,1.55
368.1,210.9,3.9557,0.55357,0.911,0.325,1.55
370.4,217.9,3.9543,0.5576,0.904,0.328,1.54
372.7,224.9,3.9535,0.56414,0.913,0.331,1.56
375.0,231.9,3.9530,0.57115,0.909,0.329,1.58
377.3,238.8,3.9543,0.57865,0.907,0.333,1.58
379.6,245.8,3.9530,0.58963,0.903,0.330,1.62
381.9,252.6,3.9530,0.59889,0.897,0.335,1.61
384.2,259.5,3.9530,0.60821,0.895,0.334,1.63
386.5,266.4,3.9517,0.6181,0.896,0.337,1.64
388.8,273.3,3.9517,0.63021,0.893,0.336,1.68
391.1,280.1,3.9517,0.64409,0.893,0.338,1.70
393.4,286.9,3.9506,0.66466,0.888,0.337,1.75
395.7,293.7,3.9517,0.68384,0.891,0.340,1.79
398.0,300.5,3.9517,0.70229,0.888,0.338,1.84
400.3,307.2,3.9511,0.71789,0.897,0.343,1.88
402.6,314.0,3.9511,0.73474,0.894,0.341,1.93
404.9,320.7,3.9504,0.74635,0.885,0.342,1.93
407.2,327.4,3.9504,0.7559,0.892,0.346,1.95
409.5,334.1,3.9505,0.76539,0.891,0.345,1.98
411.8,340.7,3.9491,0.77542,0.892,0.346,2.00
414.1,347.4,3.9491,0.78028,0.887,0.347,2.00
416.4,354.0,3.9491,0.78684,0.892,0.349,2.01
418.7,360.6,3.9464,0.79449,0.892,0.346,2.05
421.0,367.2,3.9461,0.80176,0.890,0.351,2.04
423.3,373.8,3.9461,0.80595,0.886,0.349,2.04
425.6,380.4,3.9461,0.81396,0.888,0.349,2.07
427.9,386.9,3.9448,0.81817,0.893,0.350,2.09
430.2,393.5,3.9441,0.82679,0.878,0.352,2.07
432.5,400.0,3.9425,0.83479,0.893,0.353,2.11
434.8,406.6,3.9402,0.84473,0.889,0.349,2.15
437.1,413.1,3.9391,0.85158,0.881,0.355,2.11
439.4,419.6,3.9376,0.86334,0.885,0.351,2.18
441.7,426.1,3.9362,0.87557,0.880,0.353,2.18
444.0,432.7,3.9336,0.89108,0.884,0.352,2.24
446.3,439.2,3.9336,0.90533,0.882,0.349,2.29
448.6,445.8,3.9310,0.92334,0.884,0.355,2.30
450.9,452.3,3.9284,0.93842,0.886,0.353,2.35
453.2,458.8,3.9258,0.95579,0.884,0.352,2.40
455.5,465.3,3.9218,0.97073,0.888,0.353,2.44
457.8,471.8,3.9174,0.98507,0.883,0.355,2.45
460.1,478.3,3.9130,0.99741,0.892,0.353,2.52
462.4,484.8,3.9074,1.00902,0.888,0.355,2.53
464.7,491.2,3.9019,1.01461,0.893,0.358,2.53
467.0,497.7,3.8980,1.01677,0.885,0.355,2.54
469.3,504.2,3.8934,1.01735,0.889,0.357,2.53
471.6,510.6,3.8892,1.01286,0.891,0.356,2.54
473.9,517.0,3.8836,1.00803,0.891,0.358,2.51
476.2,523.5,3.8781,1.00116,0.886,0.357,2.48
478.5,529.9,3.8736,0.99313,0.893,0.357,2.48
480.8,536.4,3.8711,0.99147,0.890,0.356,2.48
483.1,542.8,3.8647,0.98926,0.895,0.359,2.46
485.4,549.2,3.8621,0.99267,0.901,0.359,2.49
487.7,555.7,3.8594,0.99738,0.890,0.358,2.48
490.0,562.0,3.8539,1.00258,0.891,0.360,2.48
492.3,568.5,3.8483,1.00934,0.896,0.358,2.53
494.6,574.9,3.8437,1.01239,0.899,0.355,2.56
496.9,581.3,3.8409,1.00959,0.887,0.358,2.50
499.2,587.8,3.8367,1.00387,0.903,0.358,2.53
501.5,594.2,3.8329,0.99148,0.892,0.356,2.48
503.8,600.6,3.8302,0.97363,0.896,0.359,2.43
506.1,607.0,3.8276,0.9579,0.899,0.361,2.39
508.4,613.4,3.8255,0.94623,0.894,0.357,2.37
510.7,619.9,3.8239,0.93433,0.899,0.358,2.34
513.0,626.3,3.8236,0.92628,0.905,0.360,2.33
515.3,632.6,3.8224,0.92462,0.898,0.360,2.31
517.6,639.1,3.8197,0.92291,0.901,0.359,2.32
519.9,645.5,3.8207,0.92017,0.906,0.359,2.32
522.2,651.9,3.8201,0.91823,0.898,0.357,2.31
524.5,658.3,3.8180,0.91817,0.908,0.359,2.32
526.8,664.7,3.8180,0.92154,0.906,0.358,2.33
529.1,671.2,3.8166,0.92325,0.908,0.359,2.33
531.4,677.6,3.8154,0.92873,0.911,0.359,2.36
533.7,684.0,3.8127,0.93346,0.911,0.358,2.37
536.0,690.4,3.8127,0.9368,0.912,0.357,2.39
538.3,696.8,3.8101,0.93933,0.914,0.359,2.39
540.6,703.2,3.8101,0.94623,0.918,0.357,2.43
542.9,709.7,3.8075,0.95391,0.915,0.358,2.43
545.2,716.1,3.8057,0.96008,0.914,0.358,2.45
547.5,722.5,3.8048,0.97058,0.920,0.358,2.49
549.8,728.9,3.8017,0.97832,0.919,0.358,2.51
552.1,735.4,3.7971,0.99076,0.921,0.357,2.55
554.4,741.8,3.7944,1.00346,0.920,0.359,2.57
556.7,748.2,3.7917,1.01414,0.924,0.359,2.61
559.0,754.7,3.7860,1.02687,0.928,0.357,2.67
561.3,761.1,3.7818,1.04428,0.928,0.356,2.72
563.6,767.6,3.7779,1.06173,0.926,0.357,2.76
565.9,774.0,3.7713,1.08269,0.926,0.357,2.81
568.2,780.4,3.7648,1.10827,0.934,0.357,2.90
570.5,786.9,3.7600,1.13381,0.930,0.358,2.95
572.8,793.3,3.7528,1.15589,0.932,0.357,3.02
575.1,799.8,3.7444,1.17282,0.933,0.357,3.07
577.4,806.2,3.7354,1.18396,0.938,0.360,3.09
579.7,812.7,3.7263,1.19935,0.944,0.357,3.18
582.0,819.2,3.7172,1.20938,0.941,0.351,3.25
584.3,825.6,3.7067,1.2255,0.944,0.357,3.24
586.6,832.1,3.6961,1.24245,0.940,0.358,3.27
588.9,838.5,3.6852,1.25645,0.946,0.355,3.35
591.2,845.0,3.6718,1.2792,0.951,0.356,3.42
593.5,851.5,3.6566,1.3076,0.952,0.356,3.50
595.8,858.0,3.6431,1.34299,0.952,0.355,3.60
598.1,864.4,3.6286,1.38894,0.952,0.355,3.73
600.4,870.9,3.6089,1.4507,0.955,0.353,3.92
602.7,877.4,3.5886,1.52452,0.953,0.355,4.10
605.0,883.9,3.5659,1.61256,0.957,0.353,4.37
607.3,890.4,3.5365,1.71873,0.965,0.352,4.71
609.6,896.9,3.5039,1.83803,0.962,0.355,4.99
611.9,903.4,3.4691,1.97999,0.961,0.352,5.40
614.2,910.0,3.4288,2.13579,0.973,0.352,5.90
616.5,916.5,3.3794,2.31219,0.967,0.352,6.35
618.8,923.1,3.3256,2.51288,0.973,0.353,6.93
621.1,929.6,3.2676,2.73083,0.970,0.350,7.56
623.4,936.2,3.1956,2.96776,0.973,0.352,8.21
625.7,942.7,3.1154,3.22203,0.980,0.346,9.12
628.0,949.4,3.0256,3.49357,0.979,0.347,9.85
630.3,955.9,2.9293,3.77121,0.982,0.349,10.61
632.6,962.5,2.8217,4.04818,0.983,0.348,11.45
634.9,969.2,2.7014,4.31984,0.990,0.348,12.31
637.2,975.8,2.5719,4.5756,0.990,0.347,13.06
639.5,982.5,2.4359,4.79544,0.991,0.347,13.70
641.8,989.1,2.2897,4.97393,0.988,0.345,14.23
644.1,995.7,2.1345,5.09133,0.999,0.348,14.63
646.4,1002.3,1.9760,5.18125,0.995,0.348,14.83
648.7,1009.0,1.8212,5.19059,0.996,0.348,14.88
651.0,1015.6,1.6607,5.2059,0.999,0.348,14.96
653.3,1022.2,1.4985,5.16002,1.001,0.348,14.85
655.6,1028.8,1.3392,5.02521,1.001,0.349,14.42
657.9,1035.4,1.1869,4.81609,1.005,0.350,13.84
660.2,1041.9,1.0396,4.5506,1.011,0.354,12.98
662.5,1048.5,0.8994,4.22916,1.001,0.349,12.12
664.8,1055.0,0.7720,3.86468,1.019,0.353,11.16
667.1,1061.5,0.6575,3.48887,1.013,0.355,9.96
669.4,1068.0,0.5516,3.11289,1.016,0.353,8.95
671.7,1074.5,0.4594,2.73415,1.015,0.353,7.85
674.0,1081.0,0.3796,2.35034,1.023,0.357,6.74
676.3,1087.5,0.3113,2.03505,1.028,0.355,5.90
678.6,1093.9,0.2483,1.73646,1.022,0.354,5.01
680.9,1100.4,0.1976,1.46023,1.037,0.353,4.29
683.2,1106.9,0.1565,1.20841,1.019,0.354,3.48
685.5,1113.4,0.1205,0.99071,1.038,0.353,2.92
687.8,1119.9,0.0927,0.80405,1.034,0.356,2.34
690.1,1126.4,0.0701,0.64973,1.039,0.354,1.91
692.4,1132.9,0.0517,0.52147,1.034,0.351,1.54
694.7,1139.5,0.0387,0.41952,1.049,0.351,1.26
697.0,1146.0,0.0279,0.33357,1.042,0.348,1.00
699.3,1152.6,0.0186,0.26943,1.050,0.351,0.81
701.6,1159.2,0.0121,0.21749,1.047,0.348,0.65
703.9,1165.8,0.0080,0.17878,1.048,0.348,0.54
706.2,1172.4,0.0038,0.14799,1.054,0.349,0.45
708.5,1179.0,0.0018,0.12711,1.055,0.348,0.39
710.8,1185.6,0.0004,0.10543,1.066,0.347,0.32
713.1,1192.2,-0.0009,9.50E-02,1.061,0.348,0.29
715.4,1198.9,-0.0023,8.78E-02,1.065,0.347,0.27
717.7,1205.5,-0.0049,8.98E-02,1.066,0.348,0.28
720.0,1212.1,-0.0056,9.01E-02,1.069,0.344,0.28
722.3,1218.8,-0.0042,8.48E-02,1.067,0.347,0.26
724.6,1225.5,-0.0055,6.50E-02,1.074,0.345,0.20
726.9,1232.1,-0.0068,4.01E-02,1.077,0.345,0.13
729.2,1238.8,-0.0064,3.60E-02,1.072,0.343,0.11
731.5,1245.5,-0.0044,4.68E-02,1.079,0.344,0.15
733.8,1252.2,-0.0064,6.11E-02,1.082,0.343,0.19
736.1,1258.9,-0.0071,7.74E-02,1.084,0.345,0.24
738.4,1265.6,-0.0071,8.58E-02,1.088,0.343,0.27
740.7,1272.3,-0.0084,9.44E-02,1.086,0.343,0.30
743.0,1279.0,-0.0077,9.74E-02,1.097,0.345,0.31
745.3,1285.7,-0.0077,0.1026,1.099,0.343,0.33
747.6,1292.4,-0.0077,0.10673,1.100,0.342,0.34
749.9,1299.1,-0.0091,0.11054,1.101,0.344,0.35
752.2,1305.8,-0.0084,0.10905,1.106,0.344,0.35
754.5,1312.5,-0.0097,0.11056,1.107,0.343,0.36
756.8,1319.2,-0.0097,0.11115,1.104,0.339,0.36
759.1,1325.9,-0.0097,0.1109,1.120,0.342,0.36
761.4,1332.7,-0.0071,0.11209,1.112,0.342,0.36
763.7,1339.4,-0.0084,0.11364,1.123,0.347,0.37
766.0,1346.1,-0.0081,0.11646,1.126,0.336,0.39
768.3,1352.9,-0.0082,0.11731,1.126,0.343,0.39
770.6,1359.6,-0.0082,0.1178,1.127,0.340,0.39
772.9,1366.3,-0.0082,0.11954,1.130,0.342,0.40
775.2,1373.1,-0.0085,0.12348,1.135,0.342,0.41
777.5,1379.8,-0.0086,0.12257,1.130,0.340,0.41
779.8,1386.6,-0.0083,0.12853,1.149,0.340,0.43
782.1,1393.3,-0.0081,0.12878,1.129,0.343,0.42
784.4,1400.1,-0.0087,0.12783,1.141,0.339,0.43
786.7,1406.8,-0.0083,0.12939,1.151,0.340,0.44
789.0,1413.6,-0.0083,0.13118,1.152,0.339,0.45
791.3,1420.4,-0.0089,0.13249,1.164,0.343,0.45
793.6,1427.1,-0.0089,0.13046,1.144,0.339,0.44
795.9,1433.9,-0.0089,0.13521,1.154,0.339,0.46
798.2,1440.6,-0.0079,0.13492,1.161,0.340,0.46
800.5,1447.4,-0.0083,0.13632,1.167,0.341,0.47
802.8,1454.2,-0.0083,0.13434,1.166,0.339,0.46
805.1,1461.0,-0.0083,0.13622,1.172,0.339,0.47
807.4,1467.7,-0.0089,0.13722,1.171,0.339,0.47
809.7,1474.5,-0.0089,0.13918,1.183,0.339,0.49
812.0,1481.3,-0.0089,0.14025,1.177,0.340,0.49
814.3,1488.1,-0.0093,0.14178,1.186,0.339,0.50
816.6,1494.8,-0.0079,0.14152,1.192,0.339,0.50
817.8,1498.4,-0.0083,0.14186,1.166,0.340,0.49

File: FSRI_STA_N2_20K_2.csv
Temp,time,TGA,DSC,Sensitivity,Heating Rate,Heat Capacity
[K],[s],[mg],[uV/mg],[mW/uV],[K/s],[J/g/K]
321.9,0.0,3.9505,9.63E-04,2.36,0.005,0.46
324.1,52.6,3.9486,0.12539,1.50,0.124,1.52
326.3,67.2,3.9491,0.2088,1.29,0.177,1.52
328.5,78.3,3.9487,0.27252,1.20,0.215,1.52
330.7,88.0,3.9474,0.32388,1.11,0.240,1.50
332.9,96.8,3.9483,0.36443,1.06,0.260,1.48
335.1,105.0,3.9474,0.3962,1.04,0.274,1.50
337.3,112.9,3.9479,0.42264,1.01,0.284,1.50
339.5,120.5,3.9489,0.44604,0.99,0.292,1.51
341.7,128.0,3.9482,0.46941,0.97,0.300,1.52
343.9,135.3,3.9476,0.48744,0.96,0.305,1.53
346.1,142.5,3.9474,0.50198,0.95,0.305,1.56
348.3,149.6,3.9479,0.51806,0.93,0.310,1.56
350.5,156.7,3.9472,0.53225,0.93,0.313,1.59
352.7,163.7,3.9473,0.54295,0.93,0.314,1.61
354.9,170.7,3.9487,0.55303,0.92,0.315,1.62
357.1,177.7,3.9473,0.55466,0.92,0.320,1.60
359.3,184.6,3.9462,0.55241,0.92,0.316,1.60
361.5,191.5,3.9473,0.55213,0.92,0.324,1.56
363.7,198.3,3.9459,0.54732,0.91,0.322,1.55
365.9,205.1,3.9473,0.5499,0.92,0.326,1.55
368.1,211.8,3.9473,0.55162,0.91,0.327,1.54
370.3,218.5,3.9472,0.55661,0.91,0.327,1.54
372.5,225.2,3.9473,0.56566,0.91,0.331,1.56
374.7,231.9,3.9467,0.57435,0.90,0.330,1.57
376.9,238.5,3.9473,0.58035,0.91,0.331,1.59
379.1,245.2,3.9473,0.59052,0.91,0.333,1.60
381.3,251.8,3.9472,0.59904,0.89,0.334,1.60
383.5,258.4,3.9450,0.60824,0.90,0.334,1.64
385.7,264.9,3.9460,0.62049,0.89,0.334,1.66
387.9,271.5,3.9459,0.62981,0.89,0.336,1.67
390.1,278.0,3.9456,0.64413,0.89,0.339,1.69
392.3,284.5,3.9463,0.65934,0.89,0.338,1.73
394.5,291.0,3.9450,0.67715,0.89,0.343,1.76
396.7,297.5,3.9459,0.69834,0.89,0.336,1.86
398.9,303.9,3.9460,0.71766,0.89,0.340,1.88
401.1,310.4,3.9460,0.73463,0.89,0.343,1.92
403.3,316.8,3.9433,0.74679,0.89,0.341,1.94
405.5,323.2,3.9446,0.75806,0.89,0.346,1.96
407.7,329.6,3.9447,0.76596,0.89,0.341,1.99
409.9,336.0,3.9433,0.77415,0.89,0.346,2.00
412.1,342.3,3.9444,0.7794,0.89,0.349,2.00
414.3,348.7,3.9433,0.78426,0.89,0.346,2.01
416.5,355.0,3.9407,0.79117,0.89,0.351,2.01
418.7,361.3,3.9396,0.79847,0.89,0.350,2.04
420.9,367.6,3.9404,0.80245,0.89,0.350,2.04
423.1,373.8,3.9407,0.80974,0.89,0.352,2.04
425.3,380.1,3.9381,0.8179,0.89,0.349,2.08
427.5,386.4,3.9381,0.82288,0.89,0.352,2.08
429.7,392.6,3.9373,0.82872,0.89,0.352,2.10
431.9,398.9,3.9368,0.83423,0.88,0.355,2.08
434.1,405.1,3.9341,0.84314,0.88,0.344,2.16
436.3,411.4,3.9351,0.85215,0.89,0.355,2.13
438.5,417.6,3.9338,0.86242,0.88,0.351,2.16
440.7,423.9,3.9325,0.87532,0.88,0.352,2.20
442.9,430.1,3.9298,0.88739,0.89,0.355,2.22
445.1,436.3,3.9285,0.90121,0.88,0.353,2.24
447.3,442.5,3.9261,0.91809,0.88,0.356,2.28
449.5,448.7,3.9232,0.93565,0.88,0.352,2.35
451.7,455.0,3.9207,0.94969,0.89,0.355,2.37
453.9,461.2,3.9194,0.9665,0.89,0.355,2.42
456.1,467.3,3.9152,0.98207,0.89,0.356,2.45
458.3,473.5,3.9127,0.99288,0.88,0.357,2.45
460.5,479.7,3.9077,1.00554,0.89,0.357,2.50
462.7,485.9,3.9044,1.01128,0.89,0.355,2.53
464.9,492.0,3.9000,1.0158,0.89,0.357,2.53
467.1,498.2,3.8935,1.01688,0.89,0.356,2.53
469.3,504.4,3.8906,1.01672,0.89,0.357,2.53
471.5,510.5,3.8846,1.01408,0.89,0.357,2.54
473.7,516.7,3.8804,1.00672,0.89,0.359,2.50
475.9,522.8,3.8783,0.99956,0.89,0.358,2.48
478.1,529.0,3.8729,0.99011,0.89,0.358,2.46
480.3,535.2,3.8678,0.98956,0.89,0.357,2.47
482.5,541.3,3.8640,0.9859,0.89,0.358,2.47
484.7,547.5,3.8595,0.98671,0.89,0.355,2.47
486.9,553.6,3.8570,0.98923,0.89,0.359,2.46
489.1,559.7,3.8526,0.99455,0.89,0.358,2.48
491.3,565.9,3.8483,1.00072,0.90,0.357,2.51
493.5,572.0,3.8457,1.00548,0.90,0.358,2.52
495.7,578.2,3.8396,1.0056,0.89,0.358,2.50
497.9,584.3,3.8366,1.00135,0.90,0.358,2.51
500.1,590.5,3.8330,0.99496,0.89,0.357,2.48
502.3,596.6,3.8298,0.98348,0.90,0.358,2.46
504.5,602.8,3.8272,0.96673,0.90,0.358,2.42
506.7,608.9,3.8239,0.95237,0.90,0.359,2.38
508.9,615.1,3.8224,0.94168,0.90,0.358,2.36
511.1,621.2,3.8219,0.93113,0.90,0.359,2.33
513.3,627.3,3.8220,0.92319,0.90,0.355,2.34
515.5,633.5,3.8204,0.92076,0.90,0.358,2.32
517.7,639.6,3.8183,0.91737,0.91,0.359,2.32
519.9,645.8,3.8183,0.91581,0.91,0.359,2.31
522.1,651.9,3.8170,0.91549,0.90,0.359,2.30
524.3,658.1,3.8156,0.91768,0.91,0.358,2.34
526.5,664.2,3.8156,0.92034,0.90,0.358,2.32
528.7,670.3,3.8153,0.92151,0.91,0.358,2.33
530.9,676.4,3.8140,0.92796,0.91,0.358,2.35
533.1,682.6,3.8114,0.9319,0.91,0.359,2.36
535.3,688.7,3.8114,0.93249,0.91,0.359,2.37
537.5,694.9,3.8101,0.93789,0.92,0.358,2.40
539.7,701.0,3.8087,0.94466,0.92,0.357,2.43
541.9,707.2,3.8061,0.95096,0.92,0.358,2.43
544.1,713.3,3.8048,0.95795,0.92,0.358,2.46
546.3,719.4,3.8033,0.96535,0.92,0.359,2.47
548.5,725.6,3.8020,0.97292,0.92,0.357,2.50
550.7,731.8,3.7994,0.98188,0.92,0.358,2.53
552.9,737.9,3.7981,0.992,0.92,0.358,2.54
555.1,744.1,3.7954,1.00163,0.92,0.357,2.58
557.3,750.2,3.7913,1.01187,0.92,0.357,2.61
559.5,756.4,3.7863,1.0241,0.93,0.357,2.66
561.7,762.5,3.7821,1.03852,0.93,0.356,2.71
563.9,768.7,3.7786,1.05384,0.93,0.358,2.73
566.1,774.9,3.7726,1.07187,0.93,0.359,2.77
568.3,781.0,3.7669,1.09477,0.94,0.357,2.87
570.5,787.2,3.7606,1.12084,0.93,0.356,2.93
572.7,793.3,3.7549,1.14037,0.93,0.358,2.98
574.9,799.6,3.7470,1.15483,0.93,0.352,3.05
577.1,805.7,3.7405,1.16758,0.94,0.358,3.07
579.3,811.9,3.7318,1.17605,0.94,0.356,3.10
581.5,818.1,3.7239,1.18657,0.95,0.358,3.14
583.7,824.3,3.7137,1.19805,0.94,0.355,3.17
585.9,830.5,3.7057,1.21131,0.94,0.357,3.19
588.1,836.6,3.6958,1.22663,0.94,0.361,3.20
590.3,842.8,3.6853,1.24587,0.95,0.350,3.39
592.5,849.0,3.6732,1.27203,0.95,0.358,3.37
594.7,855.2,3.6608,1.2993,0.95,0.355,3.47
596.9,861.4,3.6474,1.3391,0.95,0.354,3.60
599.1,867.6,3.6306,1.3868,0.96,0.353,3.75
601.3,873.8,3.6143,1.44172,0.96,0.355,3.89
603.5,880.0,3.5934,1.51122,0.96,0.353,4.09
605.7,886.2,3.5710,1.59356,0.96,0.357,4.29
607.9,892.4,3.5446,1.69756,0.96,0.356,4.58
610.1,898.6,3.5150,1.82395,0.96,0.353,4.96
612.3,904.9,3.4792,1.96255,0.97,0.353,5.39
614.5,911.1,3.4394,2.12052,0.96,0.350,5.82
616.7,917.4,3.3948,2.29705,0.97,0.348,6.39
618.9,923.7,3.3422,2.49443,0.97,0.352,6.90
621.1,930.0,3.2852,2.70482,0.97,0.350,7.49
623.3,936.2,3.2173,2.93959,0.97,0.349,8.16
625.5,942.5,3.1434,3.18687,0.97,0.351,8.84
627.7,948.8,3.0601,3.44598,0.98,0.348,9.71
629.9,955.1,2.9656,3.70638,0.98,0.350,10.43
632.1,961.5,2.8653,3.97315,0.98,0.347,11.22
634.3,967.8,2.7529,4.23043,0.98,0.348,11.94
636.5,974.1,2.6301,4.47779,0.99,0.347,12.82
638.7,980.5,2.5028,4.6981,0.99,0.347,13.41
640.9,986.8,2.3645,4.88189,0.99,0.347,13.92
643.1,993.2,2.2217,5.0271,1.00,0.347,14.41
645.3,999.5,2.0735,5.11526,1.00,0.346,14.80
647.5,1005.9,1.9196,5.17233,0.99,0.349,14.72
649.7,1012.2,1.7702,5.19177,1.00,0.347,14.91
651.9,1018.5,1.6162,5.16062,1.00,0.347,14.82
654.1,1024.8,1.4620,5.05609,1.00,0.350,14.47
656.3,1031.1,1.3161,4.88755,1.00,0.350,14.03
658.5,1037.4,1.1714,4.6596,1.01,0.350,13.43
660.7,1043.6,1.0334,4.37991,1.01,0.351,12.56
662.9,1049.9,0.9074,4.0657,1.01,0.353,11.62
665.1,1056.1,0.7855,3.73298,1.01,0.349,10.84
667.3,1062.3,0.6797,3.39284,1.01,0.355,9.66
669.5,1068.5,0.5813,3.04257,1.02,0.355,8.70
671.7,1074.7,0.4959,2.68492,1.01,0.355,7.68
673.9,1080.9,0.4189,2.34971,1.02,0.353,6.80
676.1,1087.1,0.3501,2.03287,1.02,0.355,5.86
678.3,1093.3,0.2943,1.74515,1.02,0.356,5.01
680.5,1099.5,0.2425,1.48134,1.04,0.355,4.34
682.7,1105.7,0.2021,1.2428,1.02,0.354,3.59
684.9,1111.9,0.1691,1.02811,1.03,0.355,2.98
687.1,1118.1,0.1397,0.84705,1.04,0.352,2.49
689.3,1124.4,0.1178,0.68823,1.03,0.353,2.02
691.5,1130.7,0.0983,0.55942,1.04,0.352,1.66
693.7,1136.9,0.0842,0.45191,1.04,0.352,1.34
695.9,1143.2,0.0729,0.36773,1.05,0.350,1.10
698.1,1149.4,0.0635,0.29643,1.05,0.350,0.89
700.3,1155.7,0.0571,0.24508,1.05,0.351,0.73
702.5,1162.0,0.0518,0.20201,1.05,0.347,0.61
704.7,1168.3,0.0474,0.16994,1.05,0.349,0.51
706.9,1174.6,0.0433,0.14189,1.05,0.348,0.43
709.1,1181.0,0.0413,0.12391,1.06,0.348,0.38
711.3,1187.3,0.0385,0.10874,1.06,0.346,0.33
713.5,1193.6,0.0369,9.89E-02,1.06,0.347,0.30
715.7,1200.0,0.0355,9.36E-02,1.07,0.350,0.29
717.9,1206.3,0.0340,9.63E-02,1.07,0.347,0.30
720.1,1212.7,0.0339,9.34E-02,1.07,0.347,0.29
722.3,1219.0,0.0339,7.71E-02,1.07,0.346,0.24
724.5,1225.4,0.0335,4.71E-02,1.07,0.345,0.15
726.7,1231.8,0.0352,2.67E-02,1.08,0.345,0.08
728.9,1238.1,0.0336,3.24E-02,1.07,0.346,0.10
731.1,1244.5,0.0326,5.90E-02,1.08,0.344,0.19
733.3,1250.9,0.0332,9.21E-02,1.08,0.345,0.29
735.5,1257.3,0.0332,0.11696,1.08,0.344,0.37
737.7,1263.7,0.0332,0.13569,1.08,0.344,0.43
739.9,1270.1,0.0332,0.14573,1.10,0.345,0.46
742.1,1276.5,0.0319,0.15173,1.09,0.343,0.48
744.3,1282.9,0.0319,0.15179,1.10,0.344,0.48
746.5,1289.3,0.0332,0.15672,1.10,0.342,0.50
748.7,1295.7,0.0339,0.1552,1.10,0.341,0.50
750.9,1302.1,0.0337,0.15389,1.10,0.342,0.50
753.1,1308.6,0.0313,0.15412,1.11,0.343,0.50
755.3,1315.0,0.0339,0.15438,1.11,0.341,0.50
757.5,1321.4,0.0335,0.15498,1.11,0.344,0.50
759.7,1327.9,0.0316,0.15524,1.12,0.340,0.51
761.9,1334.3,0.0329,0.15413,1.13,0.340,0.51
764.1,1340.8,0.0322,0.15847,1.11,0.342,0.52
766.3,1347.2,0.0323,0.155,1.12,0.342,0.51
768.5,1353.7,0.0309,0.15841,1.12,0.340,0.52
770.7,1360.1,0.0322,0.15818,1.13,0.342,0.52
772.9,1366.6,0.0326,0.16075,1.13,0.341,0.53
775.1,1373.0,0.0319,0.16191,1.13,0.342,0.54
777.3,1379.5,0.0319,0.16338,1.14,0.342,0.54
779.5,1385.9,0.0319,0.16381,1.13,0.339,0.55
781.7,1392.4,0.0315,0.16359,1.14,0.341,0.55
783.9,1398.8,0.0313,0.16476,1.14,0.341,0.55
786.1,1405.3,0.0313,0.16283,1.15,0.339,0.55
788.3,1411.8,0.0322,0.16624,1.15,0.340,0.56
790.5,1418.2,0.0322,0.16523,1.15,0.341,0.56
792.7,1424.7,0.0322,0.16929,1.16,0.338,0.58
794.9,1431.1,0.0322,0.16911,1.15,0.342,0.57
797.1,1437.6,0.0322,0.17224,1.16,0.339,0.59
799.3,1444.1,0.0322,0.17376,1.16,0.338,0.60
801.5,1450.6,0.0322,0.17636,1.17,0.341,0.61
803.7,1457.1,0.0323,0.17705,1.17,0.339,0.61
805.9,1463.5,0.0313,0.17943,1.17,0.342,0.62
808.1,1470.0,0.0326,0.17822,1.17,0.337,0.62
810.3,1476.5,0.0326,0.18099,1.18,0.340,0.63
812.5,1482.9,0.0336,0.18074,1.18,0.339,0.63
814.7,1489.4,0.0334,0.18531,1.19,0.339,0.65
816.9,1495.9,0.0322,0.18766,1.18,0.339,0.65
817.6,1498.0,0.0322,0.18583,1.18,0.342,0.64