Folder: matl-db/PMMA/Calibration_Data/FSRI (part 8)

File: FSRI_STA_N2_Sapphire_20K_1.csv
Temp,time,DSC,Heat Capacity,Heating Rate,Sensitivity
[K],[s],[uV/mg],[J/g/K],[K/s],[mW/uV]
321.9,0,1.71E-03,0.8233,0.0049,2.361
323.9,51,6.20E-02,0.827,0.1176,1.568
325.9,65,0.10663,0.8307,0.1706,1.329
327.9,75.7,0.14135,0.8343,0.205,1.21
329.9,84.8,0.16886,0.8379,0.2278,1.131
331.9,93.1,0.1923,0.8415,0.2497,1.093
333.9,100.9,0.21139,0.845,0.2641,1.056
335.9,108.3,0.22775,0.8485,0.2778,1.035
337.9,115.4,0.24133,0.852,0.2849,1.006
339.9,122.3,0.2531,0.8554,0.2921,0.987
341.9,129.1,0.26311,0.8588,0.2982,0.973
343.9,135.8,0.27102,0.8622,0.3008,0.957
345.9,142.4,0.27836,0.8655,0.3047,0.947
347.9,148.8,0.28439,0.8688,0.3072,0.938
349.9,155.3,0.28997,0.872,0.3121,0.939
351.9,161.8,0.29452,0.8752,0.313,0.93
353.9,168.1,0.29894,0.8784,0.3148,0.925
355.9,174.5,0.30252,0.8816,0.3151,0.918
357.9,180.8,0.30592,0.8847,0.3178,0.919
359.9,187.1,0.30888,0.8878,0.3202,0.92
361.9,193.3,0.31251,0.8908,0.3218,0.917
363.9,199.5,0.31524,0.8938,0.3205,0.909
365.9,205.7,0.31818,0.8968,0.3262,0.919
367.9,211.8,0.32095,0.8998,0.3278,0.919
369.9,218,0.32358,0.9027,0.3246,0.905
371.9,224.1,0.32663,0.9056,0.3294,0.913
373.9,230.2,0.32951,0.9085,0.3294,0.908
375.9,236.2,0.33262,0.9114,0.3304,0.905
377.9,242.3,0.33528,0.9142,0.331,0.903
379.9,248.3,0.33746,0.917,0.3323,0.903
381.9,254.3,0.34043,0.9197,0.332,0.897
383.9,260.3,0.3435,0.9224,0.332,0.892
385.9,266.3,0.34599,0.9251,0.3353,0.897
387.9,272.3,0.34873,0.9278,0.336,0.894
389.9,278.2,0.35067,0.9305,0.3388,0.899
391.9,284.1,0.35335,0.9331,0.3384,0.894
393.9,290.1,0.35583,0.9357,0.3412,0.897
395.9,295.9,0.35811,0.9383,0.3415,0.895
397.9,301.8,0.36001,0.9408,0.3412,0.892
399.9,307.7,0.36175,0.9433,0.3394,0.885
401.9,313.5,0.36364,0.9458,0.3444,0.896
403.9,319.4,0.36578,0.9483,0.3408,0.884
405.9,325.2,0.3675,0.9507,0.3461,0.895
407.9,331,0.36978,0.9531,0.3469,0.894
409.9,336.8,0.37182,0.9555,0.3469,0.891
411.9,342.5,0.37314,0.9579,0.3483,0.894
413.9,348.3,0.37528,0.9602,0.3465,0.887
415.9,354,0.37714,0.9626,0.3498,0.893
417.9,359.8,0.37845,0.9649,0.3505,0.894
419.9,365.5,0.38041,0.9671,0.3505,0.891
421.9,371.2,0.3818,0.9694,0.3479,0.883
423.9,376.9,0.38339,0.9716,0.3505,0.888
425.9,382.6,0.38436,0.9738,0.3505,0.888
427.9,388.3,0.38586,0.976,0.3531,0.893
429.9,394,0.38778,0.9782,0.3527,0.89
431.9,399.7,0.38933,0.9803,0.3512,0.884
433.9,405.4,0.39055,0.9825,0.3535,0.889
435.9,411,0.39212,0.9846,0.3527,0.886
437.9,416.7,0.39337,0.9867,0.3516,0.882
439.9,422.4,0.39471,0.9887,0.3535,0.885
441.9,428,0.39595,0.9908,0.3546,0.887
443.9,433.7,0.39739,0.9928,0.3546,0.886
445.9,439.4,0.39856,0.9948,0.3546,0.885
447.9,445,0.39951,0.9968,0.3531,0.881
449.9,450.7,0.40049,0.9987,0.358,0.893
451.9,456.3,0.40129,1.0007,0.3546,0.884
453.9,462,0.40194,1.0026,0.3557,0.887
455.9,467.6,0.40301,1.0045,0.3569,0.89
457.9,473.2,0.40341,1.0064,0.3546,0.885
459.9,478.8,0.40392,1.0083,0.355,0.886
461.9,484.4,0.40485,1.0101,0.3569,0.89
463.9,490.1,0.40516,1.012,0.3565,0.89
465.9,495.7,0.40637,1.0138,0.3542,0.884
467.9,501.3,0.40686,1.0156,0.3565,0.89
469.9,506.9,0.40734,1.0174,0.3557,0.889
471.9,512.5,0.40873,1.0192,0.3573,0.891
473.9,518.1,0.40886,1.0209,0.3569,0.891
475.9,523.7,0.40931,1.0227,0.3554,0.888
477.9,529.3,0.4102,1.0244,0.3561,0.889
479.9,534.9,0.41071,1.0261,0.3573,0.893
481.9,540.5,0.41214,1.0278,0.3573,0.891
483.9,546.1,0.41243,1.0294,0.3588,0.896
485.9,551.7,0.41276,1.0311,0.3619,0.904
487.9,557.3,0.41298,1.0327,0.3539,0.885
489.9,562.9,0.41404,1.0344,0.3569,0.892
491.9,568.5,0.4151,1.036,0.3577,0.893
493.9,574.1,0.41536,1.0376,0.3565,0.891
495.9,579.7,0.41594,1.0392,0.3569,0.892
497.9,585.3,0.41679,1.0407,0.3596,0.898
499.9,590.8,0.41715,1.0423,0.3588,0.897
501.9,596.4,0.41752,1.0438,0.3584,0.896
503.9,602,0.41806,1.0454,0.3577,0.894
505.9,607.6,0.41824,1.0469,0.3588,0.898
507.9,613.2,0.41883,1.0484,0.3623,0.907
509.9,618.7,0.41906,1.0499,0.3588,0.899
511.9,624.3,0.41896,1.0513,0.358,0.898
513.9,629.9,0.41902,1.0528,0.3577,0.899
515.9,635.5,0.41978,1.0543,0.358,0.899
517.9,641.1,0.41938,1.0557,0.3569,0.898
519.9,646.6,0.4199,1.0571,0.36,0.906
521.9,652.2,0.41929,1.0585,0.3577,0.903
523.9,657.8,0.41936,1.0599,0.358,0.905
525.9,663.4,0.42005,1.0613,0.3565,0.901
527.9,669,0.4196,1.0627,0.358,0.907
529.9,674.5,0.41991,1.0641,0.3592,0.91
531.9,680.1,0.41966,1.0654,0.3569,0.906
533.9,685.7,0.41922,1.0668,0.3588,0.913
535.9,691.3,0.41945,1.0681,0.3588,0.914
537.9,696.9,0.41931,1.0694,0.3565,0.909
539.9,702.4,0.41969,1.0707,0.3569,0.91
541.9,708,0.41925,1.072,0.358,0.916
543.9,713.6,0.41962,1.0733,0.3596,0.92
545.9,719.2,0.41938,1.0746,0.3592,0.92
547.9,724.7,0.41916,1.0759,0.3596,0.923
549.9,730.3,0.41891,1.0771,0.3577,0.92
551.9,735.9,0.41984,1.0784,0.358,0.92
553.9,741.5,0.41921,1.0796,0.3592,0.925
555.9,747.1,0.41894,1.0808,0.3584,0.925
557.9,752.7,0.41887,1.082,0.3565,0.921
559.9,758.3,0.41848,1.0832,0.36,0.932
561.9,763.9,0.41784,1.0844,0.358,0.929
563.9,769.5,0.41747,1.0856,0.3561,0.926
565.9,775.1,0.41748,1.0868,0.3557,0.926
567.9,780.7,0.4174,1.088,0.3592,0.936
569.9,786.3,0.41707,1.0891,0.3542,0.925
571.9,791.9,0.41684,1.0903,0.3569,0.933
573.9,797.5,0.41658,1.0914,0.3561,0.933
575.9,803.1,0.41609,1.0926,0.3554,0.933
577.9,808.7,0.41564,1.0937,0.3554,0.935
579.9,814.3,0.41555,1.0948,0.3565,0.939
581.9,819.9,0.41491,1.0959,0.3557,0.94
583.9,825.5,0.41492,1.097,0.355,0.939
585.9,831.1,0.41462,1.0981,0.3554,0.941
587.9,836.8,0.41374,1.0992,0.3554,0.944
589.9,842.4,0.41323,1.1003,0.3535,0.941
591.9,848,0.41329,1.1014,0.3557,0.948
593.9,853.6,0.41252,1.1024,0.3554,0.95
595.9,859.2,0.41242,1.1035,0.3557,0.952
597.9,864.9,0.41167,1.1045,0.3557,0.954
599.9,870.5,0.41123,1.1056,0.3546,0.953
601.9,876.1,0.41082,1.1066,0.355,0.956
603.9,881.8,0.40985,1.1076,0.3554,0.96
605.9,887.4,0.40926,1.1086,0.3542,0.96
607.9,893.1,0.40923,1.1096,0.3542,0.961
609.9,898.7,0.40857,1.1106,0.3542,0.963
611.9,904.4,0.40798,1.1116,0.3527,0.961
613.9,910,0.40754,1.1126,0.3546,0.968
615.9,915.6,0.40687,1.1136,0.3531,0.966
617.9,921.3,0.40637,1.1146,0.3535,0.97
619.9,926.9,0.40562,1.1156,0.3546,0.975
621.9,932.6,0.40543,1.1165,0.3554,0.979
623.9,938.3,0.40503,1.1175,0.355,0.979
625.9,943.9,0.40397,1.1184,0.3539,0.98
627.9,949.6,0.40319,1.1194,0.3527,0.979
629.9,955.3,0.40278,1.1203,0.3539,0.984
631.9,960.9,0.40229,1.1212,0.3539,0.986
633.9,966.6,0.40121,1.1222,0.352,0.984
635.9,972.3,0.401,1.1231,0.3524,0.987
637.9,977.9,0.40113,1.124,0.3531,0.989
639.9,983.6,0.4005,1.1249,0.3509,0.986
641.9,989.3,0.39962,1.1258,0.3509,0.988
643.9,995,0.39935,1.1267,0.3524,0.994
645.9,1000.6,0.3989,1.1276,0.3535,0.999
647.9,1006.3,0.39833,1.1285,0.3512,0.995
649.9,1012,0.39809,1.1293,0.3505,0.994
651.9,1017.7,0.39739,1.1302,0.3505,0.997
653.9,1023.4,0.39655,1.1311,0.3498,0.998
655.9,1029.1,0.39588,1.132,0.352,1.006
657.9,1034.8,0.39537,1.1328,0.3509,1.005
659.9,1040.5,0.39473,1.1337,0.3498,1.005
661.9,1046.2,0.39434,1.1345,0.3512,1.011
663.9,1051.9,0.39289,1.1354,0.3483,1.007
665.9,1057.6,0.39255,1.1362,0.3498,1.012
667.9,1063.4,0.39167,1.137,0.349,1.013
669.9,1069.1,0.39062,1.1378,0.3498,1.019
671.9,1074.8,0.38995,1.1387,0.3487,1.018
673.9,1080.5,0.3895,1.1395,0.3498,1.023
675.9,1086.3,0.38833,1.1403,0.349,1.025
677.9,1092,0.38778,1.1411,0.3479,1.024
679.9,1097.8,0.387,1.1419,0.3472,1.025
681.9,1103.5,0.38678,1.1427,0.3472,1.026
683.9,1109.3,0.38582,1.1435,0.3483,1.032
685.9,1115,0.38509,1.1443,0.3476,1.033
687.9,1120.8,0.38394,1.1451,0.3476,1.037
689.9,1126.5,0.38348,1.1459,0.3469,1.036
691.9,1132.3,0.38294,1.1466,0.3458,1.035
693.9,1138,0.38246,1.1474,0.3476,1.043
695.9,1143.8,0.38175,1.1482,0.3476,1.045
697.9,1149.6,0.38099,1.1489,0.3472,1.047
699.9,1155.3,0.38051,1.1497,0.3454,1.044
701.9,1161.1,0.37963,1.1505,0.3458,1.048
703.9,1166.9,0.37943,1.1512,0.3454,1.048
705.9,1172.6,0.37852,1.1519,0.3454,1.051
707.9,1178.4,0.37776,1.1527,0.3454,1.054
709.9,1184.2,0.37695,1.1534,0.3472,1.062
711.9,1190,0.37656,1.1542,0.3451,1.058
713.9,1195.8,0.37604,1.1549,0.3461,1.063
715.9,1201.5,0.37582,1.1556,0.3465,1.065
717.9,1207.3,0.37529,1.1563,0.3465,1.068
719.9,1213.1,0.37473,1.1571,0.3461,1.069
721.9,1218.9,0.37426,1.1578,0.3447,1.066
723.9,1224.7,0.37369,1.1585,0.3465,1.074
725.9,1230.4,0.37324,1.1592,0.3447,1.071
727.9,1236.2,0.37296,1.1599,0.3454,1.074
729.9,1242,0.3719,1.1606,0.3465,1.081
731.9,1247.8,0.37143,1.1613,0.3458,1.081
733.9,1253.6,0.37008,1.162,0.3444,1.081
735.9,1259.4,0.36948,1.1627,0.3444,1.084
737.9,1265.2,0.36784,1.1634,0.3447,1.09
739.9,1271.1,0.36735,1.164,0.3461,1.097
741.9,1276.9,0.36613,1.1647,0.3426,1.09
743.9,1282.7,0.36515,1.1654,0.3426,1.093
745.9,1288.5,0.36457,1.1661,0.3444,1.101
747.9,1294.4,0.36363,1.1667,0.3426,1.099
749.9,1300.2,0.36336,1.1674,0.3426,1.101
751.9,1306,0.36295,1.1681,0.3408,1.097
753.9,1311.8,0.36194,1.1687,0.3433,1.108
755.9,1317.7,0.36133,1.1694,0.344,1.113
757.9,1323.5,0.36027,1.17,0.344,1.117
759.9,1329.4,0.35977,1.1707,0.3426,1.115
761.9,1335.2,0.35868,1.1713,0.3454,1.128
763.9,1341,0.35832,1.172,0.3412,1.116
765.9,1346.9,0.35714,1.1726,0.3405,1.118
767.9,1352.8,0.35673,1.1732,0.3401,1.119
769.9,1358.6,0.35618,1.1739,0.3401,1.121
771.9,1364.5,0.3555,1.1745,0.3415,1.128
773.9,1370.3,0.35456,1.1751,0.3391,1.124
775.9,1376.2,0.35409,1.1757,0.3405,1.131
777.9,1382,0.35377,1.1764,0.3408,1.133
779.9,1387.9,0.35299,1.177,0.344,1.147
781.9,1393.7,0.35219,1.1776,0.3394,1.135
783.9,1399.6,0.35129,1.1782,0.3405,1.142
785.9,1405.5,0.35105,1.1788,0.3412,1.146
787.9,1411.3,0.35041,1.1794,0.3405,1.146
789.9,1417.2,0.34907,1.18,0.3401,1.15
791.9,1423.1,0.34847,1.1806,0.3429,1.162
793.9,1428.9,0.34814,1.1812,0.3412,1.158
795.9,1434.8,0.34749,1.1818,0.3394,1.154
797.9,1440.7,0.3466,1.1824,0.3412,1.164
799.9,1446.6,0.34558,1.183,0.3412,1.168
801.9,1452.4,0.34484,1.1836,0.3391,1.164
803.9,1458.3,0.34415,1.1842,0.3388,1.166
805.9,1464.2,0.34317,1.1847,0.3398,1.173
807.9,1470.1,0.34261,1.1853,0.336,1.163
809.9,1476,0.34124,1.1859,0.3401,1.182
811.9,1481.9,0.34102,1.1865,0.3391,1.18
813.9,1487.8,0.33989,1.187,0.3391,1.184
815.9,1493.7,0.33942,1.1876,0.3388,1.185
817.8,1499.3,0.33834,1.1881,0.332,1.166

File: FSRI_TGA_N2_3K_1.csv
Temp,time,mass
[K],[s],[mg]
323.5,31.6,3.9819
325.5,110.2,3.9818
327.5,158.3,3.9832
329.5,203.4,3.9811
331.5,246.8,3.9811
333.5,289.2,3.9812
335.5,330.6,3.9812
337.5,371.9,3.9815
339.5,413,3.9809
341.5,453.9,3.9806
343.5,494.3,3.9816
345.5,534.6,3.9815
347.5,574.8,3.9812
349.5,615.2,3.9799
351.5,655.4,3.9786
353.5,695.7,3.98
355.5,736,3.9782
357.5,776.7,3.9776
359.5,816.7,3.979
361.5,856.5,3.9776
363.5,896.8,3.9756
365.5,936.9,3.9763
367.5,976.9,3.9766
369.5,1016.7,3.9756
371.5,1056.5,3.9769
373.5,1096,3.9759
375.5,1135.7,3.9772
377.5,1175.4,3.9744
379.5,1215.4,3.9753
381.5,1254.9,3.9727
383.5,1294.2,3.9749
385.5,1333.8,3.9744
387.5,1373.5,3.9724
389.5,1413.2,3.9724
391.5,1452.8,3.9717
393.5,1492.5,3.971
395.5,1532.6,3.97
397.5,1572.5,3.9696
399.5,1612,3.9694
401.5,1651.3,3.9681
403.5,1690.5,3.9674
405.5,1729.9,3.9661
407.5,1769.4,3.9661
409.5,1808.8,3.9641
411.5,1848.4,3.9644
413.5,1887.8,3.9631
415.5,1927.1,3.9608
417.5,1966.6,3.9598
419.5,2005.8,3.9572
421.5,2045,3.9552
423.5,2084.1,3.9545
425.5,2123.3,3.9519
427.5,2162.4,3.9507
429.5,2201.7,3.9481
431.5,2241,3.9455
433.5,2280.2,3.9425
435.5,2319.4,3.9399
437.5,2358.7,3.9363
439.5,2398,3.9346
441.5,2437.2,3.932
443.5,2476.3,3.9267
445.5,2515.3,3.9228
447.5,2554.3,3.9188
449.5,2593.3,3.9145
451.5,2632.5,3.9089
453.5,2671.6,3.9041
455.5,2711,3.9004
457.5,2750.5,3.8959
459.5,2789.7,3.8926
461.5,2828.7,3.8886
463.5,2867.7,3.8834
465.5,2906.8,3.881
467.5,2946,3.8787
469.5,2985.5,3.8744
471.5,3025,3.8721
473.5,3064.1,3.8688
475.5,3102.5,3.87
477.5,3141.2,3.8675
479.5,3179.6,3.8667
481.5,3217.9,3.8642
483.5,3256.6,3.8632
485.5,3295.9,3.8625
487.5,3335,3.8612
489.5,3374.3,3.8599
491.5,3413.3,3.8581
493.5,3452.3,3.8586
495.5,3491.3,3.8572
497.5,3530.4,3.8581
499.5,3569.5,3.8556
501.5,3608.5,3.8556
503.5,3647.4,3.8542
505.5,3686.3,3.8519
507.5,3725,3.8536
509.5,3763.9,3.8523
511.5,3803.3,3.849
513.5,3842.5,3.8477
515.5,3881.6,3.8464
517.5,3920.5,3.8451
519.5,3959.4,3.8428
521.5,3998.2,3.8398
523.5,4037.2,3.8372
525.5,4076.2,3.8343
527.5,4115.2,3.8293
529.5,4154,3.8257
531.5,4192.9,3.8205
533.5,4232,3.8174
535.5,4271,3.8122
537.5,4309.8,3.8063
539.5,4348.6,3.8016
541.5,4387.7,3.7947
543.5,4426.5,3.7896
545.5,4465.8,3.7813
547.5,4504.8,3.7747
549.5,4543.8,3.7668
551.5,4582.8,3.7587
553.5,4621.7,3.7486
555.5,4660.5,3.7387
557.5,4699.7,3.7299
559.5,4738.9,3.7202
561.5,4778,3.7101
563.5,4817.1,3.6982
565.5,4856.1,3.6876
567.5,4895.2,3.6756
569.5,4934.3,3.6622
571.5,4973.2,3.6482
573.5,5012.3,3.6323
575.5,5051.6,3.6136
577.5,5090.5,3.5934
579.5,5129.5,3.5728
581.5,5168.7,3.5483
583.5,5208.3,3.5226
585.5,5247.3,3.493
587.5,5286.1,3.4607
589.5,5325.3,3.4232
591.5,5364.8,3.3802
593.5,5404.3,3.3317
595.5,5443.5,3.2779
597.5,5482.6,3.2181
599.5,5521.6,3.149
601.5,5560.8,3.0749
603.5,5600,2.9874
605.5,5639.6,2.893
607.5,5679.1,2.7885
609.5,5718.5,2.6758
611.5,5757.9,2.5559
613.5,5797.3,2.4269
615.5,5836.8,2.2909
617.5,5876.2,2.1505
619.5,5915.7,2.0066
621.5,5955.1,1.8604
623.5,5994.3,1.7175
625.5,6033.6,1.5728
627.5,6073,1.433
629.5,6112,1.2981
631.5,6151,1.1633
633.5,6190.1,1.037
635.5,6229.4,0.9166
637.5,6268.7,0.8031
639.5,6308.1,0.7007
641.5,6347.6,0.6043
643.5,6387,0.5203
645.5,6426.1,0.4457
647.5,6465.1,0.3778
649.5,6504.3,0.3199
651.5,6543.7,0.2691
653.5,6583.3,0.2235
655.5,6622.8,0.1873
657.5,6662.2,0.1528
659.5,6701.2,0.1275
661.5,6740.5,0.1053
663.5,6780.2,0.0856
665.5,6819.6,0.0712
667.5,6859.1,0.0584
669.5,6898.5,0.0492
671.5,6938,0.0406
673.5,6977.6,0.034
675.5,7017.1,0.0268
677.5,7056.4,0.0229
679.5,7095.7,0.0196
681.5,7135.1,0.0169
683.5,7174.8,0.0146
685.5,7214.5,0.0133
687.5,7254.1,0.012
689.5,7294,0.0113
691.5,7333.7,0.0113
693.5,7373.3,0.0107
695.5,7413.2,0.0097
697.5,7453,0.0113
699.5,7492.6,0.0114
701.5,7532,0.0107
703.5,7571.4,0.0107
705.5,7611.2,0.0106
707.5,7651.3,0.0087
709.5,7691,0.0094
711.5,7730.6,0.0094
713.5,7770.4,0.0107
715.5,7810.1,0.011
717.5,7849.7,0.011
719.5,7889.5,0.0107
721.5,7929.3,0.0094
723.5,7968.9,0.0104
725.5,8008.9,0.008
727.5,8049,0.0097
729.5,8088.6,0.0094
731.5,8128,0.0081
733.5,8167.6,0.0082
735.5,8207.7,0.0081
737.5,8247.8,0.0087
739.5,8287.8,0.0086
741.5,8327.9,0.009
743.5,8367.9,0.0091
745.5,8407.5,0.0085
747.5,8447,0.009
749.5,8486.8,0.0084
751.5,8526.8,0.0074
753.5,8566.6,0.0084
755.5,8606.6,0.0057
757.5,8646.2,0.0072
759.5,8686.2,0.0078
761.5,8726,0.0061
763.5,8765.9,0.0068
765.5,8805.8,0.006
767.5,8846,0.0054
769.5,8886,0.0061
771.5,8925.7,0.0061
773.5,8965.8,0.0058
775.5,9006.1,0.0061
777.5,9046,0.0061
779.5,9085.6,0.0061
781.5,9125.3,0.0057
783.5,9165.3,0.0044
785.5,9205.5,0.0046
787.5,9245.7,0.0051
789.5,9285.8,0.0054
791.5,9325.5,0.0042
793.5,9365.4,0.0057
795.5,9405.6,0.0057
797.5,9445.7,0.0048
799.5,9485.9,0.0051
801.5,9526,0.0041
803.5,9565.9,0.0051
805.5,9605.9,0.0051
807.5,9645.9,0.0051
809.5,9686.1,0.0048
811.5,9726.4,0.007
813.5,9766.5,0.0041
815.5,9806.8,0.0051
817.5,9846.9,0.0058
819.5,9887,0.0038
821.5,9926.8,0.0034
823.5,9966.7,0.0031
825,9996.8,0.0031

File: FSRI_TGA_N2_10K_1.csv
Temp,time,mass
[K],[s],[mg]
323,28.4,3.9791
325,67.3,3.9813
327,87.3,3.9798
329,103.7,3.9797
331,118.6,3.9784
333,132.7,3.9803
335,146.2,3.9803
337,159.7,3.9777
339,172.8,3.9803
341,185.8,3.9804
343,198.7,3.9789
345,211.5,3.979
347,224.2,3.979
349,236.8,3.9803
351,249.3,3.9777
353,261.7,3.9803
355,274,3.9792
357,286.3,3.979
359,298.5,3.98
361,310.7,3.9776
363,322.7,3.979
365,334.7,3.9767
367,346.7,3.9791
369,358.6,3.9777
371,370.5,3.979
373,382.4,3.9787
375,394.2,3.979
377,406,3.979
379,417.8,3.9765
381,429.5,3.9784
383,441.3,3.9766
385,453,3.9752
387,464.7,3.9766
389,476.4,3.9766
391,488.2,3.9766
393,499.9,3.9753
395,511.6,3.9753
397,523.2,3.9756
399,534.9,3.9759
401,546.6,3.9753
403,558.2,3.9739
405,569.9,3.973
407,581.4,3.9726
409,593.2,3.971
411,604.7,3.9713
413,616.4,3.9713
415,628,3.9723
417,639.6,3.971
419,651.2,3.9685
421,662.8,3.9698
423,674.3,3.9685
425,685.9,3.9679
427,697.4,3.9671
429,708.9,3.9658
431,720.5,3.9657
433,732,3.9629
435,743.6,3.9609
437,755.1,3.9584
439,766.6,3.9597
441,778.2,3.9554
443,789.7,3.9543
445,801.2,3.9514
447,812.7,3.9491
449,824.3,3.9469
451,835.8,3.9433
453,847.3,3.9408
455,858.8,3.9393
457,870.3,3.9336
459,881.8,3.9311
461,893.3,3.9251
463,904.7,3.9212
465,916.2,3.9172
467,927.7,3.9134
469,939.2,3.9092
471,950.7,3.9053
473,962.2,3.9013
475,973.6,3.8985
477,985.1,3.8941
479,996.6,3.8901
481,1008.1,3.8868
483,1019.6,3.8827
485,1031.1,3.879
487,1042.5,3.8724
489,1054,3.8701
491,1065.4,3.8674
493,1076.9,3.8651
495,1088.3,3.8638
497,1099.8,3.8612
499,1111.2,3.8586
501,1122.6,3.8582
503,1134,3.8582
505,1145.5,3.8559
507,1156.9,3.8556
509,1168.4,3.8559
511,1179.9,3.8559
513,1191.3,3.853
515,1202.8,3.852
517,1214.2,3.8507
519,1225.7,3.8494
521,1237.2,3.8494
523,1248.6,3.8487
525,1260.1,3.849
527,1271.5,3.8451
529,1282.9,3.8431
531,1294.4,3.8431
533,1305.9,3.8418
535,1317.3,3.8404
537,1328.8,3.8392
539,1340.3,3.8338
541,1351.8,3.8325
543,1363.3,3.8298
545,1374.7,3.8285
547,1386.3,3.8232
549,1397.7,3.8176
551,1409.2,3.8151
553,1420.7,3.8095
555,1432.1,3.8057
557,1443.6,3.8004
559,1455.2,3.7947
561,1466.7,3.7866
563,1478.2,3.7798
565,1489.7,3.7728
567,1501.2,3.7669
569,1512.7,3.7586
571,1524.2,3.7497
573,1535.7,3.7423
575,1547.3,3.7309
577,1558.8,3.7217
579,1570.3,3.7098
581,1581.8,3.6991
583,1593.3,3.6872
585,1604.7,3.6717
587,1616.2,3.6613
589,1627.7,3.6459
591,1639.2,3.6294
593,1650.8,3.6085
595,1662.4,3.5884
597,1674,3.5616
599,1685.6,3.5365
601,1697.2,3.5057
603,1708.9,3.4703
605,1720.5,3.4312
607,1732.2,3.3871
609,1743.9,3.3374
611,1755.5,3.2819
613,1767.2,3.2174
615,1779,3.15
617,1790.6,3.0712
619,1802.3,2.9868
621,1814.1,2.8933
623,1825.9,2.7933
625,1837.7,2.684
627,1849.5,2.5677
629,1861.2,2.4418
631,1872.9,2.3116
633,1884.7,2.1773
635,1896.4,2.0361
637,1908.2,1.8986
639,1919.9,1.7559
641,1931.6,1.6163
643,1943.3,1.4806
645,1954.9,1.346
647,1966.6,1.213
649,1978.2,1.0855
651,1989.8,0.9689
653,2001.4,0.8576
655,2013,0.7555
657,2024.6,0.6609
659,2036.2,0.5714
661,2047.7,0.4948
663,2059.2,0.4242
665,2070.8,0.3642
667,2082.4,0.31
669,2094.1,0.2636
671,2105.7,0.2238
673,2117.3,0.1926
675,2128.9,0.1619
677,2140.6,0.1371
679,2152.2,0.1211
681,2163.9,0.1049
683,2175.6,0.0919
685,2187.2,0.0801
687,2198.8,0.0722
689,2210.5,0.0654
691,2222.2,0.0599
693,2233.9,0.056
695,2245.6,0.053
697,2257.3,0.0488
699,2269.2,0.0481
701,2281,0.0456
703,2292.8,0.0454
705,2304.6,0.0441
707,2316.5,0.0428
709,2328.4,0.0429
711,2340.2,0.0454
713,2352.1,0.0421
715,2363.9,0.0421
717,2375.8,0.0427
719,2387.6,0.0418
721,2399.5,0.0395
723,2411.3,0.0415
725,2423.1,0.0415
727,2434.9,0.0428
729,2446.7,0.0415
731,2458.6,0.0415
733,2470.4,0.0405
735,2482.2,0.0425
737,2494.1,0.0425
739,2505.9,0.0404
741,2517.7,0.0406
743,2529.5,0.0421
745,2541.4,0.0408
747,2553.2,0.0395
749,2565,0.0385
751,2576.8,0.0424
753,2588.7,0.0412
755,2600.5,0.0405
757,2612.3,0.0398
759,2624.1,0.0398
761,2635.9,0.0398
763,2647.8,0.0412
765,2659.7,0.0402
767,2671.6,0.0379
769,2683.5,0.0403
771,2695.3,0.0414
773,2707.2,0.0402
775,2719.1,0.0389
777,2731.1,0.0365
779,2743,0.0379
781,2754.9,0.0392
783,2766.8,0.0405
785,2778.7,0.0397
787,2790.7,0.0379
789,2802.6,0.0395
791,2814.5,0.0395
793,2826.3,0.0395
795,2838.2,0.0395
797,2850.1,0.0395
799,2862.1,0.0395
801,2873.9,0.0382
803,2885.8,0.0386
805,2897.7,0.0392
807,2909.6,0.0382
809,2921.5,0.0408
811,2933.4,0.0388
813,2945.4,0.0402
815,2957.3,0.0375
817,2969.3,0.0385
819,2981.4,0.0385
821,2993.4,0.0385
822,2999.4,0.0372

File: FSRI_TGA_N2_10K_2.csv
Temp,time,TGA
[K],[s],[mg]
323,0,3.9537
325,65.2,3.9518
327,85.6,3.9526
329,102.2,3.9524
331,117.3,3.9537
333,131.5,3.9508
335,145.1,3.9505
337,158.5,3.9514
339,171.7,3.9497
341,184.7,3.9524
343,197.7,3.9511
345,210.4,3.951
347,223.1,3.9499
349,235.7,3.9503
351,248.3,3.9495
353,260.7,3.9489
355,273,3.9482
357,285.3,3.9482
359,297.5,3.9482
361,309.6,3.9482
363,321.7,3.9482
365,333.7,3.9482
367,345.7,3.9482
369,357.6,3.9466
371,369.6,3.9469
373,381.5,3.9469
375,393.3,3.946
377,405.2,3.9456
379,417,3.9442
381,428.8,3.9452
383,440.5,3.9443
385,452.3,3.9455
387,464.1,3.9442
389,475.8,3.9442
391,487.6,3.9442
393,499.3,3.9429
395,511,3.9442
397,522.7,3.9429
399,534.3,3.9429
401,546,3.9429
403,557.7,3.9406
405,569.3,3.9416
407,581,3.942
409,592.6,3.9391
411,604.2,3.939
413,615.8,3.937
415,627.4,3.937
417,638.9,3.937
419,650.5,3.936
421,662,3.9354
423,673.6,3.934
425,685.1,3.9327
427,696.7,3.9317
429,708.2,3.9314
431,719.8,3.9291
433,731.3,3.9278
435,742.9,3.9278
437,754.4,3.9256
439,766,3.9238
441,777.5,3.9199
443,789,3.9196
445,800.5,3.9169
447,812,3.9143
449,823.6,3.9117
451,835.1,3.9082
453,846.6,3.9038
455,858.1,3.8998
457,869.6,3.8955
459,881.1,3.8911
461,892.6,3.8865
463,904.1,3.8812
465,915.7,3.8765
467,927.2,3.8712
469,938.7,3.8672
471,950.2,3.8638
473,961.7,3.8594
475,973.2,3.8551
477,984.7,3.8521
479,996.2,3.8488
481,1007.6,3.8463
483,1019.1,3.8385
485,1030.6,3.836
487,1042.1,3.8334
489,1053.6,3.8314
491,1065,3.8287
493,1076.5,3.8261
495,1087.9,3.8235
497,1099.4,3.8208
499,1110.8,3.8198
501,1122.3,3.8208
503,1133.7,3.8195
505,1145.2,3.8185
507,1156.6,3.8169
509,1168.1,3.8172
511,1179.6,3.8172
513,1191.1,3.8159
515,1202.6,3.8133
517,1214.1,3.8126
519,1225.6,3.8133
521,1237,3.812
523,1248.5,3.8093
525,1260,3.8093
527,1271.5,3.8067
529,1282.9,3.8067
531,1294.4,3.8054
533,1305.8,3.8041
535,1317.2,3.8026
537,1328.7,3.8001
539,1340.1,3.7975
541,1351.6,3.7947
543,1363.1,3.7922
545,1374.5,3.7897
547,1386,3.7853
549,1397.5,3.7826
551,1409,3.7759
553,1420.6,3.7727
555,1432.1,3.767
557,1443.6,3.7624
559,1455.1,3.7568
561,1466.7,3.7489
563,1478.2,3.7427
565,1489.7,3.7354
567,1501.1,3.7268
569,1512.7,3.7179
571,1524.2,3.7111
573,1535.7,3.7018
575,1547.3,3.6935
577,1558.8,3.6822
579,1570.3,3.6731
581,1581.8,3.6604
583,1593.3,3.6509
585,1604.8,3.6376
587,1616.4,3.6263
589,1628.1,3.6086
591,1639.6,3.5908
593,1651.2,3.5731
595,1662.8,3.5519
597,1674.4,3.528
599,1686,3.5016
601,1697.6,3.4707
603,1709.2,3.4379
605,1720.9,3.3985
607,1732.5,3.3542
609,1744.1,3.3024
611,1755.7,3.2479
613,1767.4,3.1854
615,1779.1,3.1146
617,1790.8,3.0367
619,1802.5,2.9493
621,1814.3,2.8529
623,1826,2.7498
625,1837.8,2.6391
627,1849.5,2.5198
629,1861.2,2.3949
631,1873,2.2612
633,1884.7,2.1225
635,1896.4,1.9798
637,1908.1,1.8369
639,1919.8,1.6933
641,1931.5,1.5476
643,1943.1,1.4063
645,1954.8,1.2678
647,1966.4,1.1326
649,1978,1.0007
651,1989.6,0.8783
653,2001.1,0.7607
655,2012.7,0.654
657,2024.3,0.5565
659,2035.8,0.4653
661,2047.4,0.3844
663,2058.9,0.3114
665,2070.5,0.2483
667,2082.1,0.1936
669,2093.6,0.1468
671,2105.2,0.1043
673,2116.9,0.0672
675,2128.5,0.0374
677,2140.1,0.0138
679,2151.8,-0.0065
681,2163.4,-0.023
683,2175.1,-0.0365
685,2186.8,-0.0451
687,2198.5,-0.0559
689,2210.2,-0.0649
691,2221.9,-0.0701
693,2233.7,-0.0749
695,2245.4,-0.0784
697,2257.1,-0.0819
699,2268.9,-0.085
701,2280.6,-0.085
703,2292.4,-0.0886
705,2304.1,-0.0902
707,2315.9,-0.0929
709,2327.7,-0.0915
711,2339.4,-0.0909
713,2351.2,-0.0909
715,2363,-0.0922
717,2374.9,-0.0935
719,2386.7,-0.0929
721,2398.5,-0.0932
723,2410.3,-0.0928
725,2422.1,-0.0929
727,2434,-0.0929
729,2445.8,-0.092
731,2457.6,-0.0909
733,2469.4,-0.0909
735,2481.3,-0.0932
737,2493.1,-0.0929
739,2504.9,-0.0926
741,2516.8,-0.0939
743,2528.7,-0.0929
745,2540.6,-0.0932
747,2552.4,-0.0932
749,2564.2,-0.0925
751,2576.1,-0.0911
753,2587.9,-0.0925
755,2599.8,-0.0912
757,2611.6,-0.0935
759,2623.5,-0.0935
761,2635.3,-0.0922
763,2647.2,-0.0942
765,2659,-0.0942
767,2670.9,-0.0915
769,2682.8,-0.0915
771,2694.6,-0.0922
773,2706.4,-0.0922
775,2718.3,-0.0908
777,2730.2,-0.0909
779,2742.1,-0.0935
781,2754,-0.0922
783,2765.9,-0.0922
785,2777.8,-0.0922
787,2789.7,-0.0928
789,2801.6,-0.0922
791,2813.6,-0.0935
793,2825.5,-0.0935
795,2837.4,-0.0922
797,2849.3,-0.0912
799,2861.3,-0.0916
801,2873.2,-0.0932
803,2885.1,-0.0925
805,2897.1,-0.0925
807,2909,-0.0925
809,2920.9,-0.0925
811,2932.9,-0.0915
813,2944.9,-0.0942
815,2956.8,-0.0922
817,2968.8,-0.0915
819,2980.8,-0.0915
821,2992.7,-0.0929
822,2998.7,-0.0929