Folder: matl-db/PMMA/Calibration_Data/FSRI (part 2)

File: FSRI_DSC_N2_20K_1.csv
Temp,time,Heat Flow Rate
[K],[s],[mW/mg]
322.5,31.2,0.04848
324.5,54.4,0.18048
326.5,67.3,0.25597
328.5,77.5,0.30952
330.5,86.4,0.34128
332.5,94.5,0.3723
334.5,102.1,0.39837
336.5,109.4,0.4172
338.5,116.4,0.4321
340.5,123.2,0.44545
342.5,129.9,0.44998
344.5,136.5,0.4636
346.5,143,0.47895
348.5,149.5,0.47894
350.5,155.9,0.4898
352.5,162.3,0.49926
354.5,168.6,0.50876
356.5,174.9,0.51198
358.5,181.2,0.50402
360.5,187.4,0.50711
362.5,193.7,0.50065
364.5,199.8,0.50204
366.5,206,0.50868
368.5,212.1,0.50666
370.5,218.2,0.50358
372.5,224.3,0.5148
374.5,230.4,0.5181
376.5,236.4,0.52614
378.5,242.4,0.5296
380.5,248.5,0.53106
382.5,254.4,0.54108
384.5,260.4,0.54442
386.5,266.4,0.55268
388.5,272.4,0.56108
390.5,278.3,0.56784
392.5,284.3,0.58647
394.5,290.2,0.59664
396.5,296.1,0.612
398.5,302,0.63085
400.5,307.8,0.64108
402.5,313.7,0.65472
404.5,319.5,0.66542
406.5,325.4,0.67424
408.5,331.2,0.67374
410.5,337,0.68456
412.5,342.7,0.692
414.5,348.5,0.694
416.5,354.2,0.70296
418.5,360,0.70658
420.5,365.8,0.70953
422.5,371.5,0.714
424.5,377.2,0.71955
426.5,382.9,0.7216
428.5,388.6,0.73359
430.5,394.3,0.73216
432.5,400,0.74483
434.5,405.7,0.74483
436.5,411.4,0.75114
438.5,417.1,0.75816
440.5,422.7,0.77307
442.5,428.4,0.7788
444.5,434.1,0.79552
446.5,439.8,0.79778
448.5,445.5,0.8142
450.5,451.2,0.8307
452.5,456.8,0.83544
454.5,462.5,0.85536
456.5,468.1,0.8673
458.5,473.8,0.87792
460.5,479.4,0.885
462.5,485.1,0.89105
464.5,490.7,0.91392
466.5,496.3,0.89607
468.5,501.9,0.90321
470.5,507.5,0.90068
472.5,513.1,0.90216
474.5,518.7,0.89391
476.5,524.3,0.89607
478.5,529.9,0.88536
480.5,535.5,0.8875
482.5,541.1,0.88893
484.5,546.7,0.8856
486.5,552.3,0.88673
488.5,557.9,0.89167
490.5,563.4,0.89607
492.5,569,0.90321
494.5,574.6,0.91235
496.5,580.2,0.90216
498.5,585.8,0.90321
500.5,591.4,0.8928
502.5,597,0.8856
504.5,602.6,0.86975
506.5,608.1,0.8568
508.5,613.7,0.84609
510.5,619.3,0.8316
512.5,624.9,0.8388
514.5,630.4,0.83391
516.5,636,0.82669
518.5,641.6,0.828
520.5,647.2,0.83056
522.5,652.7,0.82824
524.5,658.3,0.83288
526.5,663.9,0.83181
528.5,669.5,0.83772
530.5,675.1,0.84365
532.5,680.6,0.8413
534.5,686.2,0.85562
536.5,691.8,0.8532
538.5,697.4,0.8604
540.5,703,0.86994
542.5,708.5,0.87237
544.5,714.1,0.882
546.5,719.7,0.8856
548.5,725.3,0.89032
550.5,730.9,0.90468
552.5,736.5,0.91186
554.5,742.1,0.9252
556.5,747.7,0.93534
558.5,753.3,0.94605
560.5,758.9,0.96476
562.5,764.5,0.96205
564.5,770.1,0.99603
566.5,775.7,1.0146
568.5,781.3,1.04308
570.5,786.9,1.0561
572.5,792.5,1.08528
574.5,798.1,1.09548
576.5,803.7,1.11428
578.5,809.3,1.11825
580.5,814.9,1.13666
582.5,820.6,1.14954
584.5,826.2,1.15344
586.5,831.8,1.16739
588.5,837.4,1.1857
590.5,843.1,1.20684
592.5,848.7,1.2283
594.5,854.3,1.25668
596.5,859.9,1.29564
598.5,865.6,1.33835
600.5,871.2,1.39122
602.5,876.9,1.44024
604.5,882.5,1.51866
606.5,888.2,1.60262
608.5,893.8,1.70146
610.5,899.5,1.82148
612.5,905.1,1.94895
614.5,910.8,2.0709
616.5,916.5,2.2352
618.5,922.2,2.4185
620.5,927.9,2.59038
622.5,933.6,2.79747
624.5,939.3,3.00256
626.5,945,3.25486
628.5,950.8,3.486
630.5,956.5,3.73404
632.5,962.2,3.96274
634.5,968,4.21547
636.5,973.8,4.47465
638.5,979.6,4.66408
640.5,985.3,4.84759
642.5,991.1,4.9611
644.5,996.9,5.06748
646.5,1002.6,5.17128
648.5,1008.4,5.14948
650.5,1014.1,5.19912
652.5,1019.9,5.15822
654.5,1025.6,5.09652
656.5,1031.4,4.97024
658.5,1037.1,4.7915
660.5,1042.8,4.53252
662.5,1048.5,4.22988
664.5,1054.2,3.93536
666.5,1059.8,3.63264
668.5,1065.5,3.31584
670.5,1071.1,2.9744
672.5,1076.8,2.64475
674.5,1082.4,2.33536
676.5,1088,2.06703
678.5,1093.7,1.79275
680.5,1099.3,1.56468
682.5,1105,1.32042
684.5,1110.6,1.1147
686.5,1116.2,0.9372
688.5,1121.9,0.7832
690.5,1127.5,0.6512
692.5,1133.2,0.53352
694.5,1138.9,0.44478
696.5,1144.6,0.36296
698.5,1150.3,0.30276
700.5,1156.1,0.25128
702.5,1161.8,0.2094
704.5,1167.5,0.17799
706.5,1173.3,0.15356
708.5,1179,0.13572
710.5,1184.8,0.11168
712.5,1190.5,0.10121
714.5,1196.3,0.09396
716.5,1202,0.09369
718.5,1207.8,0.09716
720.5,1213.6,0.09688
722.5,1219.4,0.0897
724.5,1225.2,0.0688
726.5,1231,0.04485
728.5,1236.8,0.03773
730.5,1242.6,0.04485
732.5,1248.4,0.05848
734.5,1254.2,0.069
736.5,1260,0.0855
738.5,1265.9,0.09576
740.5,1271.7,0.1032
742.5,1277.5,0.10633
744.5,1283.3,0.10695
746.5,1289.2,0.11319
748.5,1295,0.11662
750.5,1300.8,0.12348
752.5,1306.6,0.12145
754.5,1312.5,0.12348
756.5,1318.3,0.12276
758.5,1324.2,0.12348
760.5,1330,0.12312
762.5,1335.9,0.12654
764.5,1341.7,0.12617
766.5,1347.6,0.13338
768.5,1353.4,0.13034
770.5,1359.3,0.1326
772.5,1365.2,0.13338
774.5,1371,0.14063
776.5,1376.9,0.14022
778.5,1382.8,0.1428
780.5,1388.6,0.14364
782.5,1394.5,0.1462
784.5,1400.4,0.1462
786.5,1406.3,0.1496
788.5,1412.1,0.14916
790.5,1418,0.15004
792.5,1423.9,0.153
794.5,1429.8,0.1564
796.5,1435.6,0.15732
798.5,1441.5,0.15594
800.5,1447.4,0.16027
802.5,1453.3,0.15548
804.5,1459.2,0.1598
806.5,1465.1,0.16272
808.5,1471,0.16272
810.5,1476.9,0.1632
812.5,1482.8,0.16513
814.5,1488.7,0.16416
816.5,1494.6,0.1695
817.5,1497.5,0.17

File: FSRI_DSC_N2_20K_2.csv
Temp,time,Heat Flow Rate
[K],[s],[mW/mg]
322,20.2,0.01312
324,51.8,0.1845
326,65.4,0.26505
328,76,0.312
330,85,0.3495
332,93.3,0.38403
334,101,0.4005
336,108.3,0.4185
338,115.3,0.4335
340,122.2,0.44545
342,129,0.46046
344,135.6,0.46512
346,142.1,0.47424
348,148.6,0.4805
350,155.1,0.4991
352,161.5,0.5024
354,167.9,0.50393
356,174.2,0.50562
358,180.5,0.50562
360,186.8,0.5104
362,193,0.4991
364,199.2,0.5005
366,205.4,0.51012
368,211.5,0.50685
370,217.6,0.507
372,223.7,0.5148
374,229.7,0.51824
376,235.8,0.52438
378,241.8,0.52788
380,247.9,0.53784
382,253.9,0.53946
384,259.8,0.54776
386,265.8,0.55776
388,271.8,0.561
390,277.7,0.5746
392,283.6,0.5915
394,289.5,0.60698
396,295.4,0.61698
398,301.3,0.63169
400,307.1,0.6417
402,313,0.66199
404,318.8,0.66392
406,324.7,0.68456
408,330.5,0.68456
410,336.3,0.68904
412,342,0.698
414,347.8,0.70035
416,353.6,0.707
418,359.3,0.7134
420,365,0.71196
422,370.7,0.71808
424,376.4,0.72365
426,382.1,0.72657
428,387.8,0.73568
430,393.5,0.7392
432,399.2,0.73777
434,404.8,0.7452
436,410.5,0.75384
438,416.2,0.75465
440,421.9,0.77088
442,427.6,0.78013
444,433.2,0.79165
446,438.9,0.80004
448,444.5,0.81
450,450.2,0.83424
452,455.8,0.84016
454,461.4,0.8591
456,467.1,0.87576
458,472.7,0.8804
460,478.3,0.89105
462,483.9,0.8975
464,489.5,0.91035
466,495.1,0.89815
468,500.7,0.9078
470,506.3,0.90678
472,511.9,0.90574
474,517.5,0.89712
476,523.1,0.88536
478,528.7,0.88314
480,534.3,0.88179
482,539.9,0.8771
484,545.5,0.8856
486,551.1,0.88784
488,556.7,0.87822
490,562.3,0.88956
492,567.8,0.89607
494,573.4,0.895
496,579,0.89391
498,584.6,0.89607
500,590.2,0.88644
502,595.8,0.88426
504,601.4,0.87108
506,607,0.8592
508,612.6,0.8616
510,618.1,0.83752
512,623.7,0.83288
514,629.3,0.82824
516,634.9,0.82698
518,640.5,0.83056
520,646.1,0.8257
522,651.6,0.828
524,657.2,0.8316
526,662.8,0.83181
528,668.4,0.83647
530,673.9,0.84365
532,679.5,0.84372
534,685.1,0.84966
536,690.7,0.8532
538,696.3,0.85442
540,701.9,0.86394
542,707.5,0.86994
544,713,0.88179
546,718.6,0.88536
548,724.2,0.89607
550,729.8,0.90216
552,735.4,0.90932
554,741,0.92006
556,746.6,0.923
558,752.2,0.93534
560,757.8,0.9612
562,763.4,0.96832
564,769,0.97818
566,774.6,0.99166
568,780.2,1.02388
570,785.8,1.0324
572,791.4,1.0579
574,797,1.07312
576,802.7,1.08224
578,808.3,1.0974
580,813.9,1.10489
582,819.5,1.12054
584,825.1,1.12852
586,830.7,1.1424
588,836.4,1.1552
590,842,1.17424
592,847.6,1.19972
594,853.2,1.22475
596,858.9,1.26024
598,864.5,1.29948
600,870.1,1.34545
602,875.8,1.39515
604,881.4,1.46848
606,887.1,1.54504
608,892.7,1.633
610,898.3,1.74522
612,904,1.86737
614,909.7,2.02176
616,915.4,2.1576
618,921.1,2.34468
620,926.8,2.53071
622,932.5,2.74208
624,938.2,2.94905
626,944,3.1668
628,949.7,3.40754
630,955.4,3.654
632,961.2,3.89681
634,966.9,4.12728
636,972.7,4.35138
638,978.5,4.57815
640,984.2,4.74349
642,990,4.92046
644,995.8,5.04735
646,1001.5,5.10587
648,1007.3,5.15388
650,1013,5.18172
652,1018.8,5.14775
654,1024.5,5.0645
656,1030.3,4.95616
658,1036,4.75605
660,1041.7,4.53252
662,1047.3,4.24473
664,1053,3.92536
666,1058.7,3.6565
668,1064.3,3.33345
670,1070,3.0246
672,1075.6,2.69535
674,1081.2,2.38596
676,1086.9,2.09805
678,1092.5,1.82984
680,1098.1,1.57975
682,1103.8,1.349
684,1109.4,1.14342
686,1115,0.9639
688,1120.7,0.805
690,1126.4,0.67041
692,1132.1,0.55264
694,1137.8,0.46332
696,1143.5,0.37908
698,1149.2,0.315
700,1154.9,0.26524
702,1160.6,0.21987
704,1166.3,0.18497
706,1172.1,0.161
708,1177.8,0.14
710,1183.6,0.12492
712,1189.3,0.11104
714,1195.1,0.10092
716,1200.8,0.09688
718,1206.6,0.1041
720,1212.4,0.10063
722,1218.1,0.08304
724,1223.9,0.05536
726,1229.7,0.03096
728,1235.5,0.02768
730,1241.3,0.05175
732,1247.1,0.07912
734,1252.9,0.1104
736,1258.7,0.13416
738,1264.5,0.14792
740,1270.3,0.15824
742,1276.2,0.1656
744,1282,0.16856
746,1287.8,0.1715
748,1293.7,0.17493
750,1299.5,0.1705
752,1305.4,0.1705
754,1311.2,0.16807
756,1317,0.17391
758,1322.9,0.17493
760,1328.7,0.17493
762,1334.6,0.17391
764,1340.5,0.17784
766,1346.3,0.17784
768,1352.2,0.17442
770,1358.1,0.17784
772,1363.9,0.18179
774,1369.8,0.18073
776,1375.6,0.18414
778,1381.5,0.18414
780,1387.4,0.1881
782,1393.2,0.1836
784,1399.1,0.18755
786,1405,0.1859
788,1410.9,0.18984
790,1416.7,0.19152
792,1422.6,0.19437
794,1428.5,0.19952
796,1434.3,0.19662
798,1440.3,0.2022
800,1446.2,0.20618
802,1452,0.2074
804,1457.9,0.2074
806,1463.8,0.2108
808,1469.7,0.2077
810,1475.6,0.2108
812,1481.5,0.21294
814,1487.4,0.2176
816,1493.3,0.2197
817.5,1497.7,0.22165

File: FSRI_DSC_N2_20K_3.csv
Temp,time ,Heat Flow Rate
[K],[s],[mW/mg]
322.5,30.7,0.08064
324.5,54.2,0.20305
326.5,67.1,0.27234
328.5,77.4,0.3213
330.5,86.3,0.35334
332.5,94.5,0.37926
334.5,102.1,0.40468
336.5,109.4,0.42256
338.5,116.5,0.43639
340.5,123.3,0.4484
342.5,130,0.456
344.5,136.7,0.47124
346.5,143.2,0.48336
348.5,149.7,0.47895
350.5,156.2,0.49454
352.5,162.6,0.49926
354.5,168.9,0.504
356.5,175.3,0.51037
358.5,181.6,0.50402
360.5,187.8,0.5088
362.5,194,0.5024
364.5,200.2,0.5005
366.5,206.4,0.5053
368.5,212.5,0.50685
370.5,218.6,0.50643
372.5,224.7,0.51496
374.5,230.7,0.51982
376.5,236.8,0.52298
378.5,242.8,0.52788
380.5,248.9,0.53106
382.5,254.9,0.54116
384.5,260.8,0.54768
386.5,266.8,0.55611
388.5,272.8,0.55778
390.5,278.7,0.56953
392.5,284.7,0.59136
394.5,290.6,0.60164
396.5,296.5,0.612
398.5,302.4,0.63393
400.5,308.3,0.646
402.5,314.1,0.65895
404.5,319.9,0.66971
406.5,325.7,0.67768
408.5,331.5,0.6831
410.5,337.3,0.68904
412.5,343.1,0.69546
414.5,348.8,0.69768
416.5,354.6,0.70644
418.5,360.4,0.70847
420.5,366.1,0.714
422.5,371.8,0.71955
424.5,377.5,0.71894
426.5,383.2,0.72512
428.5,388.9,0.73424
430.5,394.6,0.73568
432.5,400.3,0.74763
434.5,406,0.74763
436.5,411.6,0.75328
438.5,417.3,0.76041
440.5,423,0.7735
442.5,428.6,0.78044
444.5,434.3,0.79572
446.5,440,0.79875
448.5,445.7,0.81753
450.5,451.3,0.82948
452.5,456.9,0.83661
454.5,462.6,0.85668
456.5,468.2,0.8662
458.5,473.8,0.87685
460.5,479.4,0.88644
462.5,485.1,0.89105
464.5,490.7,0.91749
466.5,496.3,0.89712
468.5,501.9,0.90216
470.5,507.5,0.89815
472.5,513.1,0.895
474.5,518.7,0.88784
476.5,524.3,0.89105
478.5,529.9,0.88426
480.5,535.5,0.88068
482.5,541.1,0.87932
484.5,546.7,0.88179
486.5,552.3,0.88068
488.5,557.9,0.88179
490.5,563.5,0.88893
492.5,569.1,0.8946
494.5,574.7,0.90678
496.5,580.2,0.895
498.5,585.8,0.8975
500.5,591.4,0.895
502.5,597,0.88536
504.5,602.6,0.8712
506.5,608.2,0.85204
508.5,613.7,0.84113
510.5,619.3,0.82698
512.5,624.9,0.8352
514.5,630.5,0.8257
516.5,636,0.8208
518.5,641.6,0.82264
520.5,647.1,0.8188
522.5,652.8,0.82211
524.5,658.3,0.82929
526.5,663.9,0.82467
528.5,669.5,0.8316
530.5,675,0.84006
532.5,680.6,0.83538
534.5,686.2,0.8496
536.5,691.8,0.84966
538.5,697.3,0.8568
540.5,702.9,0.86878
542.5,708.5,0.86519
544.5,714.1,0.87822
546.5,719.6,0.88314
548.5,725.2,0.8892
550.5,730.8,0.90216
552.5,736.4,0.90932
554.5,742,0.91848
556.5,747.6,0.93438
558.5,753.1,0.94417
560.5,758.7,0.95944
562.5,764.3,0.9585
564.5,769.9,0.99084
566.5,775.5,1.008
568.5,781.1,1.03104
570.5,786.7,1.04536
572.5,792.3,1.07616
574.5,797.9,1.08832
576.5,803.5,1.1067
578.5,809.1,1.1098
580.5,814.6,1.12852
582.5,820.3,1.14202
584.5,825.9,1.13564
586.5,831.5,1.14597
588.5,837.1,1.157
590.5,842.7,1.1715
592.5,848.4,1.18236
594.5,854,1.2002
596.5,859.6,1.2354
598.5,865.2,1.27448
600.5,870.9,1.33144
602.5,876.5,1.39082
604.5,882.2,1.47798
606.5,887.8,1.562
608.5,893.5,1.6544
610.5,899.1,1.78265
612.5,904.8,1.90452
614.5,910.5,2.02878
616.5,916.2,2.18944
618.5,921.9,2.36896
620.5,927.6,2.54124
622.5,933.3,2.74833
624.5,939,2.94905
626.5,944.7,3.19684
628.5,950.5,3.42432
630.5,956.2,3.66779
632.5,962,3.8976
634.5,967.7,4.14
636.5,973.5,4.3942
638.5,979.3,4.59708
640.5,985,4.7748
642.5,990.8,4.89461
644.5,996.6,5.00374
646.5,1002.3,5.08702
648.5,1008.1,5.0954
650.5,1013.8,5.1156
652.5,1019.6,5.08493
654.5,1025.3,5.00815
656.5,1031.1,4.91741
658.5,1036.8,4.76036
660.5,1042.5,4.5056
662.5,1048.2,4.21696
664.5,1053.8,3.91776
666.5,1059.5,3.6352
668.5,1065.1,3.30505
670.5,1070.8,2.97579
672.5,1076.4,2.6483
674.5,1082,2.34392
676.5,1087.7,2.06836
678.5,1093.3,1.79571
680.5,1098.9,1.56996
682.5,1104.6,1.32327
684.5,1110.3,1.11548
686.5,1115.9,0.94164
688.5,1121.6,0.78144
690.5,1127.3,0.65472
692.5,1133,0.53703
694.5,1138.7,0.44763
696.5,1144.4,0.36645
698.5,1150.1,0.31061
700.5,1155.8,0.25752
702.5,1161.6,0.21638
704.5,1167.3,0.18444
706.5,1173.1,0.1566
708.5,1178.8,0.13533
710.5,1184.6,0.12456
712.5,1190.4,0.11136
714.5,1196.1,0.1047
716.5,1201.9,0.10757
718.5,1207.6,0.10757
720.5,1213.4,0.1035
722.5,1219.2,0.08304
724.5,1225,0.0621
726.5,1230.8,0.04128
728.5,1236.6,0.03806
730.5,1242.4,0.0552
732.5,1248.2,0.07889
734.5,1254,0.10571
736.5,1259.8,0.1311
738.5,1265.7,0.1518
740.5,1271.5,0.16168
742.5,1277.3,0.1715
744.5,1283.2,0.17732
746.5,1289,0.18179
748.5,1294.8,0.18468
750.5,1300.7,0.18468
752.5,1306.5,0.18522
754.5,1312.4,0.18126
756.5,1318.2,0.18755
758.5,1324.1,0.18755
760.5,1329.9,0.1881
762.5,1335.8,0.19437
764.5,1341.6,0.18865
766.5,1347.5,0.19437
768.5,1353.4,0.19778
770.5,1359.2,0.1972
772.5,1365.1,0.19778
774.5,1371,0.204
776.5,1376.8,0.2058
778.5,1382.7,0.2058
780.5,1388.5,0.20801
782.5,1394.4,0.2108
784.5,1400.3,0.21142
786.5,1406.2,0.21204
788.5,1412,0.21483
790.5,1417.9,0.221
792.5,1423.8,0.221
794.5,1429.6,0.22374
796.5,1435.5,0.2244
798.5,1441.4,0.22572
800.5,1447.2,0.2278
802.5,1453.1,0.23188
804.5,1459,0.23052
806.5,1464.9,0.23322
808.5,1470.7,0.2346
810.5,1476.6,0.238
812.5,1482.5,0.24211
814.5,1488.4,0.24192
816.5,1494.4,0.24455
817.5,1497.3,0.24408

File: FSRI_DSC_N2_30K_1.csv
Temp,time,Heat Flow Rate
[K],[s],[mW/mg]
322.5,27.3,2.96E-02
324.5,47,0.13396
326.5,57.6,0.21736
328.5,65.7,0.28712
330.5,72.7,0.34374
332.5,78.9,0.39749
334.5,84.7,0.44454
336.5,90.1,0.48304
338.5,95.3,0.52115
340.5,100.2,0.55737
342.5,105,0.58811
344.5,109.7,0.61693
346.5,114.3,0.64493
348.5,118.8,0.67081
350.5,123.3,0.69739
352.5,127.7,0.7215
354.5,132,0.74632
356.5,136.3,0.7656
358.5,140.6,0.78065
360.5,144.7,0.79089
362.5,148.9,0.79304
364.5,153.1,0.79555
366.5,157.2,0.7976
368.5,161.3,0.8029
370.5,165.4,0.80732
372.5,169.5,0.81625
374.5,173.6,0.82574
376.5,177.6,0.83158
378.5,181.7,0.84484
380.5,185.7,0.85488
382.5,189.8,0.86582
384.5,193.8,0.87606
386.5,197.8,0.88953
388.5,201.8,0.90572
390.5,205.8,0.92245
392.5,209.8,0.93911
394.5,213.8,0.96106
396.5,217.8,0.98223
398.5,221.8,1.00681
400.5,225.7,1.03266
402.5,229.7,1.05707
404.5,233.6,1.07629
406.5,237.5,1.09582
408.5,241.5,1.11196
410.5,245.4,1.12833
412.5,249.2,1.13662
414.5,253.1,1.15047
416.5,257,1.16222
418.5,260.9,1.17268
420.5,264.7,1.18386
422.5,268.5,1.1907
424.5,272.4,1.20269
426.5,276.2,1.21099
428.5,280,1.22068
430.5,283.8,1.23052
432.5,287.6,1.24272
434.5,291.4,1.25286
436.5,295.2,1.26552
438.5,299,1.27668
440.5,302.8,1.28996
442.5,306.5,1.30545
444.5,310.3,1.31969
446.5,314.1,1.33546
448.5,317.8,1.35492
450.5,321.6,1.37331
452.5,325.3,1.39484
454.5,329,1.41564
456.5,332.8,1.43859
458.5,336.5,1.46247
460.5,340.2,1.48545
462.5,343.9,1.50508
464.5,347.6,1.52518
466.5,351.3,1.54262
468.5,355,1.55998
470.5,358.7,1.57178
472.5,362.3,1.58082
474.5,366,1.58745
476.5,369.7,1.59021
478.5,373.4,1.58916
480.5,377,1.58796
482.5,380.7,1.58601
484.5,384.4,1.58047
486.5,388,1.58208
488.5,391.7,1.58374
490.5,395.3,1.58701
492.5,399,1.59443
494.5,402.7,1.60207
496.5,406.3,1.61185
498.5,410,1.62168
500.5,413.6,1.6318
502.5,417.3,1.64105
504.5,420.9,1.64555
506.5,424.5,1.64768
508.5,428.2,1.64212
510.5,431.8,1.63408
512.5,435.5,1.61862
514.5,439.1,1.60353
516.5,442.7,1.58331
518.5,446.4,1.56745
520.5,450,1.55534
522.5,453.6,1.54443
524.5,457.3,1.53663
526.5,460.9,1.52969
528.5,464.5,1.52776
530.5,468.2,1.5248
532.5,471.8,1.52617
534.5,475.4,1.52902
536.5,479.1,1.53417
538.5,482.7,1.53853
540.5,486.3,1.54456
542.5,489.9,1.54937
544.5,493.6,1.55677
546.5,497.2,1.56532
548.5,500.9,1.57385
550.5,504.5,1.58371
552.5,508.1,1.59519
554.5,511.8,1.60757
556.5,515.4,1.62281
558.5,519,1.63766
560.5,522.7,1.65306
562.5,526.3,1.66982
564.5,530,1.68882
566.5,533.6,1.71053
568.5,537.3,1.73472
570.5,540.9,1.76971
572.5,544.5,1.80498
574.5,548.2,1.83932
576.5,551.8,1.87079
578.5,555.4,1.90016
580.5,559.1,1.92798
582.5,562.7,1.9492
584.5,566.4,1.96979
586.5,570,1.99081
588.5,573.7,2.01539
590.5,577.3,2.03547
592.5,581,2.05991
594.5,584.6,2.08433
596.5,588.3,2.11199
598.5,592,2.14428
600.5,595.6,2.18724
602.5,599.3,2.24039
604.5,602.9,2.31092
606.5,606.6,2.39819
608.5,610.3,2.50072
610.5,613.9,2.61718
612.5,617.6,2.74931
614.5,621.3,2.90125
616.5,625,3.07127
618.5,628.7,3.26499
620.5,632.3,3.4782
622.5,636.1,3.71675
624.5,639.8,3.98029
626.5,643.5,4.26419
628.5,647.2,4.57189
630.5,650.9,4.90614
632.5,654.6,5.26186
634.5,658.4,5.63365
636.5,662.1,6.02107
638.5,665.9,6.40988
640.5,669.6,6.79931
642.5,673.4,7.18799
644.5,677.2,7.55148
646.5,680.9,7.88099
648.5,684.7,8.15803
650.5,688.5,8.37883
652.5,692.3,8.57471
654.5,696,8.70084
656.5,699.8,8.79351
658.5,703.6,8.83605
660.5,707.3,8.8034
662.5,711.1,8.67468
664.5,714.8,8.47524
666.5,718.6,8.18454
668.5,722.3,7.80531
670.5,726,7.34542
672.5,729.7,6.84122
674.5,733.4,6.31699
676.5,737.1,5.76368
678.5,740.8,5.21292
680.5,744.5,4.65038
682.5,748.1,4.11264
684.5,751.8,3.6206
686.5,755.5,3.17129
688.5,759.2,2.74394
690.5,762.8,2.34898
692.5,766.5,1.98808
694.5,770.2,1.66727
696.5,773.9,1.38907
698.5,777.5,1.14625
700.5,781.2,0.94008
702.5,784.9,0.77083
704.5,788.6,0.63329
706.5,792.4,0.5178
708.5,796.1,0.42619
710.5,799.8,0.35349
712.5,803.5,0.2933
714.5,807.3,0.25497
716.5,811,0.2335
718.5,814.7,0.22733
720.5,818.5,0.23581
722.5,822.2,0.2409
724.5,826,0.23008
726.5,829.8,0.19371
728.5,833.6,0.1366
730.5,837.4,6.13E-02
732.5,841.2,1.33E-02
734.5,845,2.48E-02
736.5,848.8,6.51E-02
738.5,852.6,0.10077
740.5,856.4,0.12984
742.5,860.2,0.1495
744.5,864,0.15683
746.5,867.8,0.16338
748.5,871.7,0.16322
750.5,875.5,0.16149
752.5,879.3,0.16732
754.5,883.1,0.16565
756.5,886.9,0.16815
758.5,890.8,0.16855
760.5,894.6,0.17011
762.5,898.4,0.17219
764.5,902.3,0.17351
766.5,906.1,0.17697
768.5,909.9,0.17832
770.5,913.7,0.18103
772.5,917.6,0.18328
774.5,921.4,0.18257
776.5,925.3,0.1869
778.5,929.1,0.19212
780.5,933,0.19412
782.5,936.8,0.19617
784.5,940.7,0.19877
786.5,944.5,0.19971
788.5,948.3,0.20171
790.5,952.2,0.20123
792.5,956.1,0.20499
794.5,959.9,0.20764
796.5,963.8,0.20792
798.5,967.7,0.21113
800.5,971.5,0.2115
802.5,975.4,0.21357
804.5,979.3,0.21627
806.5,983.1,0.21788
808.5,987,0.2199
810.5,990.9,0.22172
812.5,994.8,0.22357
814.5,998.7,0.2262

File: FSRI_DSC_N2_30K_2.csv
Temp,time,Heat Flow Rate
[K],[s],[mW/mg]
322.5,27.7,1.68E-02
324.5,47.3,0.11872
326.5,57.8,0.20154
328.5,65.9,0.26828
330.5,72.8,0.32657
332.5,79,0.3761
334.5,84.7,0.42014
336.5,90.1,0.45951
338.5,95.2,0.49528
340.5,100.2,0.52636
342.5,105,0.55737
344.5,109.7,0.58327
346.5,114.3,0.60689
348.5,118.8,0.63155
350.5,123.2,0.65332
352.5,127.6,0.67568
354.5,131.9,0.69728
356.5,136.2,0.71305
358.5,140.5,0.72755
360.5,144.7,0.73197
362.5,148.8,0.73385
364.5,153,0.73424
366.5,157.1,0.73437
368.5,161.2,0.73683
370.5,165.3,0.74118
372.5,169.4,0.74853
374.5,173.5,0.75384
376.5,177.5,0.76291
378.5,181.6,0.77369
380.5,185.6,0.78148
382.5,189.7,0.79123
384.5,193.7,0.80442
386.5,197.7,0.81278
388.5,201.8,0.82687
390.5,205.8,0.8428
392.5,209.8,0.85904
394.5,213.8,0.8766
396.5,217.8,0.90101
398.5,221.7,0.92235
400.5,225.7,0.94157
402.5,229.7,0.96234
404.5,233.6,0.98281
406.5,237.6,0.99992
408.5,241.5,1.01419
410.5,245.4,1.02869
412.5,249.3,1.04215
414.5,253.2,1.04967
416.5,257,1.05979
418.5,260.9,1.07137
420.5,264.8,1.07816
422.5,268.6,1.08777
424.5,272.4,1.09738
426.5,276.3,1.10373
428.5,280.1,1.1168
430.5,283.9,1.12256
432.5,287.8,1.13396
434.5,291.6,1.1427
436.5,295.4,1.15332
438.5,299.2,1.1644
440.5,303,1.17756
442.5,306.7,1.19165
444.5,310.5,1.20556
446.5,314.3,1.22202
448.5,318.1,1.24319
450.5,321.8,1.26468
452.5,325.6,1.28173
454.5,329.3,1.30403
456.5,333,1.32459
458.5,336.8,1.34986
460.5,340.5,1.37203
462.5,344.2,1.39359
464.5,347.9,1.4111
466.5,351.6,1.42735
468.5,355.3,1.44026
470.5,359,1.45202
472.5,362.7,1.45688
474.5,366.3,1.46134
476.5,370,1.46172
478.5,373.7,1.45805
480.5,377.4,1.45274
482.5,381,1.44792
484.5,384.7,1.44291
486.5,388.4,1.43829
488.5,392,1.43673
490.5,395.7,1.44238
492.5,399.3,1.448
494.5,403,1.45546
496.5,406.6,1.46589
498.5,410.3,1.47494
500.5,413.9,1.48314
502.5,417.6,1.48992
504.5,421.2,1.49692
506.5,424.9,1.49453
508.5,428.5,1.48672
510.5,432.1,1.47574
512.5,435.8,1.45644
514.5,439.4,1.43923
516.5,443,1.41754
518.5,446.7,1.40286
520.5,450.3,1.38699
522.5,453.9,1.37678
524.5,457.6,1.36914
526.5,461.2,1.36368
528.5,464.8,1.36011
530.5,468.4,1.35807
532.5,472.1,1.35969
534.5,475.7,1.36262
536.5,479.3,1.36507
538.5,483,1.37164
540.5,486.6,1.37574
542.5,490.2,1.38132
544.5,493.8,1.38796
546.5,497.5,1.39966
548.5,501.1,1.40667
550.5,504.7,1.41628
552.5,508.3,1.42512
554.5,512,1.4365
556.5,515.6,1.45199
558.5,519.3,1.46373
560.5,522.9,1.47815
562.5,526.5,1.4935
564.5,530.1,1.51456
566.5,533.8,1.53912
568.5,537.4,1.56788
570.5,541,1.59373
572.5,544.7,1.62316
574.5,548.3,1.65004
576.5,551.9,1.67948
578.5,555.6,1.70165
580.5,559.2,1.72573
582.5,562.9,1.74703
584.5,566.5,1.76803
586.5,570.2,1.78976
588.5,573.8,1.81137
590.5,577.5,1.83144
592.5,581.1,1.85283
594.5,584.8,1.8723
596.5,588.5,1.8996
598.5,592.1,1.93393
600.5,595.8,1.97716
602.5,599.4,2.02911
604.5,603.1,2.09095
606.5,606.8,2.1666
608.5,610.4,2.2559
610.5,614.1,2.36124
612.5,617.8,2.47702
614.5,621.5,2.61654
616.5,625.1,2.77125
618.5,628.8,2.94588
620.5,632.5,3.14587
622.5,636.2,3.36614
624.5,639.9,3.6131
626.5,643.6,3.8837
628.5,647.4,4.17379
630.5,651.1,4.48835
632.5,654.8,4.81748
634.5,658.5,5.15993
636.5,662.3,5.51765
638.5,666.1,5.88608
640.5,669.8,6.25501
642.5,673.6,6.61811
644.5,677.4,6.96187
646.5,681.1,7.25931
648.5,684.9,7.50131
650.5,688.7,7.71329
652.5,692.5,7.89774
654.5,696.2,8.03163
656.5,700,8.06832
658.5,703.8,8.04477
660.5,707.5,8.02646
662.5,711.3,7.96638
664.5,715.1,7.69729
666.5,718.8,7.56604
668.5,722.5,7.32093
670.5,726.3,7.01256
672.5,730,6.62224
674.5,733.7,6.16023
676.5,737.4,5.62795
678.5,741.1,5.072
680.5,744.8,4.50876
682.5,748.5,3.97235
684.5,752.1,3.46226
686.5,755.8,2.99011
688.5,759.5,2.54981
690.5,763.1,2.14624
692.5,766.8,1.77912
694.5,770.5,1.45644
696.5,774.2,1.1785
698.5,777.8,0.93752
700.5,781.5,0.74148
702.5,785.2,0.57344
704.5,788.9,0.43902
706.5,792.6,0.33015
708.5,796.4,0.2391
710.5,800.1,0.16856
712.5,803.8,0.10919
714.5,807.6,6.16E-02
716.5,811.3,2.38E-02
718.5,815,-2.91E-03
720.5,818.8,-2.46E-02
722.5,822.6,-4.12E-02
724.5,826.3,-5.37E-02
726.5,830.1,-6.45E-02
728.5,833.8,-5.84E-02
730.5,837.6,-4.87E-02
732.5,841.4,-5.21E-02
734.5,845.2,-6.44E-02
736.5,849,-8.26E-02
738.5,852.8,-0.10147
740.5,856.6,-0.11644
742.5,860.4,-0.125
744.5,864.2,-0.12929
746.5,868,-0.12773
748.5,871.8,-0.12606
750.5,875.7,-0.12267
752.5,879.5,-0.11673
754.5,883.3,-0.11349
756.5,887.1,-0.10678
758.5,891,-0.10192
760.5,894.8,-9.47E-02
762.5,898.6,-8.83E-02
764.5,902.4,-8.73E-02
766.5,906.3,-8.40E-02
768.5,910.1,-8.11E-02
770.5,914,-7.89E-02
772.5,917.8,-7.60E-02
774.5,921.6,-7.02E-02
776.5,925.5,-6.58E-02
778.5,929.3,-5.98E-02
780.5,933.2,-5.73E-02
782.5,937,-5.27E-02
784.5,940.9,-4.63E-02
786.5,944.7,-4.08E-02
788.5,948.6,-3.77E-02
790.5,952.5,-3.30E-02
792.5,956.3,-3.16E-02
794.5,960.2,-2.88E-02
796.5,964.1,-2.74E-02
798.5,967.9,-2.41E-02
800.5,971.8,-2.26E-02
802.5,975.6,-1.84E-02
804.5,979.5,-1.82E-02
806.5,983.4,-1.55E-02
808.5,987.3,-1.32E-02
810.5,991.1,-1.26E-02
812.5,995,-9.70E-03
814.5,999,-8.57E-03