Folder: matl-db/PMMA/Calibration_Data/FSRI (part 7)

File: FSRI_STA_N2_30K_2.csv
Temp,time,TGA,DSC
[K],[s],[mg],[mW/mg]
322.1,0.0,4.0669,-4.80E-03
323.8,42.4,4.0643,8.69E-02
325.5,53.0,4.0623,0.16202
327.2,60.8,4.0626,0.22575
328.9,67.3,4.0636,0.2798
330.6,73.1,4.0635,0.32871
332.3,78.4,4.0628,0.37183
334.0,83.3,4.0623,0.41022
335.7,88.0,4.0632,0.44409
337.4,92.4,4.0620,0.47515
339.1,96.8,4.0620,0.50479
340.8,100.9,4.0616,0.53173
342.5,105.0,4.0625,0.55737
344.2,109.0,4.0622,0.57958
345.9,112.9,4.0626,0.59841
347.6,116.7,4.0636,0.62074
349.3,120.6,4.0640,0.6399
351.0,124.3,4.0633,0.65929
352.7,128.0,4.0623,0.67834
354.4,131.7,4.0639,0.69659
356.1,135.3,4.0644,0.70933
357.8,139.0,4.0638,0.72194
359.5,142.6,4.0632,0.72983
361.2,146.1,4.0630,0.7326
362.9,149.7,4.0629,0.73466
364.6,153.2,4.0629,0.73422
366.3,156.7,4.0620,0.73562
368.0,160.2,4.0608,0.73509
369.7,163.7,4.0607,0.73747
371.4,167.2,4.0613,0.74312
373.1,170.6,4.0618,0.74902
374.8,174.1,4.0613,0.75573
376.5,177.5,4.0618,0.76291
378.2,181.0,4.0625,0.7714
379.9,184.4,4.0625,0.78156
381.6,187.9,4.0611,0.78864
383.3,191.3,4.0611,0.79763
385.0,194.7,4.0613,0.80603
386.7,198.1,4.0608,0.81377
388.4,201.6,4.0602,0.82618
390.1,205.0,4.0598,0.8378
391.8,208.4,4.0585,0.85238
393.5,211.8,4.0585,0.86705
395.2,215.2,4.0585,0.88377
396.9,218.6,4.0598,0.90422
398.6,221.9,4.0599,0.9233
400.3,225.3,4.0585,0.94024
402.0,228.7,4.0585,0.95724
403.7,232.0,4.0598,0.97662
405.4,235.4,4.0598,0.99099
407.1,238.7,4.0598,1.00621
408.8,242.1,4.0598,1.01677
410.5,245.4,4.0596,1.02869
412.2,248.7,4.0585,1.03973
413.9,252.0,4.0582,1.04914
415.6,255.3,4.0582,1.05898
417.3,258.6,4.0582,1.06471
419.0,261.9,4.0572,1.07236
420.7,265.2,4.0556,1.08016
422.4,268.4,4.0556,1.08863
424.1,271.7,4.0529,1.09463
425.8,274.9,4.0529,1.10324
427.5,278.2,4.0526,1.10979
429.2,281.5,4.0526,1.11729
430.9,284.7,4.0516,1.12665
432.6,288.0,4.0510,1.13478
434.3,291.2,4.0516,1.14195
436.0,294.4,4.0503,1.15014
437.7,297.7,4.0489,1.16135
439.4,300.9,4.0476,1.16924
441.1,304.1,4.0450,1.18299
442.8,307.3,4.0450,1.19238
444.5,310.5,4.0450,1.20556
446.2,313.7,4.0437,1.2209
447.9,316.9,4.0424,1.23716
449.6,320.1,4.0421,1.25319
451.3,323.3,4.0411,1.26962
453.0,326.5,4.0410,1.28747
454.7,329.7,4.0382,1.30563
456.4,332.8,4.0355,1.32437
458.1,336.0,4.0338,1.34646
459.8,339.2,4.0301,1.36726
461.5,342.3,4.0262,1.38388
463.2,345.5,4.0230,1.39938
464.9,348.6,4.0205,1.41495
466.6,351.8,4.0186,1.42849
468.3,354.9,4.0145,1.44071
470.0,358.0,4.0099,1.44958
471.7,361.2,4.0052,1.45741
473.4,364.3,4.0017,1.46011
475.1,367.4,3.9991,1.46316
476.8,370.6,3.9956,1.46162
478.5,373.7,3.9910,1.45805
480.2,376.8,3.9871,1.45355
481.9,379.9,3.9836,1.44942
483.6,383.0,3.9806,1.44301
485.3,386.2,3.9777,1.44144
487.0,389.3,3.9740,1.43846
488.7,392.4,3.9704,1.43795
490.4,395.5,3.9658,1.44156
492.1,398.6,3.9632,1.44523
493.8,401.7,3.9597,1.4528
495.5,404.8,3.9564,1.46159
497.2,407.9,3.9555,1.4696
498.9,411.0,3.9523,1.47725
500.6,414.1,3.9489,1.48324
502.3,417.2,3.9454,1.4895
504.0,420.3,3.9419,1.49476
505.7,423.4,3.9387,1.49422
507.4,426.5,3.9338,1.49098
509.1,429.6,3.9308,1.48447
510.8,432.7,3.9283,1.47399
512.5,435.8,3.9266,1.45644
514.2,438.9,3.9234,1.44118
515.9,441.9,3.9228,1.4229
517.6,445.0,3.9205,1.40803
519.3,448.1,3.9192,1.39336
521.0,451.2,3.9179,1.38267
522.7,454.3,3.9166,1.37725
524.4,457.4,3.9153,1.36927
526.1,460.5,3.9153,1.36532
527.8,463.6,3.9153,1.36122
529.5,466.6,3.9140,1.35901
531.2,469.7,3.9140,1.3576
532.9,472.8,3.9140,1.36017
534.6,475.9,3.9142,1.36221
536.3,479.0,3.9140,1.36403
538.0,482.1,3.9126,1.36885
539.7,485.1,3.9100,1.37452
541.4,488.2,3.9098,1.37918
543.1,491.3,3.9085,1.38295
544.8,494.4,3.9071,1.38858
546.5,497.5,3.9057,1.39966
548.2,500.6,3.9031,1.40546
549.9,503.6,3.9018,1.41429
551.6,506.7,3.9003,1.41993
553.3,509.8,3.8989,1.42995
555.0,512.9,3.8975,1.44101
556.7,516.0,3.8950,1.4533
558.4,519.1,3.8942,1.4633
560.1,522.1,3.8913,1.4764
561.8,525.2,3.8882,1.48864
563.5,528.3,3.8863,1.50552
565.2,531.4,3.8828,1.52307
566.9,534.5,3.8786,1.54676
568.6,537.6,3.8744,1.56974
570.3,540.7,3.8693,1.59217
572.0,543.8,3.8672,1.61997
573.7,546.8,3.8630,1.64078
575.4,549.9,3.8585,1.66212
577.1,553.0,3.8532,1.68543
578.8,556.1,3.8482,1.70543
580.5,559.2,3.8425,1.72573
582.2,562.3,3.8368,1.74458
583.9,565.4,3.8301,1.76344
585.6,568.5,3.8236,1.7787
587.3,571.6,3.8160,1.79868
589.0,574.7,3.8092,1.81592
590.7,577.8,3.8019,1.83394
592.4,581.0,3.7936,1.85103
594.1,584.1,3.7858,1.86876
595.8,587.2,3.7771,1.88984
597.5,590.3,3.7691,1.91472
599.2,593.4,3.7587,1.9496
600.9,596.5,3.7484,1.98408
602.6,599.6,3.7375,2.03184
604.3,602.7,3.7255,2.08466
606.0,605.8,3.7107,2.14862
607.7,609.0,3.6961,2.21966
609.4,612.1,3.6817,2.3004
611.1,615.2,3.6651,2.39165
612.8,618.3,3.6461,2.49691
614.5,621.5,3.6251,2.61654
616.2,624.6,3.6019,2.74659
617.9,627.7,3.5751,2.89136
619.6,630.9,3.5435,3.0534
621.3,634.0,3.5127,3.2311
623.0,637.1,3.4780,3.42447
624.7,640.3,3.4379,3.63986
626.4,643.4,3.3973,3.86965
628.1,646.6,3.3538,4.11517
629.8,649.8,3.3002,4.37768
631.5,653.0,3.2466,4.64708
633.2,656.1,3.1855,4.93614
634.9,659.3,3.1183,5.23114
636.6,662.5,3.0499,5.53553
638.3,665.7,2.9757,5.84973
640.0,668.9,2.8925,6.16419
641.7,672.1,2.8075,6.47406
643.4,675.3,2.7173,6.77798
645.1,678.5,2.6167,7.05676
646.8,681.7,2.5183,7.30086
648.5,684.9,2.4137,7.50131
650.2,688.1,2.2992,7.68695
651.9,691.3,2.1906,7.83964
653.6,694.5,2.0766,7.97871
655.3,697.7,1.9563,8.06916
657.0,701.0,1.8421,8.05991
658.7,704.2,1.7250,8.03257
660.4,707.4,1.6020,8.01079
662.1,710.6,1.4898,7.99013
663.8,713.7,1.3751,7.79739
665.5,716.9,1.2563,7.63043
667.2,720.1,1.1494,7.46088
668.9,723.3,1.0415,7.25709
670.6,726.5,0.9316,6.99381
672.3,729.6,0.8329,6.66368
674.0,732.8,0.7378,6.28224
675.7,735.9,0.6461,5.84641
677.4,739.1,0.5598,5.37532
679.1,742.2,0.4848,4.89834
680.8,745.3,0.4141,4.42294
682.5,748.5,0.3504,3.97235
684.2,751.6,0.2983,3.53644
685.9,754.7,0.2485,3.12579
687.6,757.8,0.2043,2.74413
689.3,760.9,0.1678,2.38456
691.0,764.0,0.1352,2.05072
692.7,767.2,0.1044,1.74483
694.4,770.3,0.0807,1.47181
696.1,773.4,0.0605,1.23447
697.8,776.5,0.0430,1.01807
699.5,779.7,0.0300,0.83618
701.2,782.8,0.0162,0.68054
702.9,786.0,0.0062,0.54637
704.6,789.1,-0.0023,0.43274
706.3,792.3,-0.0082,0.34002
708.0,795.4,-0.0149,0.25993
709.7,798.6,-0.0206,0.1936
711.4,801.8,-0.0238,0.13848
713.1,804.9,-0.0275,9.41E-02
714.8,808.1,-0.0290,5.45E-02
716.5,811.3,-0.0322,2.38E-02
718.2,814.5,-0.0349,1.04E-04
719.9,817.7,-0.0362,-2.17E-02
721.6,820.9,-0.0383,-3.26E-02
723.3,824.1,-0.0383,-4.81E-02
725.0,827.3,-0.0396,-5.92E-02
726.7,830.5,-0.0396,-6.42E-02
728.4,833.7,-0.0396,-5.95E-02
730.1,836.9,-0.0396,-5.05E-02
731.8,840.1,-0.0398,-5.12E-02
733.5,843.3,-0.0396,-5.93E-02
735.2,846.5,-0.0409,-7.07E-02
736.9,849.7,-0.0433,-8.42E-02
738.6,853.0,-0.0435,-0.10264
740.3,856.2,-0.0435,-0.11617
742.0,859.4,-0.0435,-0.12302
743.7,862.7,-0.0430,-0.12867
745.4,865.9,-0.0422,-0.12597
747.1,869.2,-0.0421,-0.12799
748.8,872.4,-0.0435,-0.12546
750.5,875.7,-0.0435,-0.12267
752.2,878.9,-0.0435,-0.12033
753.9,882.2,-0.0435,-0.11347
755.6,885.4,-0.0445,-0.1086
757.3,888.7,-0.0455,-0.10581
759.0,891.9,-0.0455,-9.85E-02
760.7,895.2,-0.0455,-9.34E-02
762.4,898.4,-0.0455,-8.89E-02
764.1,901.7,-0.0455,-8.78E-02
765.8,904.9,-0.0468,-8.54E-02
767.5,908.2,-0.0464,-8.22E-02
769.2,911.5,-0.0455,-7.92E-02
770.9,914.7,-0.0442,-8.08E-02
772.6,918.0,-0.0442,-7.60E-02
774.3,921.3,-0.0439,-7.15E-02
776.0,924.5,-0.0433,-6.80E-02
777.7,927.8,-0.0426,-6.57E-02
779.4,931.1,-0.0412,-5.89E-02
781.1,934.3,-0.0409,-5.62E-02
782.8,937.6,-0.0409,-5.02E-02
784.5,940.9,-0.0422,-4.63E-02
786.2,944.2,-0.0422,-4.06E-02
787.9,947.4,-0.0422,-4.03E-02
789.6,950.7,-0.0436,-3.70E-02
791.3,954.0,-0.0435,-3.34E-02
793.0,957.3,-0.0445,-3.08E-02
794.7,960.6,-0.0445,-2.93E-02
796.4,963.9,-0.0445,-2.82E-02
798.1,967.1,-0.0448,-2.07E-02
799.8,970.4,-0.0448,-2.34E-02
801.5,973.7,-0.0461,-2.23E-02
803.2,977.0,-0.0449,-1.98E-02
804.9,980.3,-0.0448,-1.64E-02
806.6,983.6,-0.0435,-1.55E-02
808.3,986.9,-0.0448,-1.31E-02
810.0,990.2,-0.0461,-1.22E-02
811.7,993.5,-0.0461,-1.12E-02
813.4,996.8,-0.0447,-8.73E-03
273.2,-600.6,0.0000,
273.2,-600.6,0.0000,
273.2,-600.6,0.0000,
273.2,-600.6,0.0000,
273.2,-600.6,0.0000,

File: FSRI_STA_N2_30K_3.csv
Temp,time,TGA,DSC
[K],[s],[mg],[mW/mg]
322.2,0.0,3.9307,-3.73E-03
323.9,42.3,3.9288,9.71E-02
325.6,52.9,3.9302,0.17376
327.3,60.7,3.9297,0.23814
329.0,67.3,3.9313,0.29306
330.7,73.2,3.9302,0.3439
332.4,78.4,3.9290,0.38705
334.1,83.4,3.9307,0.42805
335.8,88.1,3.9285,0.46426
337.5,92.5,3.9308,0.49735
339.2,96.8,3.9298,0.52641
340.9,101.0,3.9296,0.55581
342.6,105.1,3.9299,0.58016
344.3,109.1,3.9303,0.60647
346.0,113.0,3.9299,0.63053
347.7,116.8,3.9312,0.65097
349.4,120.6,3.9312,0.6734
351.1,124.4,3.9301,0.69446
352.8,128.1,3.9307,0.71519
354.5,131.8,3.9305,0.73236
356.2,135.4,3.9288,0.75153
357.9,139.0,3.9307,0.76479
359.6,142.6,3.9306,0.77508
361.3,146.2,3.9303,0.77964
363.0,149.7,3.9291,0.78177
364.7,153.2,3.9291,0.78212
366.4,156.7,3.9291,0.78364
368.1,160.2,3.9291,0.78511
369.8,163.7,3.9290,0.78903
371.5,167.2,3.9289,0.79455
373.2,170.6,3.9298,0.80273
374.9,174.1,3.9289,0.8091
376.6,177.5,3.9290,0.81685
378.3,181.0,3.9290,0.82317
380.0,184.4,3.9278,0.83234
381.7,187.8,3.9276,0.84258
383.4,191.3,3.9285,0.85007
385.1,194.7,3.9285,0.85994
386.8,198.1,3.9284,0.87293
388.5,201.5,3.9276,0.88632
390.2,205.0,3.9275,0.89571
391.9,208.4,3.9276,0.90931
393.6,211.8,3.9266,0.92279
395.3,215.2,3.9276,0.94355
397.0,218.5,3.9263,0.96213
398.7,221.9,3.9263,0.98168
400.4,225.3,3.9274,1.00234
402.1,228.6,3.9263,1.02511
403.8,232.0,3.9269,1.04314
405.5,235.3,3.9276,1.05863
407.2,238.7,3.9262,1.07479
408.9,242.0,3.9257,1.09084
410.6,245.3,3.9256,1.10436
412.3,248.6,3.9256,1.11733
414.0,251.9,3.9263,1.13144
415.7,255.2,3.9257,1.13848
417.4,258.5,3.9256,1.14994
419.1,261.7,3.9257,1.15721
420.8,265.0,3.9247,1.16691
422.5,268.2,3.9233,1.17743
424.2,271.5,3.9230,1.18317
425.9,274.7,3.9230,1.19105
427.6,278.0,3.9230,1.20209
429.3,281.2,3.9217,1.21092
431.0,284.5,3.9207,1.2173
432.7,287.7,3.9190,1.22619
434.4,290.9,3.9191,1.23602
436.1,294.1,3.9191,1.24711
437.8,297.4,3.9192,1.25631
439.5,300.6,3.9177,1.26658
441.2,303.8,3.9176,1.28166
442.9,307.0,3.9164,1.29534
444.6,310.2,3.9151,1.30985
446.3,313.4,3.9151,1.32547
448.0,316.6,3.9138,1.34356
449.7,319.8,3.9129,1.36201
451.4,322.9,3.9112,1.38248
453.1,326.1,3.9096,1.40048
454.8,329.3,3.9077,1.42068
456.5,332.5,3.9062,1.4412
458.2,335.6,3.9044,1.45852
459.9,338.8,3.9026,1.481
461.6,341.9,3.8990,1.49694
463.3,345.1,3.8964,1.51465
465.0,348.2,3.8918,1.52945
466.7,351.4,3.8892,1.5443
468.4,354.5,3.8859,1.55413
470.1,357.6,3.8826,1.56206
471.8,360.7,3.8805,1.57001
473.5,363.9,3.8784,1.57754
475.2,367.0,3.8729,1.57524
476.9,370.1,3.8687,1.57634
478.6,373.2,3.8659,1.57404
480.3,376.4,3.8631,1.56917
482.0,379.5,3.8603,1.56513
483.7,382.6,3.8568,1.56128
485.4,385.7,3.8539,1.55751
487.1,388.8,3.8505,1.5564
488.8,392.0,3.8483,1.55424
490.5,395.1,3.8447,1.55549
492.2,398.2,3.8407,1.5563
493.9,401.3,3.8379,1.56237
495.6,404.4,3.8344,1.56774
497.3,407.5,3.8320,1.5719
499.0,410.6,3.8273,1.57888
500.7,413.7,3.8257,1.58671
502.4,416.9,3.8215,1.58892
504.1,420.0,3.8208,1.59417
505.8,423.1,3.8171,1.59056
507.5,426.2,3.8134,1.58605
509.2,429.3,3.8113,1.57781
510.9,432.4,3.8099,1.56729
512.6,435.5,3.8086,1.55292
514.3,438.6,3.8063,1.53921
516.0,441.7,3.8046,1.52685
517.7,444.8,3.8032,1.51547
519.4,447.9,3.8019,1.50607
521.1,451.0,3.8019,1.49708
522.8,454.1,3.8006,1.49341
524.5,457.1,3.7993,1.48963
526.2,460.2,3.7993,1.4869
527.9,463.3,3.7980,1.48577
529.6,466.4,3.7980,1.48817
531.3,469.5,3.7967,1.48886
533.0,472.6,3.7965,1.49114
534.7,475.7,3.7954,1.49241
536.4,478.8,3.7953,1.49421
538.1,481.9,3.7946,1.4989
539.8,484.9,3.7940,1.50355
541.5,488.0,3.7927,1.50649
543.2,491.1,3.7913,1.51476
544.9,494.2,3.7911,1.52106
546.6,497.3,3.7898,1.5281
548.3,500.4,3.7884,1.53584
550.0,503.4,3.7877,1.54562
551.7,506.5,3.7871,1.55306
553.4,509.6,3.7850,1.56466
555.1,512.7,3.7834,1.57516
556.8,515.8,3.7821,1.58981
558.5,518.9,3.7806,1.6022
560.2,521.9,3.7789,1.61458
561.9,525.0,3.7759,1.62589
563.6,528.1,3.7745,1.64662
565.3,531.2,3.7701,1.66334
567.0,534.3,3.7672,1.68157
568.7,537.4,3.7641,1.70124
570.4,540.5,3.7613,1.72661
572.1,543.5,3.7569,1.75233
573.8,546.6,3.7530,1.77928
575.5,549.7,3.7499,1.80424
577.2,552.8,3.7451,1.82686
578.9,555.9,3.7395,1.85127
580.6,559.0,3.7341,1.8697
582.3,562.1,3.7297,1.8896
584.0,565.2,3.7235,1.91222
585.7,568.3,3.7173,1.93074
587.4,571.3,3.7111,1.95088
589.1,574.4,3.7039,1.97247
590.8,577.5,3.6961,1.99125
592.5,580.6,3.6896,2.01078
594.2,583.7,3.6823,2.03062
595.9,586.8,3.6744,2.05442
597.6,589.9,3.6648,2.08172
599.3,593.0,3.6553,2.11324
601.0,596.1,3.6465,2.15131
602.7,599.2,3.6362,2.19805
604.4,602.3,3.6251,2.25321
606.1,605.5,3.6136,2.31703
607.8,608.6,3.6000,2.38919
609.5,611.7,3.5856,2.47546
611.2,614.8,3.5692,2.57077
612.9,617.9,3.5511,2.68239
614.6,621.0,3.5316,2.80622
616.3,624.1,3.5105,2.93889
618.0,627.3,3.4876,3.08789
619.7,630.4,3.4606,3.25333
621.4,633.5,3.4296,3.43414
623.1,636.7,3.3984,3.62973
624.8,639.8,3.3621,3.83863
626.5,642.9,3.3238,4.06853
628.2,646.1,3.2816,4.31418
629.9,649.3,3.2339,4.57589
631.6,652.4,3.1831,4.8564
633.3,655.6,3.1308,5.14374
635.0,658.8,3.0694,5.44483
636.7,662.0,3.0005,5.76064
638.4,665.1,2.9350,6.08273
640.1,668.3,2.8577,6.40692
641.8,671.5,2.7751,6.7322
643.5,674.7,2.6937,7.05616
645.2,677.9,2.6063,7.37063
646.9,681.1,2.5083,7.67748
648.6,684.3,2.4118,7.92782
650.3,687.5,2.3084,8.12713
652.0,690.7,2.1961,8.25327
653.7,693.9,2.0904,8.38858
655.4,697.1,1.9790,8.5197
657.1,700.3,1.8631,8.61281
658.8,703.5,1.7543,8.59291
660.5,706.7,1.6390,8.52858
662.2,709.9,1.5227,8.41565
663.9,713.1,1.4170,8.24383
665.6,716.3,1.3062,8.08189
667.3,719.4,1.1955,7.84456
669.0,722.6,1.0958,7.49834
670.7,725.8,0.9979,7.21756
672.4,729.0,0.8985,7.04887
674.1,732.1,0.8113,6.76826
675.8,735.3,0.7231,6.40681
677.5,738.4,0.6361,5.97981
679.2,741.6,0.5603,5.509
680.9,744.7,0.4919,5.01288
682.6,747.8,0.4262,4.52035
684.3,751.0,0.3702,4.04504
686.0,754.1,0.3202,3.59901
687.7,757.2,0.2747,3.18533
689.4,760.4,0.2346,2.79517
691.1,763.5,0.2013,2.42972
692.8,766.6,0.1716,2.09329
694.5,769.7,0.1426,1.79094
696.2,772.9,0.1221,1.52091
697.9,776.0,0.1062,1.28224
699.6,779.2,0.0913,1.07685
701.3,782.3,0.0805,0.90181
703.0,785.5,0.0695,0.75267
704.7,788.6,0.0589,0.62805
706.4,791.8,0.0523,0.52368
708.1,794.9,0.0468,0.43304
709.8,798.1,0.0424,0.36295
711.5,801.3,0.0387,0.30347
713.2,804.5,0.0354,0.25387
714.9,807.7,0.0330,0.21157
716.6,810.8,0.0307,0.17975
718.3,814.0,0.0287,0.14954
720.0,817.2,0.0273,0.13379
721.7,820.4,0.0256,0.11337
723.4,823.7,0.0245,9.90E-02
725.1,826.9,0.0233,8.45E-02
726.8,830.1,0.0228,7.66E-02
728.5,833.3,0.0228,6.85E-02
730.2,836.5,0.0228,6.38E-02
731.9,839.7,0.0215,6.61E-02
733.6,843.0,0.0215,7.17E-02
735.3,846.2,0.0215,7.06E-02
737.0,849.4,0.0231,6.81E-02
738.7,852.6,0.0231,5.75E-02
740.4,855.9,0.0231,5.05E-02
742.1,859.1,0.0231,4.01E-02
743.8,862.4,0.0228,4.07E-02
745.5,865.6,0.0228,4.24E-02
747.2,868.9,0.0225,4.79E-02
748.9,872.1,0.0225,5.67E-02
750.6,875.4,0.0225,6.55E-02
752.3,878.6,0.0221,7.99E-02
754.0,881.9,0.0215,9.02E-02
755.7,885.1,0.0228,9.79E-02
757.4,888.4,0.0228,0.10511
759.1,891.7,0.0229,0.11558
760.8,894.9,0.0238,0.12386
762.5,898.2,0.0238,0.13186
764.2,901.4,0.0238,0.13755
765.9,904.7,0.0238,0.14546
767.6,908.0,0.0238,0.15031
769.3,911.3,0.0225,0.1553
771.0,914.5,0.0225,0.15673
772.7,917.8,0.0225,0.16314
774.4,921.1,0.0225,0.16907
776.1,924.3,0.0211,0.16659
777.8,927.6,0.0202,0.17496
779.5,930.9,0.0226,0.17665
781.2,934.2,0.0229,0.17954
782.9,937.5,0.0229,0.18196
784.6,940.7,0.0240,0.18229
786.3,944.0,0.0229,0.18523
788.0,947.3,0.0216,0.18806
789.7,950.6,0.0216,0.18515
791.4,953.9,0.0216,0.18394
793.1,957.2,0.0216,0.18641
794.8,960.5,0.0205,0.18686
796.5,963.7,0.0216,0.18688
798.2,967.0,0.0229,0.19061
799.9,970.3,0.0216,0.19442
801.6,973.6,0.0226,0.19092
803.3,976.9,0.0226,0.19542
805.0,980.2,0.0213,0.19596
806.7,983.5,0.0213,0.19883
808.4,986.8,0.0226,0.19777
810.1,990.1,0.0226,0.20231
811.8,993.4,0.0226,0.20556
813.5,996.7,0.0212,0.20874
273.2,-600.6,0.0000,
273.2,-600.6,0.0000,
273.2,-600.6,0.0000,
273.2,-600.6,0.0000,
273.2,-600.6,0.0000,