Folder: matl-db/PMMA/Calibration_Data/FSRI (part 6)

File: FSRI_STA_N2_20K_3.csv
Temp,time ,TGA,DSC,Sensitivity,Heating Rate,Heat Capacity,Heat Capacity,Heat Capacity
[K],[s],[mg],[uV/mg],[mW/uV],[K/s],[J/g/K],[J/g/K],[J/g/K]
322.1,0.0,3.9773,6.10E-03,2.861,0.005,3.22,0.46,-2.211
324.9,57.2,3.9785,0.15353,1.412,0.141,1.54,1.59,1.391
327.7,73.5,3.9769,0.24792,1.207,0.200,1.50,1.51,1.430
330.5,86.3,3.9779,0.31415,1.126,0.234,1.51,1.49,1.445
333.3,97.6,3.9778,0.36479,1.049,0.259,1.48,1.48,1.446
336.1,108.0,3.9777,0.40698,1.027,0.276,1.51,1.50,1.478
338.9,117.8,3.9773,0.43947,1.006,0.288,1.53,1.53,1.487
341.7,127.4,3.9783,0.46549,0.973,0.296,1.53,1.53,1.506
344.5,136.7,3.9756,0.48996,0.958,0.306,1.54,1.52,1.520
347.3,145.8,3.9777,0.5094,0.939,0.306,1.56,1.57,1.535
350.1,154.9,3.9770,0.52852,0.939,0.312,1.59,1.60,1.584
352.9,163.8,3.9781,0.5433,0.925,0.312,1.61,1.61,1.597
355.7,172.7,3.9755,0.5549,0.916,0.315,1.61,1.61,1.591
358.5,181.6,3.9770,0.55333,0.914,0.319,1.58,1.60,1.585
361.3,190.3,3.9770,0.55036,0.920,0.322,1.57,1.58,1.574
364.1,199.0,3.9769,0.55047,0.913,0.325,1.55,1.55,1.546
366.9,207.6,3.9757,0.5491,0.914,0.326,1.54,1.55,1.551
369.7,216.2,3.9768,0.55611,0.912,0.329,1.54,1.56,1.547
372.5,224.7,3.9761,0.56532,0.911,0.328,1.57,1.56,1.560
375.3,233.2,3.9758,0.57292,0.907,0.330,1.57,1.60,1.570
378.1,241.6,3.9768,0.5832,0.901,0.331,1.59,1.58,1.595
380.9,250.1,3.9770,0.59441,0.900,0.334,1.60,1.59,1.607
383.7,258.5,3.9756,0.60602,0.896,0.338,1.60,1.64,1.626
386.5,266.8,3.9756,0.61889,0.896,0.333,1.67,1.67,1.642
389.3,275.2,3.9757,0.63443,0.897,0.338,1.69,1.69,1.714
392.1,283.5,3.9756,0.65392,0.898,0.341,1.72,1.74,1.753
394.9,291.8,3.9745,0.67583,0.891,0.339,1.78,1.80,1.791
397.7,300.0,3.9747,0.7005,0.899,0.341,1.85,1.82,1.850
400.5,308.3,3.9743,0.72591,0.888,0.340,1.90,1.94,1.877
403.3,316.4,3.9753,0.74447,0.888,0.352,1.88,1.95,1.918
406.1,324.5,3.9743,0.75782,0.896,0.342,1.99,1.99,1.930
408.9,332.7,3.9740,0.76993,0.885,0.346,1.97,1.99,1.955
411.7,340.8,3.9727,0.78157,0.892,0.348,2.00,2.00,1.996
414.5,348.8,3.9714,0.78716,0.887,0.342,2.04,2.01,1.997
417.3,356.9,3.9717,0.79208,0.886,0.348,2.02,2.00,1.997
420.1,365.0,3.9704,0.80057,0.891,0.347,2.06,2.05,2.043
422.9,373.0,3.9690,0.80774,0.886,0.350,2.05,2.04,2.071
425.7,381.0,3.9682,0.8151,0.887,0.349,2.07,2.08,2.066
428.5,388.9,3.9664,0.82405,0.893,0.353,2.08,2.10,2.090
431.3,396.9,3.9651,0.83177,0.886,0.349,2.11,2.11,2.100
434.1,404.8,3.9651,0.83917,0.883,0.352,2.11,2.15,2.095
436.9,412.8,3.9625,0.85302,0.884,0.353,2.14,2.13,2.125
439.7,420.7,3.9612,0.86728,0.884,0.354,2.17,2.17,2.159
442.5,428.6,3.9605,0.88155,0.885,0.358,2.18,2.19,2.199
445.3,436.6,3.9591,0.90081,0.884,0.351,2.27,2.24,2.271
448.1,444.5,3.9559,0.91917,0.876,0.353,2.28,2.26,2.287
450.9,452.4,3.9519,0.9398,0.886,0.353,2.36,2.33,2.354
453.7,460.3,3.9483,0.96115,0.885,0.355,2.39,2.41,2.405
456.5,468.2,3.9441,0.97818,0.885,0.355,2.44,2.44,2.445
459.3,476.1,3.9398,0.99678,0.890,0.355,2.50,2.49,2.506
462.1,483.9,3.9325,1.0075,0.889,0.357,2.51,2.51,2.522
464.9,491.8,3.9266,1.01483,0.889,0.358,2.52,2.55,2.519
467.7,499.7,3.9208,1.0157,0.894,0.354,2.56,2.55,2.563
470.5,507.5,3.9151,1.01284,0.888,0.355,2.53,2.53,2.529
473.3,515.3,3.9076,1.00539,0.893,0.359,2.50,2.52,2.523
476.1,523.2,3.9035,0.99652,0.886,0.352,2.50,2.48,2.477
478.9,531.0,3.8963,0.98685,0.890,0.357,2.46,2.47,2.477
481.7,538.8,3.8923,0.98218,0.886,0.358,2.43,2.42,2.453
484.5,546.7,3.8868,0.98552,0.895,0.357,2.47,2.45,2.463
487.3,554.5,3.8825,0.98712,0.893,0.357,2.47,2.46,2.484
490.1,562.3,3.8769,0.99595,0.890,0.359,2.47,2.52,2.482
492.9,570.2,3.8729,1.00321,0.894,0.358,2.51,2.51,2.509
495.7,578.0,3.8661,1.00651,0.891,0.358,2.51,2.50,2.538
498.5,585.8,3.8620,1.00256,0.896,0.359,2.50,2.53,2.527
501.3,593.6,3.8578,0.99042,0.897,0.361,2.46,2.46,2.514
504.1,601.5,3.8537,0.97017,0.901,0.358,2.44,2.44,2.450
506.9,609.3,3.8510,0.9505,0.895,0.358,2.38,2.38,2.378
509.7,617.1,3.8487,0.93383,0.902,0.359,2.35,2.36,2.372
512.5,624.9,3.8461,0.92112,0.906,0.360,2.32,2.33,2.333
515.3,632.7,3.8448,0.91445,0.898,0.357,2.30,2.33,2.309
518.1,640.5,3.8436,0.91291,0.909,0.362,2.29,2.30,2.344
520.9,648.3,3.8422,0.91399,0.906,0.354,2.34,2.30,2.333
523.7,656.1,3.8408,0.91489,0.911,0.358,2.33,2.32,2.354
526.5,663.9,3.8402,0.91591,0.902,0.357,2.31,2.33,2.328
529.3,671.7,3.8389,0.92118,0.911,0.360,2.33,2.32,2.323
532.1,679.5,3.8372,0.92128,0.908,0.358,2.33,2.35,2.362
534.9,687.3,3.8349,0.92731,0.917,0.361,2.36,2.36,2.388
537.7,695.1,3.8336,0.93466,0.920,0.359,2.40,2.40,2.413
540.5,702.9,3.8324,0.94289,0.920,0.359,2.42,2.45,2.433
543.3,710.7,3.8310,0.95,0.921,0.358,2.44,2.43,2.460
546.1,718.5,3.8280,0.96125,0.916,0.360,2.44,2.49,2.481
548.9,726.3,3.8241,0.97181,0.921,0.358,2.50,2.50,2.529
551.7,734.1,3.8215,0.9849,0.920,0.360,2.52,2.54,2.546
554.5,742.0,3.8181,0.99918,0.920,0.356,2.58,2.58,2.570
557.3,749.8,3.8134,1.01599,0.921,0.358,2.61,2.60,2.624
560.1,757.6,3.8079,1.03296,0.939,0.360,2.69,2.68,2.731
562.9,765.4,3.8016,1.05253,0.927,0.357,2.73,2.71,2.758
565.7,773.3,3.7950,1.07294,0.926,0.358,2.78,2.75,2.804
568.5,781.1,3.7884,1.10196,0.937,0.358,2.88,2.87,2.926
571.3,788.9,3.7803,1.13457,0.932,0.358,2.95,2.95,2.989
574.1,796.7,3.7693,1.16121,0.936,0.357,3.04,3.04,3.054
576.9,804.6,3.7601,1.17491,0.938,0.355,3.10,3.08,3.123
579.7,812.4,3.7488,1.19056,0.944,0.360,3.12,3.12,3.175
582.5,820.3,3.7371,1.20212,0.950,0.358,3.19,3.15,3.225
585.3,828.1,3.7244,1.21013,0.946,0.355,3.22,3.19,3.271
588.1,836.0,3.7128,1.22134,0.942,0.357,3.23,3.21,3.324
590.9,843.9,3.6972,1.23841,0.950,0.357,3.29,3.37,3.423
593.7,851.7,3.6812,1.26218,0.949,0.355,3.38,3.44,3.517
596.5,859.6,3.6642,1.29328,0.954,0.355,3.48,3.57,3.658
599.3,867.5,3.6442,1.35458,0.957,0.354,3.66,3.75,3.842
602.1,875.4,3.6198,1.44546,0.956,0.352,3.92,3.93,4.058
604.9,883.3,3.5925,1.56165,0.958,0.354,4.23,4.22,4.349
607.7,891.2,3.5592,1.69393,0.965,0.353,4.63,4.56,4.741
610.5,899.1,3.5212,1.84923,0.964,0.353,5.05,5.04,5.158
613.3,907.1,3.4759,2.02739,0.966,0.353,5.55,5.53,5.673
616.1,915.0,3.4201,2.23145,0.967,0.351,6.14,6.18,6.285
618.9,923.0,3.3561,2.46945,0.973,0.349,6.88,6.89,6.964
621.7,931.0,3.2808,2.74081,0.972,0.352,7.56,7.56,7.744
624.5,939.0,3.1903,3.03544,0.973,0.349,8.45,8.48,8.532
627.3,947.0,3.0865,3.35085,0.978,0.347,9.45,9.53,9.609
630.1,955.1,2.9703,3.68376,0.981,0.348,10.38,10.43,10.524
632.9,963.1,2.8382,4.01708,0.982,0.347,11.36,11.46,11.529
635.7,971.2,2.6909,4.33931,0.990,0.347,12.40,12.52,12.616
638.5,979.3,2.5308,4.63412,0.991,0.348,13.21,13.30,13.482
641.3,987.3,2.3543,4.87156,0.992,0.347,13.94,13.90,14.155
644.1,995.4,2.1708,5.02576,0.999,0.348,14.41,14.62,14.632
646.9,1003.5,1.9808,5.11511,0.997,0.347,14.71,14.86,14.922
649.7,1011.5,1.7862,5.13288,0.997,0.348,14.71,14.77,14.976
652.5,1019.6,1.5927,5.11335,0.995,0.349,14.57,14.74,14.776
655.3,1027.6,1.3996,4.97417,1.004,0.349,14.33,14.41,14.500
658.1,1035.6,1.2089,4.75724,1.008,0.350,13.70,13.61,13.855
660.9,1043.6,1.0330,4.43221,1.004,0.350,12.72,12.56,12.747
663.7,1051.6,0.8693,4.02629,1.011,0.351,11.60,11.40,11.621
666.5,1059.5,0.7180,3.58244,1.014,0.355,10.24,10.15,10.316
669.3,1067.3,0.5902,3.11795,1.019,0.354,8.97,8.89,9.034
672.1,1075.3,0.4777,2.66933,1.020,0.357,7.64,7.61,7.650
674.9,1083.2,0.3809,2.23848,1.023,0.356,6.44,6.40,6.436
677.7,1091.0,0.3027,1.85486,1.022,0.356,5.32,5.31,5.323
680.5,1098.9,0.2372,1.50836,1.040,0.356,4.41,4.36,4.422
683.3,1106.9,0.1841,1.20117,1.019,0.353,3.47,3.46,3.457
686.1,1114.8,0.1439,0.94021,1.029,0.353,2.74,2.74,2.725
688.9,1122.7,0.1113,0.72708,1.037,0.354,2.13,2.14,2.128
691.7,1130.7,0.0880,0.55929,1.040,0.350,1.66,1.66,1.644
694.5,1138.7,0.0691,0.42871,1.042,0.347,1.29,1.28,1.259
697.3,1146.7,0.0569,0.32747,1.047,0.349,0.98,0.98,0.982
700.1,1154.7,0.0468,0.2542,1.050,0.347,0.77,0.76,0.748
702.9,1162.7,0.0396,0.20066,1.056,0.349,0.61,0.60,0.582
705.7,1170.8,0.0331,0.15783,1.051,0.347,0.48,0.48,0.468
708.5,1178.8,0.0293,0.12947,1.055,0.347,0.39,0.39,0.385
711.3,1186.9,0.0267,0.11153,1.063,0.348,0.34,0.33,0.318
714.1,1195.0,0.0253,0.1001,1.065,0.348,0.31,0.29,0.278
716.9,1203.0,0.0241,0.10034,1.063,0.347,0.31,0.28,0.273
719.7,1211.1,0.0230,0.10299,1.062,0.346,0.32,0.30,0.282
722.5,1219.2,0.0215,7.82E-02,1.070,0.346,0.24,0.24,0.264
725.3,1227.3,0.0216,4.71E-02,1.068,0.344,0.15,0.12,0.161
728.1,1235.5,0.0218,3.28E-02,1.076,0.345,0.10,0.08,0.111
730.9,1243.5,0.0218,5.19E-02,1.079,0.344,0.16,0.18,0.137
733.7,1251.7,0.0218,8.94E-02,1.084,0.342,0.28,0.30,0.191
736.5,1259.8,0.0210,0.12032,1.087,0.345,0.38,0.39,0.248
739.3,1268.0,0.0211,0.14388,1.087,0.343,0.46,0.44,0.280
742.1,1276.2,0.0218,0.15387,1.090,0.343,0.49,0.48,0.303
744.9,1284.3,0.0202,0.16359,1.099,0.341,0.53,0.50,0.326
747.7,1292.5,0.0205,0.16799,1.101,0.342,0.54,0.50,0.344
750.5,1300.7,0.0205,0.16663,1.099,0.342,0.54,0.50,0.356
753.3,1308.9,0.0205,0.16651,1.111,0.342,0.54,0.50,0.351
756.1,1317.1,0.0218,0.16962,1.107,0.344,0.55,0.50,0.360
758.9,1325.3,0.0205,0.17172,1.116,0.342,0.56,0.51,0.360
761.7,1333.4,0.0205,0.17083,1.119,0.342,0.56,0.51,0.370
764.5,1341.6,0.0209,0.17092,1.105,0.343,0.55,0.51,0.372
767.3,1349.9,0.0219,0.17452,1.120,0.339,0.58,0.51,0.377
770.1,1358.0,0.0208,0.17525,1.131,0.341,0.58,0.51,0.391
772.9,1366.3,0.0221,0.17908,1.130,0.341,0.59,0.52,0.396
775.7,1374.5,0.0208,0.18073,1.136,0.341,0.60,0.54,0.406
778.5,1382.7,0.0221,0.17938,1.139,0.343,0.60,0.54,0.418
781.3,1390.9,0.0208,0.18384,1.143,0.339,0.62,0.55,0.428
784.1,1399.1,0.0202,0.18515,1.144,0.341,0.62,0.55,0.429
786.9,1407.3,0.0202,0.18786,1.155,0.339,0.64,0.57,0.439
789.7,1415.5,0.0215,0.189,1.147,0.340,0.64,0.56,0.438
792.5,1423.8,0.0198,0.19068,1.154,0.340,0.65,0.58,0.446
795.3,1432.0,0.0205,0.19197,1.157,0.341,0.65,0.58,0.447
798.1,1440.2,0.0205,0.19303,1.164,0.342,0.66,0.60,0.460
800.9,1448.4,0.0202,0.19549,1.166,0.340,0.67,0.61,0.465
803.7,1456.6,0.0214,0.19615,1.166,0.338,0.68,0.61,0.463
806.5,1464.9,0.0218,0.19863,1.176,0.338,0.69,0.62,0.477
809.3,1473.1,0.0205,0.20063,1.173,0.339,0.69,0.62,0.479
812.1,1481.3,0.0205,0.20453,1.177,0.338,0.71,0.63,0.486
814.9,1489.6,0.0206,0.20212,1.188,0.336,0.71,0.65,0.489
817.7,1497.9,0.0201,0.20527,1.172,0.336,0.72,0.65,0.490
817.8,1498.2,0.0201,0.2056,1.166,0.337,0.71,0.64,0.486

File: FSRI_STA_N2_30K_1.csv
Temp,time,TGA,DSC
[K],[s],[mg],[mW/mg]
322.1,0.0,4.0291,1.38E-03
323.8,42.0,4.0288,0.10031
325.5,52.8,4.0306,0.17758
327.2,60.6,4.0315,0.24282
328.9,67.2,4.0296,0.29805
330.6,73.0,4.0291,0.34752
332.3,78.3,4.0285,0.39289
334.0,83.3,4.0280,0.43383
335.7,88.0,4.0271,0.46954
337.4,92.5,4.0306,0.49953
339.1,96.8,4.0278,0.5315
340.8,101.0,4.0293,0.56013
342.5,105.0,4.0286,0.58811
344.2,109.0,4.0275,0.61166
345.9,113.0,4.0276,0.63458
347.6,116.8,4.0301,0.66087
349.3,120.6,4.0311,0.68252
351.0,124.4,4.0297,0.70287
352.7,128.1,4.0292,0.72383
354.4,131.8,4.0277,0.74508
356.1,135.4,4.0289,0.76174
357.8,139.1,4.0304,0.77554
359.5,142.7,4.0289,0.7855
361.2,146.2,4.0292,0.79107
362.9,149.8,4.0301,0.79362
364.6,153.3,4.0308,0.79545
366.3,156.8,4.0303,0.79604
368.0,160.3,4.0299,0.79981
369.7,163.8,4.0318,0.80491
371.4,167.3,4.0297,0.80943
373.1,170.7,4.0280,0.81907
374.8,174.2,4.0283,0.82717
376.5,177.6,4.0295,0.83158
378.2,181.1,4.0295,0.8428
379.9,184.5,4.0294,0.85221
381.6,187.9,4.0306,0.86017
383.3,191.4,4.0295,0.87027
385.0,194.8,4.0291,0.8825
386.7,198.2,4.0292,0.89067
388.4,201.6,4.0279,0.9049
390.1,205.0,4.0270,0.91867
391.8,208.4,4.0282,0.9337
393.5,211.8,4.0289,0.94932
395.2,215.2,4.0282,0.96642
396.9,218.6,4.0282,0.98724
398.6,222.0,4.0269,1.00791
400.3,225.3,4.0274,1.0304
402.0,228.7,4.0274,1.05001
403.7,232.0,4.0269,1.06977
405.4,235.4,4.0282,1.08465
407.1,238.7,4.0269,1.10119
408.8,242.0,4.0269,1.11274
410.5,245.4,4.0269,1.12833
412.2,248.7,4.0256,1.13587
413.9,252.0,4.0256,1.14881
415.6,255.3,4.0256,1.15591
417.3,258.5,4.0256,1.16559
419.0,261.8,4.0247,1.17671
420.7,265.1,4.0243,1.18435
422.4,268.3,4.0243,1.1919
424.1,271.6,4.0229,1.20131
425.8,274.8,4.0229,1.21085
427.5,278.1,4.0216,1.21629
429.2,281.3,4.0203,1.2239
430.9,284.6,4.0194,1.23341
432.6,287.8,4.0190,1.24312
434.3,291.0,4.0190,1.25126
436.0,294.2,4.0190,1.26248
437.7,297.5,4.0190,1.27206
439.4,300.7,4.0177,1.28338
441.1,303.9,4.0164,1.29376
442.8,307.1,4.0163,1.30685
444.5,310.3,4.0137,1.31969
446.2,313.5,4.0124,1.33504
447.9,316.7,4.0119,1.34733
449.6,319.9,4.0111,1.36537
451.3,323.1,4.0098,1.38298
453.0,326.2,4.0085,1.3995
454.7,329.4,4.0071,1.4179
456.4,332.6,4.0070,1.43693
458.1,335.7,4.0058,1.45921
459.8,338.9,4.0039,1.47551
461.5,342.0,4.0013,1.49439
463.2,345.2,3.9981,1.51314
464.9,348.3,3.9941,1.53027
466.6,351.5,3.9917,1.5435
468.3,354.6,3.9891,1.55742
470.0,357.7,3.9858,1.57068
471.7,360.9,3.9833,1.57695
473.4,364.0,3.9815,1.58352
475.1,367.1,3.9770,1.5895
476.8,370.2,3.9726,1.59022
478.5,373.4,3.9698,1.58916
480.2,376.5,3.9644,1.5879
481.9,379.6,3.9606,1.58553
483.6,382.7,3.9568,1.58521
485.3,385.8,3.9545,1.58048
487.0,388.9,3.9523,1.58008
488.7,392.1,3.9489,1.58339
490.4,395.2,3.9470,1.58654
492.1,398.3,3.9419,1.59147
493.8,401.4,3.9401,1.59917
495.5,404.5,3.9354,1.60914
497.2,407.6,3.9332,1.61421
498.9,410.7,3.9302,1.62288
500.6,413.8,3.9264,1.63257
502.3,416.9,3.9236,1.63975
504.0,420.0,3.9207,1.64529
505.7,423.1,3.9170,1.64712
507.4,426.2,3.9137,1.64399
509.1,429.3,3.9105,1.64157
510.8,432.4,3.9076,1.63221
512.5,435.5,3.9056,1.61862
514.2,438.5,3.9025,1.60469
515.9,441.6,3.9012,1.59004
517.6,444.7,3.8981,1.57386
519.3,447.8,3.8968,1.5606
521.0,450.9,3.8955,1.5496
522.7,454.0,3.8954,1.54346
524.4,457.1,3.8942,1.53696
526.1,460.2,3.8935,1.53184
527.8,463.3,3.8928,1.52891
529.5,466.3,3.8920,1.52714
531.2,469.4,3.8915,1.52776
532.9,472.5,3.8902,1.52764
534.6,475.6,3.8895,1.52926
536.3,478.7,3.8887,1.53441
538.0,481.8,3.8876,1.53677
539.7,484.9,3.8876,1.54221
541.4,487.9,3.8862,1.54705
543.1,491.0,3.8862,1.55287
544.8,494.1,3.8862,1.55938
546.5,497.2,3.8837,1.56532
548.2,500.3,3.8836,1.57453
549.9,503.4,3.8825,1.5809
551.6,506.5,3.8808,1.58954
553.3,509.6,3.8794,1.60134
555.0,512.7,3.8778,1.61236
556.7,515.8,3.8754,1.62235
558.4,518.9,3.8726,1.63715
560.1,522.0,3.8699,1.64824
561.8,525.0,3.8681,1.66364
563.5,528.1,3.8652,1.68004
565.2,531.2,3.8632,1.69738
566.9,534.3,3.8597,1.71634
568.6,537.4,3.8567,1.73617
570.3,540.5,3.8533,1.76643
572.0,543.6,3.8498,1.79755
573.7,546.7,3.8444,1.82695
575.4,549.8,3.8396,1.8554
577.1,552.9,3.8340,1.87957
578.8,556.0,3.8280,1.90463
580.5,559.1,3.8221,1.92798
582.2,562.2,3.8162,1.94565
583.9,565.3,3.8099,1.96359
585.6,568.4,3.8047,1.98371
587.3,571.5,3.7983,2.00274
589.0,574.6,3.7924,2.02221
590.7,577.7,3.7835,2.03911
592.4,580.8,3.7761,2.0584
594.1,583.9,3.7696,2.07827
595.8,587.0,3.7599,2.09893
597.5,590.1,3.7514,2.12711
599.2,593.2,3.7421,2.15684
600.9,596.3,3.7334,2.19582
602.6,599.5,3.7225,2.24369
604.3,602.6,3.7104,2.30289
606.0,605.7,3.6974,2.37542
607.7,608.8,3.6833,2.45636
609.4,611.9,3.6685,2.55162
611.1,615.0,3.6500,2.65512
612.8,618.2,3.6312,2.7699
614.5,621.3,3.6111,2.90125
616.2,624.4,3.5887,3.04431
617.9,627.5,3.5618,3.20596
619.6,630.7,3.5360,3.37832
621.3,633.8,3.5035,3.57098
623.0,637.0,3.4670,3.77857
624.7,640.1,3.4303,4.00715
626.4,643.3,3.3889,4.24974
628.1,646.4,3.3423,4.51062
629.8,649.6,3.2902,4.78971
631.5,652.8,3.2362,5.08143
633.2,656.0,3.1742,5.38838
634.9,659.1,3.1090,5.71007
636.6,662.3,3.0408,6.04107
638.3,665.5,2.9624,6.36836
640.0,668.7,2.8803,6.70466
641.7,671.9,2.7955,7.03667
643.4,675.1,2.7039,7.35333
645.1,678.3,2.6054,7.65669
646.8,681.5,2.5057,7.92629
648.5,684.7,2.3980,8.15803
650.2,687.9,2.2851,8.34294
651.9,691.1,2.1736,8.52408
653.6,694.3,2.0545,8.64191
655.3,697.5,1.9362,8.74227
657.0,700.8,1.8210,8.80958
658.7,703.9,1.6975,8.83575
660.4,707.1,1.5767,8.80739
662.1,710.3,1.4610,8.70381
663.8,713.5,1.3397,8.55514
665.5,716.7,1.2223,8.34065
667.2,719.9,1.1125,8.06228
668.9,723.0,1.0020,7.7192
670.6,726.2,0.8956,7.32032
672.3,729.4,0.8011,6.8936
674.0,732.5,0.7092,6.44612
675.7,735.6,0.6197,5.98748
677.4,738.8,0.5455,5.51385
679.1,741.9,0.4727,5.04789
680.8,745.0,0.4060,4.56968
682.5,748.1,0.3487,4.11264
684.2,751.3,0.2969,3.69125
685.9,754.4,0.2490,3.29947
687.6,757.5,0.2072,2.93046
689.3,760.6,0.1702,2.58199
691.0,763.7,0.1379,2.25428
692.7,766.9,0.1098,1.95452
694.4,770.0,0.0878,1.68222
696.1,773.1,0.0667,1.43859
697.8,776.3,0.0495,1.22383
699.5,779.4,0.0366,1.03824
701.2,782.5,0.0246,0.87773
702.9,785.7,0.0148,0.74011
704.6,788.8,0.0063,0.62715
706.3,792.0,-0.0020,0.5287
708.0,795.1,-0.0058,0.44692
709.7,798.3,-0.0111,0.38078
711.4,801.5,-0.0151,0.32386
713.1,804.7,-0.0180,0.2804
714.8,807.8,-0.0198,0.24896
716.5,811.0,-0.0211,0.2335
718.2,814.2,-0.0226,0.22576
719.9,817.3,-0.0243,0.23281
721.6,820.5,-0.0254,0.23895
723.3,823.7,-0.0268,0.24172
725.0,826.9,-0.0276,0.22336
726.7,830.1,-0.0294,0.19061
728.4,833.4,-0.0294,0.14086
730.1,836.6,-0.0307,7.66E-02
731.8,839.8,-0.0307,2.20E-02
733.5,843.1,-0.0306,1.46E-02
735.2,846.3,-0.0297,4.02E-02
736.9,849.5,-0.0310,7.21E-02
738.6,852.8,-0.0311,0.10293
740.3,856.0,-0.0310,0.12689
742.0,859.3,-0.0297,0.14479
743.7,862.5,-0.0287,0.15962
745.4,865.7,-0.0297,0.15987
747.1,869.0,-0.0311,0.16196
748.8,872.2,-0.0312,0.16376
750.5,875.5,-0.0324,0.16149
752.2,878.7,-0.0311,0.16721
753.9,882.0,-0.0311,0.16467
755.6,885.2,-0.0311,0.16558
757.3,888.5,-0.0311,0.16911
759.0,891.7,-0.0322,0.16812
760.7,895.0,-0.0324,0.17237
762.4,898.2,-0.0331,0.17174
764.1,901.5,-0.0324,0.17616
765.8,904.7,-0.0324,0.17947
767.5,908.0,-0.0324,0.17962
769.2,911.3,-0.0324,0.17843
770.9,914.5,-0.0317,0.18114
772.6,917.8,-0.0318,0.18286
774.3,921.0,-0.0311,0.18314
776.0,924.3,-0.0311,0.18695
777.7,927.6,-0.0311,0.18917
779.4,930.9,-0.0301,0.19028
781.1,934.1,-0.0311,0.19328
782.8,937.4,-0.0329,0.19574
784.5,940.7,-0.0329,0.19877
786.2,943.9,-0.0343,0.19722
787.9,947.2,-0.0330,0.19802
789.6,950.5,-0.0315,0.20073
791.3,953.7,-0.0345,0.20157
793.0,957.0,-0.0357,0.20668
794.7,960.3,-0.0344,0.20684
796.4,963.6,-0.0337,0.20785
798.1,966.9,-0.0330,0.21165
799.8,970.2,-0.0331,0.21197
801.5,973.5,-0.0328,0.21116
803.2,976.7,-0.0317,0.21532
804.9,980.0,-0.0317,0.21642
806.6,983.3,-0.0323,0.21748
808.3,986.6,-0.0322,0.22125
810.0,989.9,-0.0324,0.22121
811.7,993.2,-0.0324,0.22183
813.4,996.5,-0.0324,0.22358
814.8,999.3,-0.0311,0.2263