Folder: matl-db/PMMA/Calibration_Data/FSRI (part 4)

File: FSRI_STA_N2_10K_2.csv
Temp,time,TGA,DSC
[K],[s],[mg],[mW/mg]
323,0,3.9537,8.92E-04
324.7,61.4,3.9529,7.71E-02
326.4,80,3.9528,0.11872
328.1,95.1,3.9534,0.14763
329.8,108.4,3.9533,0.16961
331.5,120.9,3.9531,0.18339
333.2,132.8,3.9511,0.19618
334.9,144.4,3.9511,0.20689
336.6,155.8,3.9511,0.21139
338.3,167.1,3.9497,0.21771
340,178.2,3.9497,0.22327
341.7,189.3,3.9511,0.2294
343.4,200.2,3.9517,0.23242
345.1,211.1,3.9511,0.23688
346.8,221.9,3.9508,0.24301
348.5,232.6,3.9499,0.24453
350.2,243.3,3.9482,0.24783
351.9,253.8,3.9495,0.25317
353.6,264.4,3.9494,0.25493
355.3,274.9,3.9482,0.25454
357,285.3,3.9482,0.25358
358.7,295.7,3.9482,0.25178
360.4,306,3.9482,0.25328
362.1,316.3,3.9495,0.25306
363.8,326.5,3.9483,0.25436
365.5,336.7,3.9494,0.25274
367.2,346.9,3.9474,0.25601
368.9,357,3.9465,0.25819
370.6,367.2,3.9482,0.25879
372.3,377.4,3.9465,0.26217
374,387.4,3.9459,0.26656
375.7,397.5,3.9456,0.26621
377.4,407.5,3.9456,0.27048
379.1,417.6,3.9442,0.27381
380.8,427.6,3.9455,0.27554
382.5,437.6,3.9455,0.28172
384.2,447.6,3.9446,0.28486
385.9,457.6,3.9455,0.28871
387.6,467.6,3.9442,0.29395
389.3,477.6,3.9442,0.29845
391,487.6,3.9442,0.3043
392.7,497.5,3.9429,0.31228
394.4,507.5,3.9429,0.31997
396.1,517.4,3.9442,0.32692
397.8,527.3,3.943,0.3358
399.5,537.3,3.9429,0.33986
401.2,547.2,3.9429,0.34567
402.9,557.1,3.9406,0.35063
404.6,567,3.9416,0.35315
406.3,576.9,3.9406,0.3576
408,586.8,3.9403,0.35852
409.7,596.7,3.9403,0.36187
411.4,606.5,3.939,0.36254
413.1,616.4,3.937,0.3648
414.8,626.2,3.937,0.36531
416.5,636.1,3.937,0.36678
418.2,645.9,3.9361,0.37094
419.9,655.7,3.9357,0.37114
421.6,665.5,3.9354,0.37813
423.3,675.3,3.934,0.37609
425,685.1,3.9327,0.37927
426.7,694.9,3.9317,0.38446
428.4,704.8,3.9317,0.38546
430.1,714.6,3.9304,0.38763
431.8,724.4,3.9292,0.39057
433.5,734.2,3.9278,0.39317
435.2,744,3.9278,0.39937
436.9,753.8,3.926,0.40637
438.6,763.6,3.924,0.41202
440.3,773.4,3.9212,0.41962
442,783.2,3.9198,0.42662
443.7,793,3.9195,0.43346
445.4,802.8,3.9159,0.44043
447.1,812.6,3.9143,0.44663
448.8,822.4,3.9117,0.44981
450.5,832.2,3.91,0.45882
452.2,842,3.9058,0.46448
453.9,851.8,3.9025,0.46676
455.6,861.6,3.8999,0.47042
457.3,871.3,3.8945,0.47287
459,881.1,3.8911,0.47442
460.7,890.9,3.8872,0.47195
462.4,900.7,3.8835,0.4697
464.1,910.5,3.8786,0.46707
465.8,920.3,3.8752,0.45914
467.5,930.1,3.8699,0.45764
469.2,939.8,3.8672,0.45259
470.9,949.6,3.8644,0.45456
472.6,959.4,3.8607,0.45049
474.3,969.2,3.856,0.4519
476,978.9,3.8538,0.45329
477.7,988.7,3.851,0.45574
479.4,998.5,3.8475,0.45999
481.1,1008.2,3.8459,0.46245
482.8,1018,3.8397,0.46381
484.5,1027.7,3.8373,0.46552
486.2,1037.5,3.8347,0.46548
487.9,1047.2,3.8327,0.46123
489.6,1057,3.8314,0.45626
491.3,1066.7,3.8288,0.44773
493,1076.5,3.8261,0.44167
494.7,1086.2,3.8221,0.43925
496.4,1096,3.8222,0.43234
498.1,1105.7,3.8195,0.42763
499.8,1115.4,3.8208,0.42623
501.5,1125.2,3.8195,0.42275
503.2,1134.9,3.8195,0.42481
504.9,1144.6,3.8185,0.42221
506.6,1154.4,3.8173,0.42381
508.3,1164.1,3.8172,0.42319
510,1173.9,3.8186,0.42452
511.7,1183.6,3.8159,0.42464
513.4,1193.4,3.8159,0.42777
515.1,1203.1,3.8133,0.42788
516.8,1212.9,3.8126,0.42986
518.5,1222.7,3.8119,0.4307
520.2,1232.4,3.812,0.43334
521.9,1242.2,3.8106,0.43753
523.6,1252,3.8093,0.43976
525.3,1261.7,3.8093,0.44129
527,1271.5,3.8067,0.44725
528.7,1281.2,3.8067,0.45729
530.4,1290.9,3.8068,0.46452
532.1,1300.7,3.8041,0.47043
533.8,1310.4,3.8035,0.47273
535.5,1320.1,3.8028,0.48036
537.2,1329.8,3.8001,0.48367
538.9,1339.6,3.7975,0.489
540.6,1349.3,3.7948,0.49257
542.3,1359.1,3.7935,0.49797
544,1368.8,3.7909,0.50249
545.7,1378.5,3.7892,0.50815
547.4,1388.3,3.7853,0.51284
549.1,1398.1,3.7816,0.51698
550.8,1407.9,3.7772,0.52366
552.5,1417.7,3.7731,0.53113
554.2,1427.5,3.769,0.53599
555.9,1437.3,3.7638,0.5444
557.6,1447.1,3.761,0.55137
559.3,1456.9,3.7555,0.56043
561,1466.7,3.7489,0.56655
562.7,1476.5,3.7433,0.5769
564.4,1486.2,3.7376,0.58248
566.1,1496,3.7306,0.58665
567.8,1505.8,3.724,0.59402
569.5,1515.6,3.7171,0.5966
571.2,1525.3,3.7106,0.60541
572.9,1535.1,3.7036,0.6099
574.6,1544.9,3.6952,0.61413
576.3,1554.8,3.6859,0.61667
578,1564.6,3.6791,0.61155
579.7,1574.3,3.6682,0.60711
581.4,1584.1,3.6585,0.61661
583.1,1593.9,3.6501,0.62838
584.8,1603.7,3.6379,0.65005
586.5,1613.5,3.6295,0.67331
588.2,1623.4,3.6146,0.69805
589.9,1633.3,3.6004,0.72702
591.6,1643.1,3.5858,0.75972
593.3,1652.9,3.5707,0.7969
595,1662.8,3.5519,0.83382
596.7,1672.7,3.5319,0.87769
598.4,1682.5,3.51,0.92627
600.1,1692.4,3.4861,0.98113
601.8,1702.3,3.4593,1.04012
603.5,1712.1,3.4286,1.10747
605.2,1722,3.3937,1.1832
606.9,1731.9,3.3565,1.26192
608.6,1741.8,3.3136,1.34932
610.3,1751.7,3.2669,1.44433
612,1761.5,3.2175,1.54337
613.7,1771.5,3.1606,1.6557
615.4,1781.5,3.1001,1.76956
617.1,1791.4,3.0328,1.88823
618.8,1801.4,2.958,2.0084
620.5,1811.4,2.8773,2.12911
622.2,1821.3,2.792,2.25425
623.9,1831.3,2.7031,2.37336
625.6,1841.3,2.6055,2.48789
627.3,1851.3,2.5022,2.59329
629,1861.2,2.3949,2.68571
630.7,1871.2,2.2798,2.76685
632.4,1881.2,2.1628,2.8304
634.1,1891.2,2.0445,2.87498
635.8,1901.1,1.9222,2.88627
637.5,1911,1.802,2.87174
639.2,1920.9,1.6804,2.81117
640.9,1930.9,1.5557,2.81896
642.6,1940.8,1.4345,2.79058
644.3,1950.7,1.315,2.76004
646,1960.6,1.1984,2.68537
647.7,1970.4,1.085,2.58436
649.4,1980.3,0.9761,2.45716
651.1,1990.2,0.8728,2.31668
652.8,2000,0.773,2.1838
654.5,2009.8,0.6803,2.03879
656.2,2019.6,0.5929,1.89098
657.9,2029.5,0.5129,1.73857
659.6,2039.3,0.4392,1.58475
661.3,2049.1,0.3713,1.43295
663,2058.9,0.3114,1.28053
664.7,2068.8,0.2572,1.14033
666.4,2078.6,0.2094,1.01684
668.1,2088.4,0.166,0.89281
669.8,2098.2,0.129,0.78157
671.5,2108.1,0.0943,0.68247
673.2,2118,0.0632,0.58898
674.9,2127.9,0.0389,0.50371
676.6,2137.8,0.0188,0.42878
678.3,2147.7,0.0012,0.36197
680,2157.6,-0.0138,0.30345
681.7,2167.5,-0.0279,0.25342
683.4,2177.5,-0.0388,0.21288
685.1,2187.4,-0.0455,0.1744
686.8,2197.3,-0.0547,0.14992
688.5,2207.3,-0.0636,0.1234
690.2,2217.2,-0.0691,0.10268
691.9,2227.2,-0.0714,8.79E-02
693.6,2237.2,-0.0758,7.74E-02
695.3,2247.2,-0.0784,7.37E-02
697,2257.1,-0.0819,7.61E-02
698.7,2267.1,-0.0836,7.56E-02
700.4,2277.1,-0.0863,7.22E-02
702.1,2287.1,-0.0862,6.62E-02
703.8,2297.1,-0.0898,5.94E-02
705.5,2307.1,-0.0902,5.25E-02
707.2,2317.1,-0.0917,3.96E-02
708.9,2327.1,-0.0915,1.90E-02
710.6,2337.1,-0.0902,-1.31E-02
712.3,2347.1,-0.0912,-3.41E-02
714,2357.1,-0.0922,-2.98E-02
715.7,2367.2,-0.0922,-1.79E-02
717.4,2377.2,-0.0935,-6.41E-03
719.1,2387.3,-0.0929,-5.41E-03
720.8,2397.3,-0.0929,-3.39E-03
722.5,2407.3,-0.0929,1.79E-03
724.2,2417.4,-0.0915,2.25E-03
725.9,2427.5,-0.0929,5.11E-03
727.6,2437.5,-0.0929,8.41E-03
729.3,2447.5,-0.0922,7.69E-03
731,2457.6,-0.0909,1.25E-02
732.7,2467.7,-0.0909,1.27E-02
734.4,2477.8,-0.0932,1.49E-02
736.1,2487.8,-0.0929,1.35E-02
737.8,2497.8,-0.0929,1.03E-02
739.5,2507.9,-0.0925,1.15E-02
741.2,2518,-0.0939,1.23E-02
742.9,2528.1,-0.0929,1.32E-02
744.6,2538.2,-0.0932,1.82E-02
746.3,2548.3,-0.0932,1.50E-02
748,2558.3,-0.0932,1.90E-02
749.7,2568.4,-0.0912,2.19E-02
751.4,2578.4,-0.0912,2.04E-02
753.1,2588.5,-0.0925,2.00E-02
754.8,2598.6,-0.0912,2.25E-02
756.5,2608.7,-0.0935,2.17E-02
758.2,2618.7,-0.0935,2.42E-02
759.9,2628.8,-0.0935,2.47E-02
761.6,2638.9,-0.0932,2.70E-02
763.3,2649,-0.0942,2.88E-02
765,2659,-0.0942,3.08E-02
766.7,2669.1,-0.0916,3.09E-02
768.4,2679.2,-0.0925,3.23E-02
770.1,2689.3,-0.0916,3.35E-02
771.8,2699.4,-0.0922,3.58E-02
773.5,2709.4,-0.0922,3.54E-02
775.2,2719.5,-0.0909,3.82E-02
776.9,2729.6,-0.0909,3.71E-02
778.6,2739.7,-0.0922,3.80E-02
780.3,2749.8,-0.0922,4.07E-02
782,2759.9,-0.0922,4.25E-02
783.7,2770,-0.0929,4.09E-02
785.4,2780.2,-0.0922,4.24E-02
787.1,2790.3,-0.093,4.14E-02
788.8,2800.4,-0.0919,4.49E-02
790.5,2810.6,-0.0935,4.79E-02
792.2,2820.7,-0.0935,4.84E-02
793.9,2830.8,-0.0922,4.81E-02
795.6,2841,-0.0922,4.92E-02
797.3,2851.1,-0.0909,5.01E-02
799,2861.3,-0.0916,5.37E-02
800.7,2871.4,-0.0932,5.18E-02
802.4,2881.5,-0.0932,5.31E-02
804.1,2891.7,-0.0925,5.40E-02
805.8,2901.8,-0.0938,5.29E-02
807.5,2912,-0.0925,5.64E-02
809.2,2922.1,-0.0925,5.52E-02
810.9,2932.3,-0.0915,5.59E-02
812.6,2942.5,-0.0933,5.59E-02
814.3,2952.7,-0.0929,5.82E-02
816,2962.8,-0.0903,5.64E-02
817.7,2973,-0.0929,6.05E-02
819.4,2983.2,-0.0915,6.17E-02
821.1,2993.3,-0.0929,6.12E-02
822.1,2999.4,-0.0929,5.95E-02

File: FSRI_STA_N2_10K_3.csv
Temp,time,TGA,DSC
[K],[s],[mg],[mW/mg]
323,0,3.9002,-2.16E-03
324.7,61.7,3.8981,7.75E-02
326.4,80.3,3.8964,0.12477
328.1,95.2,3.8959,0.15613
329.8,108.5,3.8944,0.17727
331.5,120.9,3.8967,0.19395
333.2,132.8,3.8953,0.20501
334.9,144.5,3.8954,0.2141
336.6,155.9,3.8952,0.22278
338.3,167.1,3.8953,0.22597
340,178.2,3.8954,0.23171
341.7,189.1,3.8958,0.23585
343.4,200.1,3.8951,0.24245
345.1,211,3.8947,0.24525
346.8,221.8,3.8929,0.25192
348.5,232.6,3.8939,0.2577
350.2,243.2,3.893,0.26313
351.9,253.8,3.8926,0.26562
353.6,264.5,3.893,0.26807
355.3,275,3.8916,0.26567
357,285.5,3.8916,0.266
358.7,295.9,3.8916,0.26534
360.4,306.3,3.8926,0.26286
362.1,316.6,3.8899,0.26493
363.8,326.9,3.889,0.2665
365.5,337.1,3.8897,0.2672
367.2,347.3,3.889,0.27054
368.9,357.5,3.889,0.27334
370.6,367.6,3.8886,0.27649
372.3,377.7,3.888,0.27687
374,387.8,3.8877,0.28226
375.7,397.9,3.8864,0.28392
377.4,408,3.8877,0.28612
379.1,418,3.8864,0.29333
380.8,428,3.8864,0.29572
382.5,437.9,3.8851,0.2973
384.2,447.9,3.8853,0.30269
385.9,457.9,3.8837,0.3055
387.6,467.9,3.8837,0.3105
389.3,477.9,3.885,0.31461
391,487.8,3.8851,0.32238
392.7,497.8,3.8824,0.33205
394.4,507.7,3.8824,0.33798
396.1,517.6,3.8811,0.34787
397.8,527.5,3.8824,0.35513
399.5,537.5,3.8798,0.36124
401.2,547.5,3.8795,0.36799
402.9,557.4,3.8795,0.37267
404.6,567.3,3.8785,0.37759
406.3,577.2,3.8785,0.37779
408,587.2,3.8785,0.38241
409.7,597,3.8775,0.38363
411.4,606.9,3.8772,0.38744
413.1,616.8,3.8755,0.3885
414.8,626.6,3.8755,0.3916
416.5,636.5,3.8753,0.39306
418.2,646.3,3.8729,0.39644
419.9,656.1,3.8732,0.39622
421.6,665.9,3.8726,0.39866
423.3,675.8,3.8712,0.40107
425,685.7,3.8712,0.4034
426.7,695.5,3.8689,0.40675
428.4,705.3,3.8686,0.41275
430.1,715,3.867,0.41783
431.8,724.8,3.865,0.42327
433.5,734.7,3.8651,0.42606
435.2,744.4,3.8638,0.43259
436.9,754.3,3.861,0.43851
438.6,764.1,3.8597,0.44513
440.3,773.8,3.8581,0.4486
442,783.6,3.8571,0.45369
443.7,793.4,3.8542,0.46049
445.4,803.2,3.8515,0.46668
447.1,813,3.8495,0.47613
448.8,822.8,3.8462,0.48243
450.5,832.6,3.843,0.49013
452.2,842.3,3.8403,0.49758
453.9,852.1,3.8376,0.50192
455.6,861.9,3.8332,0.50048
457.3,871.7,3.8299,0.50509
459,881.5,3.8258,0.50502
460.7,891.3,3.8222,0.5035
462.4,901,3.8178,0.50492
464.1,910.8,3.814,0.50184
465.8,920.5,3.81,0.49761
467.5,930.3,3.8064,0.49343
469.2,940,3.8044,0.48877
470.9,949.7,3.8004,0.48728
472.6,959.4,3.7952,0.48428
474.3,969.1,3.7916,0.48141
476,978.9,3.7873,0.48306
477.7,988.7,3.7847,0.48417
479.4,998.4,3.782,0.48397
481.1,1008.2,3.7781,0.48753
482.8,1018,3.7755,0.48813
484.5,1027.7,3.7723,0.49301
486.2,1037.4,3.7676,0.49011
487.9,1047.2,3.7649,0.49218
489.6,1056.9,3.7625,0.48645
491.3,1066.7,3.7597,0.48407
493,1076.4,3.7584,0.4759
494.7,1086.1,3.7557,0.47151
496.4,1095.9,3.7557,0.46212
498.1,1105.6,3.7521,0.45846
499.8,1115.3,3.7521,0.45534
501.5,1125,3.7521,0.45259
503.2,1134.8,3.7508,0.45399
504.9,1144.5,3.7493,0.45323
506.6,1154.3,3.7489,0.45199
508.3,1164,3.7476,0.45494
510,1173.7,3.7489,0.45437
511.7,1183.4,3.7476,0.45564
513.4,1193.1,3.7469,0.45762
515.1,1202.9,3.747,0.45843
516.8,1212.6,3.7453,0.45875
518.5,1222.3,3.745,0.46139
520.2,1232.1,3.743,0.46304
521.9,1241.8,3.7417,0.46138
523.6,1251.6,3.7417,0.46506
525.3,1261.3,3.7404,0.4653
527,1271.1,3.7404,0.47018
528.7,1280.9,3.739,0.47042
530.4,1290.6,3.7377,0.47375
532.1,1300.4,3.7364,0.47795
533.8,1310.1,3.7338,0.48084
535.5,1319.9,3.7345,0.48506
537.2,1329.7,3.7331,0.48915
538.9,1339.5,3.7317,0.49433
540.6,1349.3,3.7278,0.4992
542.3,1359.1,3.7252,0.50094
544,1368.9,3.7249,0.50747
545.7,1378.7,3.7221,0.51493
547.4,1388.5,3.7183,0.5253
549.1,1398.3,3.717,0.53307
550.8,1408.1,3.714,0.5396
552.5,1417.9,3.7098,0.55199
554.2,1427.6,3.7057,0.56054
555.9,1437.4,3.7029,0.56928
557.6,1447.2,3.6994,0.5783
559.3,1457,3.6938,0.58372
561,1466.7,3.6882,0.58957
562.7,1476.5,3.6824,0.59627
564.4,1486.3,3.6767,0.59869
566.1,1496.1,3.67,0.60667
567.8,1505.8,3.6639,0.60852
569.5,1515.6,3.6578,0.61244
571.2,1525.4,3.6485,0.6133
572.9,1535.2,3.6429,0.61433
574.6,1545,3.6353,0.61722
576.3,1554.8,3.6256,0.62146
578,1564.6,3.617,0.63
579.7,1574.4,3.6092,0.64263
581.4,1584.2,3.6014,0.65705
583.1,1594,3.5902,0.66889
584.8,1603.8,3.5816,0.68834
586.5,1613.7,3.5701,0.7047
588.2,1623.5,3.5571,0.72846
589.9,1633.3,3.5433,0.75389
591.6,1643.1,3.5304,0.78321
593.3,1652.9,3.513,0.81496
595,1662.7,3.4957,0.85435
596.7,1672.6,3.4755,0.89685
598.4,1682.4,3.4548,0.94215
600.1,1692.3,3.4307,0.9962
601.8,1702.1,3.4055,1.05717
603.5,1711.9,3.3758,1.12351
605.2,1721.8,3.3416,1.19372
606.9,1731.6,3.3073,1.27415
608.6,1741.5,3.2667,1.35845
610.3,1751.4,3.2199,1.45437
612,1761.3,3.1705,1.55562
613.7,1771.3,3.1139,1.6669
615.4,1781.2,3.0554,1.77856
617.1,1791.2,2.9893,1.89671
618.8,1801.1,2.9195,2.01843
620.5,1811.1,2.8423,2.14526
622.2,1821.1,2.7564,2.26932
623.9,1831.1,2.6664,2.39241
625.6,1841.1,2.5725,2.50752
627.3,1851.2,2.472,2.61822
629,1861.2,2.367,2.71623
630.7,1871.2,2.2555,2.80323
632.4,1881.2,2.1392,2.87441
634.1,1891.2,2.0204,2.92066
635.8,1901.2,1.9014,2.94805
637.5,1911.1,1.7796,2.93106
639.2,1921.1,1.658,2.91447
640.9,1931,1.5394,2.86195
642.6,1940.9,1.4193,2.84788
644.3,1950.8,1.2992,2.81347
646,1960.6,1.1846,2.72447
647.7,1970.5,1.0717,2.61681
649.4,1980.4,0.9664,2.49158
651.1,1990.2,0.8631,2.34253
652.8,2000,0.7696,2.1956
654.5,2009.8,0.6804,2.03863
656.2,2019.6,0.5948,1.88851
657.9,2029.4,0.5187,1.73267
659.6,2039.2,0.4468,1.58007
661.3,2049,0.3835,1.43068
663,2058.8,0.3246,1.27956
664.7,2068.6,0.2705,1.14459
666.4,2078.4,0.2257,1.01431
668.1,2088.3,0.1831,0.89012
669.8,2098.1,0.147,0.78019
671.5,2108,0.1135,0.67663
673.2,2117.9,0.0858,0.58523
674.9,2127.8,0.0615,0.49831
676.6,2137.7,0.0405,0.42503
678.3,2147.7,0.023,0.35829
680,2157.6,0.0089,0.30287
681.7,2167.5,-0.0051,0.25342
683.4,2177.5,-0.0156,0.21344
685.1,2187.4,-0.0245,0.17869
686.8,2197.4,-0.0323,0.14746
688.5,2207.3,-0.0394,0.11836
690.2,2217.2,-0.0434,0.10163
691.9,2227.2,-0.0473,8.56E-02
693.6,2237.1,-0.053,6.95E-02
695.3,2247.1,-0.0571,6.20E-02
697,2257,-0.0584,5.18E-02
698.7,2267,-0.0594,4.84E-02
700.4,2277,-0.0606,4.58E-02
702.1,2286.9,-0.0623,4.48E-02
703.8,2296.9,-0.0637,4.62E-02
705.5,2306.8,-0.066,4.62E-02
707.2,2316.8,-0.065,4.32E-02
708.9,2326.9,-0.066,3.12E-02
710.6,2336.9,-0.066,1.39E-02
712.3,2346.9,-0.0686,-1.12E-02
714,2357,-0.0695,-3.28E-02
715.7,2367,-0.0692,-3.23E-02
717.4,2377.1,-0.0686,-1.67E-02
719.1,2387.2,-0.0673,8.10E-05
720.8,2397.3,-0.0685,1.06E-02
722.5,2407.3,-0.0673,1.73E-02
724.2,2417.3,-0.0673,2.29E-02
725.9,2427.4,-0.0704,2.57E-02
727.6,2437.4,-0.0715,3.01E-02
729.3,2447.4,-0.068,2.43E-02
731,2457.4,-0.0667,2.54E-02
732.7,2467.4,-0.068,2.88E-02
734.4,2477.5,-0.0694,2.88E-02
736.1,2487.5,-0.0666,2.89E-02
737.8,2497.6,-0.0666,3.33E-02
739.5,2507.6,-0.0679,3.14E-02
741.2,2517.7,-0.0666,3.29E-02
742.9,2527.7,-0.0697,3.32E-02
744.6,2537.8,-0.0692,3.58E-02
746.3,2547.9,-0.0683,3.77E-02
748,2557.9,-0.0683,3.65E-02
749.7,2568,-0.0696,3.85E-02
751.4,2578.1,-0.0683,3.65E-02
753.1,2588.2,-0.0696,3.85E-02
754.8,2598.3,-0.0682,3.65E-02
756.5,2608.4,-0.0694,4.01E-02
758.2,2618.4,-0.0682,3.75E-02
759.9,2628.5,-0.0696,4.36E-02
761.6,2638.6,-0.0673,4.19E-02
763.3,2648.7,-0.0673,4.17E-02
765,2658.8,-0.0669,4.33E-02
766.7,2668.8,-0.0683,4.18E-02
768.4,2678.9,-0.0669,4.89E-02
770.1,2689,-0.0669,4.85E-02
771.8,2699.1,-0.0669,4.56E-02
773.5,2709.3,-0.0656,4.65E-02
775.2,2719.5,-0.067,4.47E-02
776.9,2729.6,-0.0676,4.62E-02
778.6,2739.7,-0.0676,4.97E-02
780.3,2749.8,-0.0689,5.16E-02
782,2760,-0.0676,5.06E-02
783.7,2770.1,-0.0663,5.38E-02
785.4,2780.2,-0.0663,5.50E-02
787.1,2790.3,-0.0673,5.75E-02
788.8,2800.4,-0.0673,6.09E-02
790.5,2810.5,-0.0673,6.34E-02
792.2,2820.6,-0.0663,6.08E-02
793.9,2830.7,-0.0663,6.33E-02
795.6,2840.9,-0.0663,6.53E-02
797.3,2851,-0.0669,6.61E-02
799,2861.1,-0.0666,6.90E-02
800.7,2871.3,-0.0679,6.45E-02
802.4,2881.4,-0.0683,6.66E-02
804.1,2891.6,-0.0682,7.06E-02
805.8,2901.7,-0.0683,7.06E-02
807.5,2911.9,-0.0669,7.02E-02
809.2,2922,-0.0663,7.11E-02
810.9,2932.2,-0.0663,7.10E-02
812.6,2942.3,-0.0669,7.09E-02
814.3,2952.4,-0.0679,7.33E-02
816,2962.6,-0.0669,7.29E-02
817.7,2972.8,-0.0666,7.26E-02
819.4,2983,-0.0669,7.65E-02
821.1,2993.2,-0.0669,7.46E-02
822.1,2999.2,-0.0669,7.31E-02