Folder: matl-db/PMMA/Calibration_Data/GIDAZE+

Note: PMMA/Calibration_Data/GIDAZE+/README.md
# GIDAZE+ 
GIDAZE+ is made of three groups working together: Imperial College London, Universidad de Cantabria and Reax Engineering.

### Experimental Conditions: TGA, DSC
A Netzsch F3 Jupiter was used to conduct Simultaneous Thermal Analysis (TGA + DSC) experiments. Although tests were conducted simultaneously, TGA and DSC measurement data presented here are separated into two files, for consistency with other datasets.
Note: DSC heat flow data was rescaled (multiplied by -1)such that endothermic heat flow events are positive (endo up)

* Heating Rate: 10 K/min
* Temperature program
  - Initial Temperature: 303 K
  - Initial Isotherm: None
  - Maximum Temperature: 923 K
  - Final Isotherm: None
* Sample mass: 2-6 mg
* Sample geometry: powdered
* Calibration type: Before each experiment, a baseline test was performed using an empty crucible. Internal mass calibration are performed before each experimental campaigns. [Heat/Temperature calibration?]
* Crucible 
  - Type: Al2O3 [Not Pt or Al for DSC?]
  - Volume: 85 ÂµL
  - Diameter: 6.8 mm
  - Mass: None
  - Lid: None
  - Note: None
* Carrier Gas
  - Type: Air, low oxygen (10.5%), Nitrogen
  - Flow rate: 60  ml/min
  - Note: Air (21% O2), 10.5% O2, or Pure Nitrogen (0% O2)
* Instrument
  - Type: Netzsch F3 Jupiter
  - Note: Simultaneous Thermal Analysis (TGA + DSC), measurement data presented as two separated files

| Test Name | O2 volume % |  Initial Sample Mass (mg) | 
| --------- | :---------: | :------------------------: |
|GIDAZE+\_STA\_N2\_10K\_1 | 0 | 2.015|  
|GIDAZE+\_STA\_N2\_10K\_2 | 0 | 1.978|  
|GIDAZE+\_STA\_O2\-10\_10K\_1 | 10.5 | 1.976|  
|GIDAZE+\_STA\_O2\-10\_10K\_2 | 10.5 | 1.993|  
|GIDAZE+\_STA\_O2\-21\_10K\_1 | 21 | 2.04| 
|GIDAZE+\_STA\_O2\-21\_10K\_2 | 21 | 2.039|  
|GIDAZE+\_STA\_O2\-21\_10K\_3 | 21 | 6.044|  
|GIDAZE+\_STA\_O2\-21\_10K\_4 | 21 | 6.019|   


### Experimental Conditions: Cone Calorimeter
Cone calorimeter tests were conducted using a configuration similar to the Torero et. al. ('Determination of the flammability properties of polymeric materials: A novel method', March 2011, Polymer Degradation and Stability 96(3):314-319).

* Extraction flow rate: 24L/s
* Sample Surface Area: 0.01 m2 (nominal)
* Sample holder dimensions:
    - A block of aluminium (100 mm x 100 mm x 8 mm thick) at the rear face of the PMMA.
    - Retainer frame/grid: [None?]
* Backing Insulation: Ceramic fibre backing pad at the sides of the sample and the aluminum block and at the rear face of the aluminum block [thickness / thermal properties of insulation?]
* Thermocouple location:
    - T_1: central on sample exposed surface
    - T_3: in-depth at 3 mm
    - T_4: central on sample back surface

###### Test Heating Conditions  
|Test Name | Heat Flux (kW/m2)| Heater Temperature (K) 
|----------|:------:| :---: |
|GIDAZE+_Cone_25kW_1| 25 | 589 |
|GIDAZE+_Cone_25kW_2| 25 | 589 |
|GIDAZE+_Cone_65kW_1| 65 | 844 |
|GIDAZE+_Cone_65kW_2| 65 | 844 |

### Experimental Conditions: Fire Propagation

File: GIDAZE+_Cone_25kW_1.csv
Time,Mass,HRR,Temperature 1 Sample Front,Temperature 3 Inside,Temperature 4 Sample Back
[s],[g],[kW/m2],[K],[K],[K]
0,74.4,-0.372436,312.402,299.447,297.658
4,74.3613,-0.408085,324.803,299.695,297.473
8,74.31637,-0.372879,352.026,300.088,297.283
12,74.3629,-0.449731,375.931,301.202,297.181
16,74.3152,-0.0761478,397.232,303.453,297.148
20,74.3807,-0.248454,414.601,306.602,297.177
24,74.3327,-0.586352,428.777,310.339,297.221
28,74.2748,-0.327157,441.209,314.404,297.313
32,74.3333,0.568642,450.315,318.744,297.425
36,74.2773,0.846479,458.268,323.152,297.61
40,74.4782,1.71468,467.293,327.606,297.756
44,74.2955,1.574,477.332,332.078,297.971
48,74.4014,2.73688,481.188,336.565,298.243
52,74.2189,2.25542,485.146,341.007,298.552
56,74.3827,3.14523,487.453,345.375,298.88
60,74.181,3.15809,487.455,349.715,299.222
64,74.4022,3.14421,495.138,353.921,299.569
68,74.2591,3.24294,501.868,358.08,300.02
72,74.3165,2.95155,507.384,362.152,300.553
76,74.298,3.35737,514.82,366.146,301.256
80,74.2193,3.23783,514.245,370.05,301.82
84,74.3834,3.29713,511.282,373.94,302.304
88,74.2189,3.22955,513.719,377.771,302.918
92,74.3774,3.29191,519.459,381.603,303.715
96,74.3168,4.18846,527.798,385.42,305.019
100,74.4019,4.0106,531.49,389.18,306.167
104,74.2189,4.29638,531.965,392.858,307.522
108,74.3833,4.30756,533.904,396.397,308.756
112,74.1164,4.20413,536.923,399.815,310.005
116,74.2795,5.04839,533.383,403.043,311.358
120,74.0977,4.91703,539.807,406.138,312.805
124,74.263,5.24549,538.224,409.159,314.525
128,74.0408,4.77138,536.405,412.131,316.286
132,74.0986,51.5629,536.476,415.021,318.404
136,73.6526,163.04,681.769,417.963,321.925
140,73.3976,268.1,719.2,420.453,328.379
144,72.5305,334.779,704.74,423.007,335.02
148,72.2945,352.784,700.946,425.662,337.754
152,70.7254,369.716,695.959,428.412,339.655
156,71.1155,359.367,693.064,431.286,341.043
160,69.4403,383.554,690.883,434.207,342.049
164,69.7861,370.763,689.222,437.163,338.067
168,69.1233,367.455,688.429,440.205,332.767
172,68.6827,389.855,686.892,443.255,329.284
176,67.835,377.125,685.004,446.566,326.94
180,67.4961,373.691,683.322,450.168,325.278
184,66.5077,372.501,681.563,453.687,323.966
188,66.1856,376.667,681.277,456.91,323.204
192,65.2053,377.876,680.248,460.182,322.77
196,64.78645,387.454,678.734,463.738,322.589
200,64.1836,399.916,679.658,467.417,322.659
204,63.5864,385.97,679.597,471.224,322.996
208,63.0066,400.203,677.779,475.062,323.464
212,62.1057,397.764,676.765,478.822,324.064
216,61.7827,393.244,676.414,482.601,324.775
220,60.7013,393.347,675.98,486.593,325.602
224,60.2638,388.158,675.695,490.446,326.515
228,59.9799,377.514,674.879,494.358,327.375
232,58.7534,391.573,672.859,498.164,328.22
236,58.5325,401.046,673.186,501.975,329.095
240,57.4079,400.729,672.718,505.757,330.021
244,56.929,416.209,671.375,509.632,330.902
248,56.5854,397.721,671.956,513.637,331.752
252,55.0169,409.37,670.674,517.48,332.614
256,55.1788,410.67,669.696,521.224,333.51
260,54.3777,389.248,669.437,524.984,334.284
264,53.9403,387.385,667.981,528.712,335.085
268,52.513,406.921,668.721,532.406,335.811
272,52.2446,401.406,666.903,536.224,336.536
276,51.9462,396.367,667.208,582.166,337.39
280,51.0149,406.705,669.661,580.594,338.089
284,50.5413,410.083,667.353,576.029,338.761
288,49.4926,418.872,665.898,574.297,339.279
292,48.9244,425.489,664.715,555.422,340.013
296,48.7434,418.512,662.855,570.758,340.833
300,47.541,435.098,662.846,564.361,341.561
304,46.92494,440.967,662.076,572.648,342.279
308,46.5624,442.769,661.285,575.351,343.025
312,45.0587,434.436,659.994,596.959,343.702
316,45.0413,431.329,658.852,598.407,344.464
320,43.9172,457.148,659.419,603.793,345.166
324,43.2011,461.194,658.467,606.362,345.911
328,42.5131,468.196,658.752,609.612,346.684
332,41.41336,480.631,657.667,613.478,347.464
336,40.59452,454.475,655.691,614.888,348.218
340,40.4329,457.231,654.754,617.618,348.998
344,39.3671,473.294,654.934,619.48,349.845
348,38.5325,457.854,655.108,619.484,350.706
352,38.3031,490.901,655.499,620.307,351.55
356,37.0356,489.533,656.247,620.208,352.442
360,36.45228,512.407,656.434,621.977,353.374
364,35.745,495.441,657.262,623.675,354.415
368,34.6223,504.595,658.491,625.226,355.737
372,34.2006,498.853,658.815,626.632,357.647
376,33.0774,486.221,659.476,628.416,360.258
380,32.2822,487.639,660.622,630.794,363.588
384,31.8002,488.085,660.967,631.462,365.963
388,30.4624,511.657,660.993,629.904,368.103
392,30.1974,526.209,661.582,629.88,370
396,28.4989,512.209,667.637,630.029,371.907
400,28.3947,507.18,670.976,632.413,377.246
404,27.017,504.176,675.559,632.129,385.238
408,26.3694,522.223,679.145,636.94,391.283
412,25.8883,524.133,681.751,637.161,395.417
416,24.72918,523.249,682.727,638.808,397.279
420,23.8817,553.417,680.964,643.528,397.874
424,23.3201,522.907,679.179,651.501,398.974
428,21.8521,512.149,677.795,649.1,400.854
432,21.5884,457.683,677.501,649.128,402.959
436,20.704,433.471,678.694,650.442,404.45
440,19.7258,407.755,679.105,650.427,405.971
444,19.5657,415.386,679.78,651.592,407.228
448,18.3881,389.945,682.197,656.408,408.759
452,18.1493,379.646,685.663,659.532,410.264
456,17.59902,375.932,697.402,661.432,412.109
460,16.67845,365.951,709.86,659.928,414.77
464,16.2638,363.204,718.652,660.326,417.154
468,15.8631,388.217,724.467,661.113,420.05
472,14.5005,400.092,724.878,663.345,423.167
476,14.2603,357.579,719.533,666.107,425.926
480,13.6336,361.858,708.864,669.134,428.082
484,12.9576,352.411,707.909,670.494,430.461
488,12.7571,363.474,709.43,671.93,432.677
492,11.4214,389.984,710.396,672.44,434.219
496,11.2517,373.982,709.539,674.096,434.186
500,10.3824,397.276,711.685,676.395,433.749
504,9.862298,409.594,714.529,678.336,434.031
508,9.50969,387.773,719.293,679.36,434.283
512,8.268278,393.714,724.174,679.1,434.328
516,7.904021,398.234,724.353,679.314,435.349
520,7.625096,396.907,730.49,694.386,437.596
524,6.640992,393.623,741.901,685.059,441.247
528,6.118111,354.021,781.768,681.444,447.464
532,5.754616,337.139,818.376,680.024,463.6
536,5.013964,320.486,936.654,683.408,482.468
540,4.519988,284.108,939.055,685.531,491.934
544,4.510952,274.636,944.186,685.297,496.263
548,3.510957,249.371,939.913,687.986,497.627
552,3.389702,237.39,932.324,698.884,497.687
556,3.207492,224.306,906.734,712.7,495.08
560,2.524112,202.701,870.183,713.361,491.358
564,2.301996,183.255,836.87,721.342,487.876
568,2.304578,165.7,807.879,735.048,485.045
572,1.800103,154.021,773.88,755.058,481.154
576,1.498913,140.136,758.591,742.041,478.568
580,1.51361,126.666,743.275,787.771,477.406
584,1.118275,108.148,728.115,802.888,476.6
588,1.098252,92.4374,716.484,851.829,476.222
592,0.917639,79.5192,705.001,850.235,475.615
596,0.881138,69.4282,695.132,798.934,475.235
600,0.819852,61.242,686.61,674.544,474.988
604,0.504589,49.7186,683.156,793.058,475.218
608,0.680024,43.6914,678.807,749.166,476.168
612,0.595957,35.6198,672.396,621.505,477.065
616,0.479969,30.4792,665.855,614.4,477.729
620,0.595462,24.8042,661.998,640.5,478.527
624,0.214063,20.9008,661.455,649.712,479.721
628,0.395041,13.9645,658.585,640.181,480.887
632,0.100401,9.78182,658.961,658.985,482.246
636,0.177321,6.68916,654.496,622.849,483.517
640,0.335095,6.17047,650.278,573.875,484.6
644,0.117971,6.07861,646.198,575.584,485.676
648,0.298273,3.71405,644.959,592.221,486.842
652,0.251763,3.98194,640.673,595.727,487.833
656,-0.004806,1.23098,641.408,565.062,489.295
660,0.395348,-0.36305,641.619,580.13,490.575
664,0.118544,-1.73125,642.721,582.634,491.993
668,0.080702,-2.97098,641.903,571.387,493.322
672,0.278779,-2.87493,641.332,585.06,494.594
676,0.136675,-3.09857,640.723,554.861,495.989
680,0.013705,-2.91665,640.271,502.301,497.452
684,0.258953,-4.10379,640.482,522.962,498.806
688,0.480977,-3.9962,640.9,563.734,500.009
692,0.015599,-5.03337,639.266,551.851,501.159
696,-0.022277,-4.84168,640.944,532.473,502.492
700,0.276676,-4.96822,639.937,522.86,503.664
704,0.394827,-4.59986,640.523,517.155,504.774
708,-0.004453,-4.59824,641.279,503.315,505.942
712,-0.101841,-4.32036,644.82,508.878,507.342
716,0.194916,-4.30016,645.096,554.411,508.513
720,0.298089,-3.957,643.609,509.985,509.456
724,0.099626,-3.92413,644.223,510.099,510.693
728,0.118128,-3.64082,644.69,560.761,511.692
732,0.277496,-3.35619,646.585,534.62,512.912
736,0.234378,-3.34192,647.687,560.094,514.036
740,0.099838,-3.0402,647.514,502.925,515.17
744,0.157339,-2.90069,646.442,525.103,516.15
748,0.277733,-3.43196,645.959,532.621,517.046
752,0.139553,-3.5352,646.64,548.598,517.983
756,-0.004888,-3.65984,647.783,544.595,519.118
760,0.195022,-3.57405,648.998,516.898,520.201
764,0.298144,-3.73405,647.779,535.374,521.267
768,0.013387,-3.97216,646.837,558.952,522.129
772,-0.022374,-4.39388,646.835,517.186,523.072
776,0.279164,-3.94568,646.596,521.651,524.107
780,0.033318,-5.08829,645.369,576.75,524.932
784,-0.005743,-4.8041,639.01,581.774,525.539
788,0.100159,-4.85382,643.579,531.066,526.78
792,0.119258,-5.56435,646.124,553.24,527.852
796,-0.170255,-5.56871,646.048,549.327,528.902
800,0.078179,-5.83223,647.009,585.472,529.836
804,0.194648,-5.52514,647.969,593.517,530.9
808,-0.082601,-6.83448,647.863,575.368,531.813
812,-0.084677,-6.58555,648.035,571.54,532.771
816,0.099843,-6.95164,648.963,617.591,533.575
817,0.178323,-6.82171,647.918,604.433,533.785

File: GIDAZE+_Cone_65kW_2.csv
Time,Mass,HRR,Temperature 1 Sample Front,Temperature 3 Inside,Temperature 4 Sample Back
[s],[g],[kW/m2],[K],[K],[K]
0,70.5,-0.395694,340.483,305.535,304.682
2,70.5143,-0.42921,366.451,305.774,304.722
4,70.4852,-0.292403,405.348,306.113,304.759
6,70.3159,-0.27211,440.761,306.595,304.81
8,70.4869,-0.363543,475.875,307.483,304.866
10,70.5933,-0.363992,503.947,308.883,304.897
12,70.5154,-0.239913,532.512,310.889,304.964
14,70.41783,-0.271062,556.902,313.447,305.026
16,70.487,-0.280113,578.843,316.397,305.07
18,70.591,-0.272577,617.296,319.717,305.143
20,70.6059,41.1501,700.77,323.206,305.253
22,70.1174,125.268,723.063,327.178,305.375
24,69.7442,259.674,725.266,331.093,305.513
26,69.5896,382.847,722.626,335.19,305.646
28,69.3164,459.369,720.404,339.359,305.858
30,68.8152,531.897,719.374,343.611,306.07
32,67.8915,561.83,718.333,347.886,306.33
34,67.2302,586.407,717.963,352.171,306.584
36,66.9728,593.462,717.278,356.414,306.925
38,66.7127,676.299,717.065,360.64,307.277
40,66.3412,657.37,716.951,364.86,307.643
42,65.0242,663.392,716.55,369.057,308.06
44,64.8122,675.106,716.729,373.278,308.531
46,64.3933,657.369,717.177,377.629,309.118
48,64.0979,672.831,717.48,382.287,309.742
50,63.0437,681.832,717.948,387.151,310.423
52,62.7961,688.379,718.457,391.912,311.076
54,61.8436,675.565,717.967,396.468,311.461
56,61.6772,681.481,718.169,400.834,311.931
58,61.2085,691.973,718.433,405.153,312.508
60,60.9219,693.96,718.451,409.282,313.138
62,59.7764,673.743,718.686,413.414,313.791
64,58.8271,730.365,718.218,417.6,314.48
66,58.6432,695.403,718.114,421.712,315.232
68,58.3989,673.633,718.038,425.858,315.991
70,58.0789,710.465,717.719,429.891,316.756
72,56.46965,700.163,717.609,433.954,317.52
74,56.1941,717.186,717.024,437.89,318.308
76,55.88982,691.939,716.209,441.889,319.16
78,55.5942,710.276,715.869,445.929,319.969
80,55.09263,714.671,715.493,450.066,320.896
82,53.9521,727.198,715.223,454.283,321.942
84,53.2671,727.171,715.449,458.521,323.334
86,52.762,703.62,716.199,462.79,325.114
88,52.5596,685.957,718.059,467.176,327.67
90,51.9158,683.439,718.246,471.679,330.934
92,51.3273,757.164,718.011,476.377,333.45
94,50.5155,675.053,717.387,481.117,334.667
96,49.2506,718.465,716.326,485.947,334.806
98,49.4998,702.857,714.804,491.087,332.507
100,49.1674,759.819,712.355,496.366,330.402
102,48.783,710.248,710.238,501.51,328.639
104,47.2557,725.915,708.198,506.522,327.27
106,46.6491,749.204,707.32,511.68,326.351
108,46.4384,727.019,706.578,523.483,325.806
110,45.9101,751.394,706.791,523.704,325.561
112,44.9721,705.16,706.137,529.3,325.54
114,44.607,782.157,705.563,534.618,325.699
116,43.9313,728.347,705.98,540.831,325.968
118,43.3507,736.965,705.635,549.707,326.342
120,43.049,783.459,705.707,558.009,326.793
122,42.1709,788.995,705.747,563.566,327.338
124,41.14325,762.921,705.791,569.759,327.858
126,40.7903,793.361,705.819,578.423,328.479
128,40.03105,834.939,705.666,584.855,329.095
130,39.717,771.272,705.742,592.19,329.761
132,39.3439,793.55,705.183,599.675,330.421
134,37.47713,841.826,705.356,607.595,331.144
136,37.3692,800.452,705.716,616.806,331.885
138,36.4261,778.459,705.411,627.702,332.598
140,36.1199,792.104,706.166,640.114,333.343
142,35.7522,829.517,705.846,656.235,334.062
144,35.5181,828.764,704.848,675.521,334.798
146,32.972,864.071,704.627,695.98,335.56
148,33.1369,842.465,704.48,708.784,336.303
150,32.1667,889.952,704.166,719.896,337.05
152,31.8288,896.805,704.003,728.504,337.783
154,31.49963,952.424,704.951,733.749,338.53
156,30.927,939.647,704.501,734.02,339.296
158,28.9498,880.633,703.55,742.156,340.012
160,28.421,940.368,703.219,747.421,340.719
162,27.7352,1034.2,704.106,752.418,341.441
164,27.16,946.569,703.672,754.506,342.152
166,26.6511,927.246,702.37,759.419,342.853
168,25.3963,942.287,702.271,758.416,343.542
170,24.8062,1014.98,703.674,763.083,344.234
172,23.34986,1071.14,702.915,766.86,344.904
174,22.91,1073.6,701.671,768.711,345.856
176,22.2465,1016.74,700.219,771.784,347.587
178,21.8866,1034.66,700.865,771.94,349.588
180,20.4246,970.567,701.859,774.499,352.012
182,19.2424,1033.67,702.825,773.239,354.722
184,18.7414,990.416,704.72,773.272,359.805
186,17.848,1217.85,704.513,769.971,363.12
188,17.5783,1126.31,704.586,769.578,364.233
190,16.5977,1135.8,702.993,770.953,362.599
192,15.2152,1058.17,702.236,770.08,362.463
194,14.2431,1167.72,699.352,770.914,362.759
196,13.5726,1076.72,698.123,769.237,363.319
198,12.5497,1071.33,697.435,769.621,364.297
200,11.5643,1072.93,701.499,770.849,369.149
202,10.7767,1011.03,704.886,772.415,378.196
204,9.934716,1009.65,707.385,779.118,383.86
206,9.290323,1054.75,709.477,783.727,388.531
208,8.562701,927.243,709.994,788.992,392.407
210,7.044847,965.661,709.674,792.348,395.903
212,7.198521,848.19,708.36,793.871,399.081
214,6.843055,727.452,707.662,795.64,401.948
216,6.292735,699.763,707.486,794.329,404.686
218,5.937792,638.371,707.567,797.15,407.499
220,4.962205,555.831,710.418,796.895,409.601
222,4.931167,515.481,714.576,796.35,410.89
224,4.634714,496.731,718.423,793.874,411.541
226,4.464146,477.214,719.72,789.622,413.598
228,4.242318,456.948,722.538,786.108,416.889
230,3.270879,454.458,728.373,785.989,421.933
232,2.95342,416.976,731.758,788.267,427.428
234,2.841054,381.43,740.725,790.842,432.316
236,2.739056,354.242,750.988,795.481,434.349
238,2.641856,335.277,762.989,802.571,440.504
240,1.534631,311.747,787.777,813.39,452.165
242,1.562385,279.804,822.508,867.339,473.111
244,1.607711,246.858,840.539,941.383,512.625
246,1.622751,216.189,859.344,953.107,526.373
248,1.448918,201.088,881.376,954.216,536.181
250,1.237695,173.251,915.629,961.603,548.104
252,0.947361,159.549,977.878,971.426,572.83
254,1.09502,141.3,1020.509,978.313,599.933
256,1.024283,114.723,1074.41,987.547,614.996
258,0.934651,110.846,1068.796,991.561,622.102
260,0.719029,94.6615,1020.648,1071.797,622.331
262,0.616075,82.5248,929.489,1188.397,616.123
264,0.702277,74.7824,876.362,993.171,609.269
266,0.807219,65.3102,852.148,916.869,603.37
268,0.7204,53.487,822.802,851.896,597.773
270,0.631924,44.7812,810.792,824.879,593.102
272,0.429491,41.2024,806.355,777.104,589.743
274,0.49194,32.876,804.22,746.213,587.065
276,0.603036,27.0255,807.186,732.703,585.469
278,0.80712,22.7595,807.853,706.108,584.481
280,0.533727,18.9391,800.456,713.516,582.823
282,0.505519,16.554,799.12,720.482,582.11
284,0.244639,15.6828,800.148,700.113,582.142
286,0.489232,15.2906,798.867,702.417,582.33
288,0.52028,11.7675,800.538,679.858,582.517
290,0.705356,10.0167,803.153,711.508,583.208
292,0.532875,8.18891,800.174,673.329,583.38
294,0.43005,7.20729,797.579,699.134,583.476
296,0.400986,5.47639,797.89,675.817,584.214
298,0.490982,4.96095,794.419,662.695,584.638
300,0.533097,2.61551,798.215,671.07,585.375
302,0.630281,2.07862,803.241,678.27,586.064
304,0.414874,-0.098031,806.251,630.812,587.75
306,0.332343,-0.0312931,807.439,656.518,588.819
308,0.30369,-0.152723,804.918,658.864,590.126
310,0.414608,-0.011514,800.375,675.362,590.692
312,0.587375,-1.21483,795.676,674.179,591.34
314,0.445517,-1.79204,801.921,695.698,592.19
316,0.401207,-2.19841,807.739,687.494,593.12
318,0.230433,-2.90793,811.374,703.979,593.904
320,0.401728,-2.93714,813.818,696.52,594.844
322,0.519428,-3.49415,811.432,657.329,596.114
324,0.519174,-3.60165,810.045,654.374,596.699
326,0.61533,-3.54372,812.727,648.352,598.242
328,0.190396,-2.63516,814.294,627.897,599.581
330,0.215545,-2.62146,814.541,676.312,600.478
332,0.215492,-2.17886,811.745,700.079,600.639
334,0.215227,-3.1389,810.27,673.76,601.843
336,0.415036,-3.14936,812.646,654.589,603.22
338,0.428875,-3.15457,809.724,698.196,603.466
340,0.587924,-3.1472,811.438,695.082,604.153
342,0.443987,-2.90504,802.024,739.022,604.668
344,0.332918,-3.14781,798.013,708.861,604.974
346,0.230605,-3.47742,798.714,684.464,605.965
348,0.215508,-4.19654,800.112,690.991,607.16
350,0.415619,-3.73057,796.626,708.591,607.948
352,0.520168,-3.68057,799.363,693.715,608.591
354,0.60418,-3.9408,803.136,655.628,609.761
356,0.532995,-3.96817,800.667,634.552,610.22
358,0.318214,-3.84638,806.136,647.356,611.67
360,0.31905,-3.9014,803.603,620.437,612.451
362,0.305054,-3.78104,808.357,622.315,613.6
364,0.415634,-3.7512,813.018,674.39,614.615
366,0.520404,-3.96721,810.808,676.096,613.414
368,0.333559,-4.0527,804.408,668.788,611.115
370,0.216962,-4.01129,800.013,649.185,609.22
372,0.216395,-3.68294,798.383,659.917,608.647
374,0.415224,-3.6612,795.33,657.817,608.265
376,0.602545,-3.94429,797.076,687.659,608.172
378,0.263744,-3.96258,797.104,700.902,608.558
380,0.230844,-3.95385,794.336,705.705,609.168
382,0.215558,-3.95765,795.244,666.988,610.043
384,0.399658,-3.95503,787.397,678.086,610.946
386,0.488934,-3.97796,787.744,676.904,611.694
388,0.346878,-3.96045,784.584,649.082,612.8
390,0.319008,-3.86003,788.747,674.947,613.586
392,0.216265,-3.92901,796.507,713.26,614.809
394,0.305766,-3.82654,795.327,691.935,615.975
396,0.50642,-3.77434,793.749,657.372,617.174
398,0.429966,-3.84379,796.699,660.174,617.843
400,0.319901,-3.68732,788.718,628.967,618.912
402,0.216973,-3.63385,786.748,633.305,619.742
404,0.49229,-3.72767,782.656,607.634,620.556
406,0.505628,-3.79786,781.61,629.932,621.193
408,0.521083,-3.35105,783.993,650.467,622.189

File: GIDAZE+_DSC_N2_10K_1.csv
Time,Temperature,Heat Flow,
[s],[K],[W/g],
0,297.95,-0.00847,
60,302.95,-0.05,
84,307.95,-0.046,
102,312.95,-0.0674,
120,317.95,-0.0912,
144,322.95,-0.11948,
162,327.95,-0.14861,
186,332.95,-0.1644,
210,337.95,-0.17745,
240,342.95,-0.18481,
270,347.95,-0.18105,
300,352.95,-0.18199,
330,357.95,-0.18919,
360,362.95,-0.19678,
390,367.95,-0.20872,
420,372.95,-0.2136,
450,377.95,-0.21362,
480,382.95,-0.22183,
510,387.95,-0.2153,
540,392.95,-0.20834,
570,397.95,-0.19184,
600,402.95,-0.18885,
630,407.95,-0.20646,
660,412.95,-0.2199,
690,417.95,-0.23304,
720,422.95,-0.23201,
750,427.95,-0.2443,
780,432.95,-0.24153,
810,437.95,-0.24536,
840,442.95,-0.2447,
870,447.95,-0.23482,
900,452.95,-0.23573,
930,457.95,-0.24001,
960,462.95,-0.25208,
990,467.95,-0.26643,
1020,472.95,-0.2736,
1050,477.95,-0.2759,
1080,482.95,-0.2734,
1110,487.95,-0.28314,
1140,492.95,-0.31017,
1170,497.95,-0.33876,
1200,502.95,-0.35473,
1230,507.95,-0.36383,
1260,512.95,-0.36975,
1290,517.95,-0.37592,
1320,522.95,-0.38633,
1350,527.95,-0.38243,
1380,532.95,-0.37947,
1410,537.95,-0.3703,
1440,542.95,-0.36455,
1470,547.95,-0.35203,
1500,552.95,-0.33202,
1530,557.95,-0.30606,
1560,562.95,-0.29356,
1590,567.95,-0.2805,
1620,572.95,-0.27579,
1650,577.95,-0.29229,
1680,582.95,-0.28884,
1710,587.95,-0.22787,
1740,592.95,-0.0605,
1770,597.95,0.13191,
1800,602.95,0.28027,
1830,607.95,0.43178,
1860,612.95,0.63992,
1890,617.95,0.90677,
1920,622.95,1.19486,
1950,627.95,1.46047,
1980,632.95,1.62358,
2010,637.95,1.70285,
2040,642.95,1.7155,
2070,647.95,1.54299,
2100,652.95,1.25023,
2130,657.95,0.88542,
2160,662.95,0.52837,
2190,667.95,0.22416,
2220,672.95,-0.0456,
2250,677.95,-0.3751,
2280,682.95,-0.6911,
2310,687.95,-0.82859,
2340,692.95,-0.8722,
2370,697.95,-0.91239,
2400,702.95,-0.94284,
2430,707.95,-1.00515,
2460,712.95,-1.05808,
2490,717.95,-1.06607,
2520,722.95,-1.05807,
2550,727.95,-1.0616,
2580,732.95,-1.07124,
2610,737.95,-1.07038,
2640,742.95,-1.06661,
2670,747.95,-1.04974,
2700,752.95,-1.03489,
2730,757.95,-1.0198,
2760,762.95,-1.0044,
2790,767.95,-0.98735,
2820,772.95,-0.96805,
2850,777.95,-0.9475,
2880,782.95,-0.90748,
2910,787.95,-0.87184,
2940,792.95,-0.84214,
2970,797.95,-0.80913,
3000,802.95,-0.77601,
3030,807.95,-0.74815,
3060,812.95,-0.7181,
3090,817.95,-0.6973,
3120,822.95,-0.68301,
3150,827.95,-0.67915,
3180,832.95,-0.67978,
3210,837.95,-0.67612,
3240,842.95,-0.67022,
3270,847.95,-0.67189,
3300,852.95,-0.67372,
3330,857.95,-0.68057,
3360,862.95,-0.68294,
3390,867.95,-0.6865,
3420,872.95,-0.68359,
3450,877.95,-0.68339,
3480,882.95,-0.68481,
3510,887.95,-0.6929,
3540,892.95,-0.69277,
3570,897.95,-0.69727,
3600,902.95,-0.68674,
3630,907.95,-0.68935,
3660,912.95,-0.69808,
3690,917.95,-0.71665,