Folder: matl-db/PMMA/Calibration_Data/GIDAZE+ (part 2)

File: GIDAZE+_DSC_N2_10K_2.csv
Time,Temperature,Heat Flow,
[s],[K],[w/g],
0,297.714,-1.23E-02,
60.5,302.714,-2.09E-02,
82.1,307.714,1.25E-02,
102,312.714,1.79E-02,
121,317.714,1.68E-03,
140,322.714,-2.10E-02,
162,327.714,-4.79E-02,
184,332.714,-6.85E-02,
209,337.714,-8.93E-02,
236,342.714,-9.96E-02,
265,347.714,-9.89E-02,
296,352.714,-0.10218,
327,357.714,-0.11026,
358,362.714,-0.11211,
389,367.714,-0.11799,
419,372.714,-0.12504,
449,377.714,-0.12366,
479,382.714,-0.12496,
510,387.714,-0.11666,
540,392.714,-9.63E-02,
569,397.714,-5.74E-02,
599,402.714,-6.23E-02,
629,407.714,-9.02E-02,
659,412.714,-0.10426,
689,417.714,-0.10795,
719,422.714,-0.11324,
749,427.714,-0.12347,
779,432.714,-0.12435,
809,437.714,-0.12447,
839,442.714,-0.11744,
869,447.714,-0.10817,
899,452.714,-0.10333,
929,457.714,-0.10774,
959,462.714,-0.11716,
989,467.714,-0.12819,
1020,472.714,-0.13007,
1050,477.714,-0.12853,
1080,482.714,-0.1291,
1110,487.714,-0.13186,
1140,492.714,-0.15303,
1170,497.714,-0.18137,
1200,502.714,-0.19899,
1230,507.714,-0.20663,
1260,512.714,-0.21326,
1290,517.714,-0.21595,
1320,522.714,-0.22702,
1350,527.714,-0.22283,
1380,532.714,-0.22091,
1410,537.714,-0.21127,
1440,542.714,-0.19955,
1470,547.714,-0.17856,
1500,552.714,-0.16323,
1530,557.714,-0.13114,
1560,562.714,-0.10024,
1590,567.714,-5.48E-02,
1620,572.714,1.76E-03,
1650,577.714,6.59E-02,
1680,582.714,0.15727,
1710,587.714,0.28739,
1740,592.714,0.43881,
1770,597.714,0.60125,
1800,602.714,0.75221,
1830,607.714,0.86603,
1860,612.714,1.03435,
1890,617.714,1.25941,
1920,622.714,1.53643,
1950,627.714,1.78649,
1980,632.714,1.95531,
2010,637.714,2.05117,
2040,642.714,2.08211,
2070,647.714,1.92227,
2100,652.714,1.58788,
2130,657.714,1.19408,
2160,662.714,0.81505,
2190,667.714,0.50233,
2220,672.714,0.25072,
2250,677.714,-0.22635,
2280,682.714,-0.57908,
2310,687.714,-0.65991,
2340,692.714,-0.68538,
2370,697.714,-0.71429,
2400,702.714,-0.74915,
2430,707.714,-0.81509,
2460,712.714,-0.86925,
2490,717.714,-0.86948,
2520,722.714,-0.86426,
2550,727.714,-0.86083,
2580,732.714,-0.84643,
2610,737.714,-0.83859,
2640,742.714,-0.83236,
2670,747.714,-0.81463,
2700,752.714,-0.78958,
2730,757.714,-0.7584,
2760,762.714,-0.7263,
2790,767.714,-0.69084,
2820,772.714,-0.65462,
2850,777.714,-0.62,
2880,782.714,-0.57853,
2910,787.714,-0.53265,
2940,792.714,-0.49423,
2970,797.714,-0.45808,
3000,802.714,-0.41994,
3030,807.714,-0.40496,
3060,812.714,-0.39458,
3090,817.714,-0.39634,
3120,822.714,-0.38506,
3150,827.714,-0.37025,
3180,832.714,-0.36556,
3210,837.714,-0.3633,
3240,842.714,-0.36382,
3270,847.714,-0.3663,
3300,852.714,-0.36978,
3330,857.714,-0.3684,
3360,862.714,-0.37283,
3390,867.714,-0.37287,
3420,872.714,-0.37716,
3450,877.714,-0.37904,
3480,882.714,-0.38723,
3510,887.714,-0.37487,
3540,892.714,-0.39367,
3570,897.714,-0.39625,
3600,902.714,-0.39004,
3630,907.714,-0.38763,
3660,912.714,-0.39519,
3690,917.714,-0.41532,

File: GIDAZE+_DSC_O2-10_10K_1.csv
Time,Temperature,Heat Flow,
[s],[K],[W/g],
0,299.132,-5.75E-03,
61.5,304.132,-1.44E-02,
84.2,309.132,-1.38E-02,
105,314.132,-1.51E-02,
125,319.132,-4.17E-02,
146,324.132,-6.43E-02,
168,329.132,-9.06E-02,
191,334.132,-0.11001,
217,339.132,-0.12863,
245,344.132,-0.12951,
275,349.132,-0.13248,
305,354.132,-0.13818,
336,359.132,-0.14279,
367,364.132,-0.15624,
397,369.132,-0.16362,
427,374.132,-0.17083,
458,379.132,-0.17748,
488,384.132,-0.18343,
518,389.132,-0.18601,
548,394.132,-0.18512,
578,399.132,-0.17506,
608,404.132,-0.174,
638,409.132,-0.18156,
668,414.132,-0.19096,
697,419.132,-0.19464,
727,424.132,-0.20536,
757,429.132,-0.20685,
787,434.132,-0.21422,
817,439.132,-0.22734,
847,444.132,-0.23243,
878,449.132,-0.23771,
908,454.132,-0.24672,
937,459.132,-0.25212,
967,464.132,-0.2608,
997,469.132,-0.2646,
1030,474.132,-0.26973,
1060,479.132,-0.27628,
1090,484.132,-0.28569,
1120,489.132,-0.29357,
1150,494.132,-0.29261,
1180,499.132,-0.29637,
1210,504.132,-0.29471,
1240,509.132,-0.30493,
1270,514.132,-0.30987,
1300,519.132,-0.31286,
1330,524.132,-0.31209,
1360,529.132,-0.30895,
1390,534.132,-0.29583,
1420,539.132,-0.27483,
1450,544.132,-0.22846,
1480,549.132,-0.14703,
1510,554.132,-3.84E-03,
1540,559.132,0.22543,
1570,564.132,0.46593,
1600,569.132,0.53957,
1630,574.132,0.62369,
1660,579.132,0.75862,
1690,584.132,0.73803,
1720,589.132,0.54649,
1750,594.132,0.42262,
1780,599.132,0.41594,
1810,604.132,0.47392,
1840,609.132,0.50271,
1870,614.132,0.51325,
1900,619.132,0.49391,
1930,624.132,0.42781,
1960,629.132,0.29213,
1990,634.132,0.13245,
2020,639.132,-7.04E-02,
2050,644.132,-0.28144,
2080,649.132,-0.4336,
2110,654.132,-0.533,
2140,659.132,-0.59816,
2170,664.132,-0.65473,
2200,669.132,-0.71764,
2230,674.132,-0.74611,
2260,679.132,-0.74873,
2290,684.132,-0.75893,
2320,689.132,-0.66763,
2350,694.132,-0.56688,
2380,699.132,-0.49069,
2410,704.132,-0.44684,
2440,709.132,-0.40831,
2470,714.132,-0.39326,
2500,719.132,-0.39162,
2530,724.132,-0.3913,
2560,729.132,-0.39033,
2590,734.132,-0.39042,
2620,739.132,-0.38741,
2650,744.132,-0.38634,
2680,749.132,-0.38461,
2710,754.132,-0.40086,
2740,759.132,-0.41183,
2770,764.132,-0.41818,
2800,769.132,-0.42728,
2830,774.132,-0.43414,
2860,779.132,-0.44221,
2890,784.132,-0.43866,
2920,789.132,-0.44257,
2950,794.132,-0.44652,
2980,799.132,-0.44824,
3010,804.132,-0.46085,
3040,809.132,-0.45577,
3070,814.132,-0.45622,
3100,819.132,-0.45828,
3130,824.132,-0.45625,
3160,829.132,-0.46322,
3190,834.132,-0.46566,
3220,839.132,-0.45532,
3250,844.132,-0.45366,
3280,849.132,-0.45011,
3310,854.132,-0.44801,
3340,859.132,-0.43365,
3370,864.132,-0.44381,
3400,869.132,-0.43995,
3430,874.132,-0.43707,
3460,879.132,-0.4325,
3490,884.132,-0.42824,
3520,889.132,-0.42266,
3550,894.132,-0.42248,
3580,899.132,-0.42729,
3610,904.132,-0.42451,
3640,909.132,-0.42037,
3670,914.132,-0.42026,

File: GIDAZE+_DSC_O2-10_10K_2.csv
Time,Temperature,Heat Flow,
[s],[K],[W/g],
0,299.402,-9.64E-03,
61.8,304.402,9.57E-03,
84.7,309.402,2.99E-02,
105,314.402,4.08E-02,
126,319.402,2.00E-02,
147,324.402,-6.52E-03,
169,329.402,-3.61E-02,
193,334.402,-5.69E-02,
219,339.402,-7.71E-02,
247,344.402,-7.66E-02,
277,349.402,-8.33E-02,
307,354.402,-9.09E-02,
338,359.402,-9.56E-02,
368,364.402,-0.11417,
399,369.402,-0.11558,
429,374.402,-0.1217,
459,379.402,-0.13095,
489,384.402,-0.13884,
520,389.402,-0.13298,
550,394.402,-0.13221,
580,399.402,-0.12908,
609,404.402,-0.13351,
639,409.402,-0.14016,
669,414.402,-0.15153,
699,419.402,-0.15556,
729,424.402,-0.16463,
759,429.402,-0.16989,
789,434.402,-0.18158,
819,439.402,-0.18905,
849,444.402,-0.19667,
879,449.402,-0.20277,
909,454.402,-0.20732,
939,459.402,-0.21184,
969,464.402,-0.21993,
999,469.402,-0.22974,
1030,474.402,-0.2348,
1060,479.402,-0.23861,
1090,484.402,-0.24648,
1120,489.402,-0.25683,
1150,494.402,-0.25939,
1180,499.402,-0.26906,
1210,504.402,-0.26736,
1240,509.402,-0.26876,
1270,514.402,-0.27139,
1300,519.402,-0.27203,
1330,524.402,-0.27536,
1360,529.402,-0.27664,
1390,534.402,-0.26228,
1420,539.402,-0.22949,
1450,544.402,-0.18488,
1480,549.402,-9.98E-02,
1510,554.402,3.00E-02,
1540,559.402,0.26425,
1570,564.402,0.53829,
1600,569.402,0.64012,
1630,574.402,0.73224,
1660,579.402,0.85626,
1690,584.402,0.8241,
1720,589.402,0.60114,
1750,594.402,0.49032,
1780,599.402,0.47216,
1810,604.402,0.46348,
1840,609.402,0.48509,
1870,614.402,0.49131,
1900,619.402,0.47318,
1930,624.402,0.3891,
1960,629.402,0.25054,
1990,634.402,0.14752,
2020,639.402,-7.18E-02,
2050,644.402,-0.27697,
2080,649.402,-0.4401,
2110,654.402,-0.53147,
2140,659.402,-0.59127,
2170,664.402,-0.64138,
2200,669.402,-0.68612,
2230,674.402,-0.71898,
2260,679.402,-0.72267,
2290,684.402,-0.71336,
2320,689.402,-0.60424,
2350,694.402,-0.50131,
2380,699.402,-0.43253,
2410,704.402,-0.37952,
2440,709.402,-0.34667,
2470,714.402,-0.33415,
2500,719.402,-0.32843,
2530,724.402,-0.32732,
2560,729.402,-0.32095,
2590,734.402,-0.31735,
2620,739.402,-0.30794,
2650,744.402,-0.29373,
2680,749.402,-0.28782,
2710,754.402,-0.29226,
2740,759.402,-0.30538,
2770,764.402,-0.30939,
2800,769.402,-0.31573,
2830,774.402,-0.32402,
2860,779.402,-0.33213,
2890,784.402,-0.32417,
2920,789.402,-0.32643,
2950,794.402,-0.34057,
2980,799.402,-0.34245,
3010,804.402,-0.36626,
3040,809.402,-0.3656,
3070,814.402,-0.37577,
3100,819.402,-0.37559,
3130,824.402,-0.38657,
3160,829.402,-0.39326,
3190,834.402,-0.38824,
3220,839.402,-0.38581,
3250,844.402,-0.39215,
3280,849.402,-0.38915,
3310,854.402,-0.38509,
3340,859.402,-0.36995,
3370,864.402,-0.36531,
3400,869.402,-0.36124,
3430,874.402,-0.36004,
3460,879.402,-0.36166,
3490,884.402,-0.35558,
3520,889.402,-0.35848,
3550,894.402,-0.36894,
3580,899.402,-0.36519,
3610,904.402,-0.36268,
3640,909.402,-0.36877,
3670,914.402,-0.36709,

File: GIDAZE+_DSC_O2-21_10K_1.csv
Time,Temperature,Heat Flow,
[s],[K],[W/g],
0.00E+00,298.308,-2.18E-02,
6.09E+01,303.308,-2.79E-02,
8.29E+01,308.308,-1.00E-02,
1.03E+02,313.308,-1.94E-02,
1.22E+02,318.308,-4.54E-02,
1.42E+02,323.308,-7.93E-02,
1.64E+02,328.308,-0.111,
1.87E+02,333.308,-0.12747,
2.12E+02,338.308,-0.14047,
2.40E+02,343.308,-0.14719,
2.69E+02,348.308,-0.14204,
3.00E+02,353.308,-0.14993,
3.31E+02,358.308,-0.1625,
3.62E+02,363.308,-0.17412,
3.92E+02,368.308,-0.18753,
4.22E+02,373.308,-0.19259,
4.53E+02,378.308,-0.19727,
4.83E+02,383.308,-0.20533,
5.13E+02,388.308,-0.21078,
5.43E+02,393.308,-0.21073,
5.73E+02,398.308,-0.20063,
6.03E+02,403.308,-0.20358,
6.33E+02,408.308,-0.20448,
6.63E+02,413.308,-0.21495,
6.93E+02,418.308,-0.22246,
7.22E+02,423.308,-0.23096,
7.52E+02,428.308,-0.23741,
7.82E+02,433.308,-0.24752,
8.13E+02,438.308,-0.25771,
8.42E+02,443.308,-0.26268,
8.73E+02,448.308,-0.27474,
9.03E+02,453.308,-0.27934,
9.33E+02,458.308,-0.28981,
9.62E+02,463.308,-0.29873,
9.92E+02,468.308,-0.3005,
1.02E+03,473.308,-0.30563,
1.05E+03,478.308,-0.30881,
1.08E+03,483.308,-0.31236,
1.11E+03,488.308,-0.31537,
1.14E+03,493.308,-0.31319,
1.17E+03,498.308,-0.327,
1.20E+03,503.308,-0.32585,
1.23E+03,508.308,-0.33001,
1.26E+03,513.308,-0.32888,
1.29E+03,518.308,-0.33209,
1.32E+03,523.308,-0.33415,
1.35E+03,528.308,-0.32272,
1.38E+03,533.308,-0.31024,
1.41E+03,538.308,-0.28005,
1.44E+03,543.308,-0.23755,
1.47E+03,548.308,-0.1678,
1.50E+03,553.308,-6.54E-02,
1.53E+03,558.308,1.03E-03,
1.56E+03,563.308,7.04E-03,
1.59E+03,568.308,8.91E-02,
1.62E+03,573.308,0.33402,
1.65E+03,578.308,0.90612,
1.68E+03,583.308,1.09728,
1.71E+03,588.308,0.78249,
1.74E+03,593.308,0.63138,
1.77E+03,598.308,0.66133,
1.80E+03,603.308,0.65853,
1.83E+03,608.308,0.58512,
1.86E+03,613.308,0.45402,
1.89E+03,618.308,0.34991,
1.92E+03,623.308,0.17366,
1.95E+03,628.308,-0.15723,
1.98E+03,633.308,-0.41614,
2.01E+03,638.308,-0.565,
2.04E+03,643.308,-0.6473,
2.07E+03,648.308,-0.69783,
2.10E+03,653.308,-0.72068,
2.13E+03,658.308,-0.73519,
2.16E+03,663.308,-0.75141,
2.19E+03,668.308,-0.77017,
2.22E+03,673.308,-0.78332,
2.25E+03,678.308,-0.79764,
2.28E+03,683.308,-0.75209,
2.31E+03,688.308,-0.69143,
2.34E+03,693.308,-0.65364,
2.37E+03,698.308,-0.6061,
2.40E+03,703.308,-0.5977,
2.43E+03,708.308,-0.55001,
2.46E+03,713.308,-0.50417,
2.49E+03,718.308,-0.47046,
2.52E+03,723.308,-0.43026,
2.55E+03,728.308,-0.39087,
2.58E+03,733.308,-0.35665,
2.61E+03,738.308,-0.33715,
2.64E+03,743.308,-0.31441,
2.67E+03,748.308,-0.3145,
2.70E+03,753.308,-0.32597,
2.73E+03,758.308,-0.32962,
2.76E+03,763.308,-0.32485,
2.79E+03,768.308,-0.31009,
2.82E+03,773.308,-0.30466,
2.85E+03,778.308,-0.30203,
2.88E+03,783.308,-0.29096,
2.91E+03,788.308,-0.27623,
2.94E+03,793.308,-0.2696,
2.97E+03,798.308,-0.25594,
3.00E+03,803.308,-0.24378,
3.03E+03,808.308,-0.22807,
3.06E+03,813.308,-0.221,
3.09E+03,818.308,-0.22337,
3.12E+03,823.308,-0.23008,
3.15E+03,828.308,-0.23092,
3.18E+03,833.308,-0.22825,
3.21E+03,838.308,-0.22037,
3.24E+03,843.308,-0.21461,
3.27E+03,848.308,-0.20647,
3.30E+03,853.308,-0.20369,
3.33E+03,858.308,-0.1895,
3.36E+03,863.308,-0.17765,
3.39E+03,868.308,-0.17635,
3.42E+03,873.308,-0.18151,
3.45E+03,878.308,-0.18544,
3.48E+03,883.308,-0.16817,
3.51E+03,888.308,-0.16121,
3.54E+03,893.308,-0.16261,
3.57E+03,898.308,-0.16958,
3.60E+03,903.308,-0.16901,
3.63E+03,908.308,-0.16549,
3.66E+03,913.308,0.0218,

File: GIDAZE+_DSC_O2-21_10K_2.csv
Time,Temperature,Heat Flow,
[s],[K],[W/g],
0.00E+00,298.485,-2.31E-02,
6.10E+01,303.485,1.85E-02,
8.33E+01,308.485,6.15E-02,
1.03E+02,313.485,6.91E-02,
1.23E+02,318.485,5.66E-02,
1.43E+02,323.485,3.63E-02,
1.65E+02,328.485,5.97E-03,
1.88E+02,333.485,2.15E-03,
2.13E+02,338.485,-5.67E-03,
2.41E+02,343.485,-4.61E-03,
2.70E+02,348.485,-3.27E-03,
3.01E+02,353.485,-5.94E-03,
3.32E+02,358.485,-1.86E-02,
3.63E+02,363.485,-2.37E-02,
3.93E+02,368.485,-2.45E-02,
4.24E+02,373.485,-2.61E-02,
4.54E+02,378.485,-2.02E-02,
4.84E+02,383.485,-2.39E-02,
5.14E+02,388.485,-2.20E-02,
5.44E+02,393.485,-2.02E-02,
5.74E+02,398.485,-1.07E-02,
6.04E+02,403.485,-1.11E-02,
6.34E+02,408.485,-8.90E-03,
6.64E+02,413.485,-1.16E-02,
6.94E+02,418.485,-1.36E-02,
7.24E+02,423.485,-2.18E-02,
7.54E+02,428.485,-2.65E-02,
7.84E+02,433.485,-3.25E-02,
8.14E+02,438.485,-3.98E-02,
8.44E+02,443.485,-4.31E-02,
8.74E+02,448.485,-5.17E-02,
9.04E+02,453.485,-5.76E-02,
9.34E+02,458.485,-6.32E-02,
9.64E+02,463.485,-6.83E-02,
9.93E+02,468.485,-7.21E-02,
1.02E+03,473.485,-7.72E-02,
1.05E+03,478.485,-7.82E-02,
1.08E+03,483.485,-7.15E-02,
1.11E+03,488.485,-7.44E-02,
1.14E+03,493.485,-7.85E-02,
1.17E+03,498.485,-8.69E-02,
1.20E+03,503.485,-9.09E-02,
1.23E+03,508.485,-8.58E-02,
1.26E+03,513.485,-8.89E-02,
1.29E+03,518.485,-9.60E-02,
1.32E+03,523.485,-9.23E-02,
1.35E+03,528.485,-8.15E-02,
1.38E+03,533.485,-6.72E-02,
1.41E+03,538.485,-3.60E-02,
1.44E+03,543.485,4.56E-03,
1.47E+03,548.485,7.17E-02,
1.50E+03,553.485,0.1719,
1.53E+03,558.485,0.23449,
1.56E+03,563.485,0.24672,
1.59E+03,568.485,0.31711,
1.62E+03,573.485,0.55357,
1.65E+03,578.485,1.0986,
1.68E+03,583.485,1.19204,
1.71E+03,588.485,0.78335,
1.74E+03,593.485,0.61518,
1.77E+03,598.485,0.64649,
1.80E+03,603.485,0.69775,
1.83E+03,608.485,0.70242,
1.86E+03,613.485,0.66668,
1.89E+03,618.485,0.51556,
1.92E+03,623.485,0.47834,
1.95E+03,628.485,0.34383,
1.98E+03,633.485,7.48E-02,
2.01E+03,638.485,-0.14203,
2.04E+03,643.485,-0.2743,
2.07E+03,648.485,-0.36151,
2.10E+03,653.485,-0.40927,
2.13E+03,658.485,-0.42841,
2.16E+03,663.485,-0.43441,
2.19E+03,668.485,-0.44216,
2.22E+03,673.485,-0.43105,
2.25E+03,678.485,-0.39657,
2.28E+03,683.485,-0.34227,
2.31E+03,688.485,-0.2497,
2.34E+03,693.485,-0.14032,
2.37E+03,698.485,-4.77E-02,
2.40E+03,703.485,-6.74E-03,
2.43E+03,708.485,1.43E-02,
2.46E+03,713.485,1.25E-02,
2.49E+03,718.485,9.74E-03,
2.52E+03,723.485,1.32E-02,
2.55E+03,728.485,7.44E-03,
2.58E+03,733.485,2.97E-03,
2.61E+03,738.485,1.18E-03,
2.64E+03,743.485,7.13E-03,
2.67E+03,748.485,9.09E-03,
2.70E+03,753.485,9.72E-03,
2.73E+03,758.485,1.10E-02,
2.76E+03,763.485,1.58E-02,
2.79E+03,768.485,1.31E-02,
2.82E+03,773.485,2.69E-02,
2.85E+03,778.485,2.43E-02,
2.88E+03,783.485,2.95E-02,
2.91E+03,788.485,4.84E-02,
2.94E+03,793.485,6.05E-02,
2.97E+03,798.485,6.65E-02,
3.00E+03,803.485,7.76E-02,
3.03E+03,808.485,9.33E-02,
3.06E+03,813.485,0.1012,
3.09E+03,818.485,0.10251,
3.12E+03,823.485,0.10275,
3.15E+03,828.485,0.10387,
3.18E+03,833.485,0.10094,
3.21E+03,838.485,0.10045,
3.24E+03,843.485,0.10983,
3.27E+03,848.485,0.12259,
3.30E+03,853.485,0.12731,
3.33E+03,858.485,0.14117,
3.36E+03,863.485,0.1499,
3.39E+03,868.485,0.1567,
3.42E+03,873.485,0.16364,
3.45E+03,878.485,0.15882,
3.48E+03,883.485,0.17231,
3.51E+03,888.485,0.19002,
3.54E+03,893.485,0.20134,
3.57E+03,898.485,0.19897,
3.60E+03,903.485,0.20783,
3.63E+03,908.485,0.20801,
3.66E+03,913.485,0.20215,

File: GIDAZE+_DSC_O2-21_10K_3.csv
Time,Temperature,Heat Flow,
[s],[K],[W/g],
0.00E+00,299.206,-1.69E-02,
6.17E+01,304.206,0.12632,
8.45E+01,309.206,0.20867,
1.05E+02,314.206,0.24916,
1.25E+02,319.206,0.26284,
1.46E+02,324.206,0.25761,
1.68E+02,329.206,0.24581,
1.92E+02,334.206,0.22691,
2.18E+02,339.206,0.21093,
2.46E+02,344.206,0.20127,
2.75E+02,349.206,0.19311,
3.06E+02,354.206,0.18535,
3.36E+02,359.206,0.17714,
3.67E+02,364.206,0.17445,
3.98E+02,369.206,0.17529,
4.28E+02,374.206,0.17707,
4.58E+02,379.206,0.17984,
4.88E+02,384.206,0.184,
5.18E+02,389.206,0.19037,
5.48E+02,394.206,0.19971,
5.78E+02,399.206,0.20686,
6.08E+02,404.206,0.21198,
6.38E+02,409.206,0.20844,
6.68E+02,414.206,0.20615,
6.98E+02,419.206,0.20317,
7.28E+02,424.206,0.20027,
7.58E+02,429.206,0.19592,
7.88E+02,434.206,0.19258,
8.18E+02,439.206,0.18852,
8.48E+02,444.206,0.18488,
8.78E+02,449.206,0.18131,
9.08E+02,454.206,0.1781,
9.38E+02,459.206,0.17334,
9.68E+02,464.206,0.16798,
9.98E+02,469.206,0.16684,
1.03E+03,474.206,0.16299,
1.06E+03,479.206,0.1594,
1.09E+03,484.206,0.15657,
1.12E+03,489.206,0.1518,
1.15E+03,494.206,0.14987,
1.18E+03,499.206,0.1473,
1.21E+03,504.206,0.14334,
1.24E+03,509.206,0.14143,
1.27E+03,514.206,0.14099,
1.30E+03,519.206,0.13898,
1.33E+03,524.206,0.13662,
1.36E+03,529.206,0.14205,
1.39E+03,534.206,0.14866,
1.42E+03,539.206,0.17019,
1.45E+03,544.206,0.20607,
1.48E+03,549.206,0.25868,
1.51E+03,554.206,0.32396,
1.54E+03,559.206,0.36914,
1.57E+03,564.206,0.38637,
1.60E+03,569.206,0.44469,
1.63E+03,574.206,0.58111,
1.66E+03,579.206,0.81515,
1.69E+03,584.206,1.18264,
1.72E+03,589.206,1.1845,
1.75E+03,594.206,0.77321,
1.78E+03,599.206,0.46493,
1.81E+03,604.206,0.10792,
1.84E+03,609.206,-0.31192,
1.87E+03,614.206,-0.55795,
1.90E+03,619.206,-0.53432,
1.93E+03,624.206,-5.38E-02,
1.96E+03,629.206,3.27E-02,
1.99E+03,634.206,0.16653,
2.02E+03,639.206,3.96E-02,
2.05E+03,644.206,-9.90E-02,
2.08E+03,649.206,-0.20843,
2.11E+03,654.206,-0.27387,
2.14E+03,659.206,-0.30522,
2.17E+03,664.206,-0.32509,
2.20E+03,669.206,-0.34012,
2.23E+03,674.206,-0.35075,
2.26E+03,679.206,-0.3393,
2.29E+03,684.206,-0.29334,
2.32E+03,689.206,-0.21648,
2.35E+03,694.206,-0.14428,
2.38E+03,699.206,-5.37E-02,
2.41E+03,704.206,2.05E-02,
2.44E+03,709.206,6.36E-02,
2.47E+03,714.206,8.70E-02,
2.50E+03,719.206,9.09E-02,
2.53E+03,724.206,0.1028,
2.56E+03,729.206,0.11117,
2.59E+03,734.206,0.11848,
2.62E+03,739.206,0.12188,
2.65E+03,744.206,0.12512,
2.68E+03,749.206,0.13029,
2.71E+03,754.206,0.1325,
2.74E+03,759.206,0.13631,
2.77E+03,764.206,0.13889,
2.80E+03,769.206,0.14346,
2.83E+03,774.206,0.14418,
2.86E+03,779.206,0.14643,
2.89E+03,784.206,0.15154,
2.92E+03,789.206,0.15436,
2.95E+03,794.206,0.15554,
2.98E+03,799.206,0.15983,
3.01E+03,804.206,0.15893,
3.04E+03,809.206,0.16637,
3.07E+03,814.206,0.17041,
3.10E+03,819.206,0.17293,
3.13E+03,824.206,0.17663,
3.16E+03,829.206,0.18359,
3.19E+03,834.206,0.18733,
3.22E+03,839.206,0.19361,
3.25E+03,844.206,0.19535,
3.28E+03,849.206,0.19963,
3.31E+03,854.206,0.20845,
3.34E+03,859.206,0.21617,
3.37E+03,864.206,0.21655,
3.40E+03,869.206,0.2203,
3.43E+03,874.206,0.22272,
3.46E+03,879.206,0.21799,
3.49E+03,884.206,0.22402,
3.52E+03,889.206,0.22693,
3.55E+03,894.206,0.23024,
3.58E+03,899.206,0.23371,
3.61E+03,904.206,0.23584,
3.64E+03,909.206,0.24011,
3.67E+03,914.206,0.24163,

File: GIDAZE+_DSC_O2-21_10K_4.csv
Time,Temperature,Heat Flow,
[s],[K],[W/g],
0.00E+00,298.749,-1.45E-02,
6.13E+01,303.749,9.96E-02,
8.38E+01,308.749,0.16471,
1.04E+02,313.749,0.19532,
1.24E+02,318.749,0.20362,
1.44E+02,323.749,0.19408,
1.66E+02,328.749,0.17597,
1.89E+02,333.749,0.15553,
2.15E+02,338.749,0.13619,
2.43E+02,343.749,0.12,
2.72E+02,348.749,0.11114,
3.03E+02,353.749,0.10319,
3.34E+02,358.749,9.38E-02,
3.64E+02,363.749,8.85E-02,
3.95E+02,368.749,8.40E-02,
4.25E+02,373.749,8.29E-02,
4.55E+02,378.749,8.27E-02,
4.86E+02,383.749,8.45E-02,
5.16E+02,388.749,8.66E-02,
5.46E+02,393.749,9.35E-02,
5.76E+02,398.749,0.10038,
6.06E+02,403.749,0.10145,
6.35E+02,408.749,9.78E-02,
6.65E+02,413.749,9.24E-02,
6.95E+02,418.749,8.67E-02,
7.25E+02,423.749,8.17E-02,
7.55E+02,428.749,7.67E-02,
7.85E+02,433.749,7.17E-02,
8.15E+02,438.749,6.61E-02,
8.45E+02,443.749,5.98E-02,
8.75E+02,448.749,5.34E-02,
9.05E+02,453.749,4.76E-02,
9.35E+02,458.749,4.17E-02,
9.65E+02,463.749,3.53E-02,
9.95E+02,468.749,3.01E-02,
1.03E+03,473.749,2.50E-02,
1.06E+03,478.749,1.86E-02,
1.09E+03,483.749,1.31E-02,
1.12E+03,488.749,8.89E-03,
1.15E+03,493.749,2.16E-03,
1.18E+03,498.749,-1.83E-03,
1.21E+03,503.749,-8.12E-03,
1.24E+03,508.749,-1.30E-02,
1.27E+03,513.749,-1.76E-02,
1.30E+03,518.749,-1.98E-02,
1.33E+03,523.749,-2.21E-02,
1.36E+03,528.749,-2.19E-02,
1.39E+03,533.749,-1.65E-02,
1.42E+03,538.749,-7.13E-04,
1.45E+03,543.749,3.14E-02,
1.48E+03,548.749,8.08E-02,
1.51E+03,553.749,0.14654,
1.54E+03,558.749,0.19336,
1.57E+03,563.749,0.20544,
1.60E+03,568.749,0.2571,
1.63E+03,573.749,0.38702,
1.66E+03,578.749,0.61267,
1.69E+03,583.749,0.99496,
1.72E+03,588.749,1.01504,
1.75E+03,593.749,0.58347,
1.78E+03,598.749,5.85E-02,
1.81E+03,603.749,-0.21552,
1.83E+03,608.749,-0.54082,
1.87E+03,613.749,-0.80661,
1.89E+03,618.749,-0.7684,
1.93E+03,623.749,-0.61812,
1.96E+03,628.749,-0.35247,
1.99E+03,633.749,-4.31E-02,
2.02E+03,638.749,-0.15732,
2.05E+03,643.749,-0.28318,
2.08E+03,648.749,-0.38182,
2.11E+03,653.749,-0.448,
2.14E+03,658.749,-0.48577,
2.17E+03,663.749,-0.50594,
2.20E+03,668.749,-0.51485,
2.23E+03,673.749,-0.51611,
2.26E+03,678.749,-0.49788,
2.29E+03,683.749,-0.45585,
2.32E+03,688.749,-0.36979,
2.35E+03,693.749,-0.28477,
2.38E+03,698.749,-0.2105,
2.41E+03,703.749,-0.15455,
2.44E+03,708.749,-0.13049,
2.47E+03,713.749,-0.12134,
2.50E+03,718.749,-0.11396,
2.53E+03,723.749,-0.1108,
2.56E+03,728.749,-0.10963,
2.59E+03,733.749,-0.10453,
2.62E+03,738.749,-0.10384,
2.65E+03,743.749,-0.1021,
2.68E+03,748.749,-0.10551,
2.71E+03,753.749,-0.10469,
2.74E+03,758.749,-0.1023,
2.77E+03,763.749,-0.10119,
2.80E+03,768.749,-9.81E-02,
2.83E+03,773.749,-9.83E-02,
2.86E+03,778.749,-9.71E-02,
2.89E+03,783.749,-9.07E-02,
2.92E+03,788.749,-8.98E-02,
2.95E+03,793.749,-8.66E-02,
2.98E+03,798.749,-9.00E-02,
3.01E+03,803.749,-9.02E-02,
3.04E+03,808.749,-9.06E-02,
3.07E+03,813.749,-8.94E-02,
3.10E+03,818.749,-9.15E-02,
3.13E+03,823.749,-8.85E-02,
3.16E+03,828.749,-8.43E-02,
3.19E+03,833.749,-8.94E-02,
3.22E+03,838.749,-9.20E-02,
3.25E+03,843.749,-9.27E-02,
3.28E+03,848.749,-8.98E-02,
3.31E+03,853.749,-8.97E-02,
3.34E+03,858.749,-9.10E-02,
3.37E+03,863.749,-9.07E-02,
3.40E+03,868.749,-9.05E-02,
3.43E+03,873.749,-8.75E-02,
3.46E+03,878.749,-8.85E-02,
3.49E+03,883.749,-8.60E-02,
3.52E+03,888.749,-9.13E-02,
3.55E+03,893.749,-9.17E-02,
3.58E+03,898.749,-9.37E-02,
3.61E+03,903.749,-9.94E-02,
3.64E+03,908.749,-9.52E-02,
3.67E+03,913.749,-9.62E-02,

File: GIDAZE+_FPA_25kW_Mass_1.csv
Time,Mass
[s],[g]
0,72.212
5.4,72.149
10,71.898
15.9,72.149
20.1,72.086
25.1,71.898
30.7,72.024
35,72.274
40,72.086
45.6,72.337
51.3,71.898
55.5,72.024
60.1,72.149
65.3,72.337
70.9,72.212
75.5,72.212
81.2,72.525
85.5,72.525
90.4,72.525
95.2,72.086
100,72.149
105,72.212
110.1,70.393
115.3,70.706
121.2,70.079
125.1,69.64
130,69.013
135,67.884
140,67.319
145,66.566
150,65.374
155,64.434
160.8,63.43
165,62.991
170.5,62.113
175,60.921
180.2,59.541
185.1,58.788
191.2,57.471
195.3,56.53
200,55.714
205.8,54.334
210,53.394
215,52.202
220.6,51.01
225,49.881
230,48.564
235.2,47.56
240.1,46.305
246.2,44.925
250.3,43.671
255,42.793
260,40.723
265,39.782
270,38.715
275.6,36.645
281.2,35.704
285.7,33.823
290,32.568
295,31
300,29.808
305.4,27.613
310.9,26.421
315,25.229
320,24.351
325,22.093
330,20.399
335,18.705
340,16.573
345,15.067
350,13.06
355,11.554
361.2,10.488
365.7,8.794
370,7.414
375,6.285
380,5.783
385.3,4.215
390,3.776
395.1,2.898
400,2.898
405,2.396
410,2.459
415,2.522
420.2,2.584
427.3,2.647
431.8,2.396
436.8,2.584
442.1,2.271
446.3,2.396
452.2,2.333
455.5,2.396
460.3,2.71
466.3,2.396
471.9,2.333
477.4,2.459
482.7,2.584
486.2,2.584
490,2.208
495,2.584
500,2.459
505,2.584
510,2.459
515,2.271
520.3,2.208
525,2.522
530,2.333

File: GIDAZE+_FPA_25kW_Mass_2.csv
Time,Mass
[s],[g]
0,75.035
6.8,75.097
12.2,75.16
16.1,75.097
20.6,75.16
24.2,75.035
29,75.223
34.8,74.972
39.4,74.721
44.7,75.285
49,75.16
54,74.721
60.7,75.223
64.7,74.972
69,75.16
74.4,74.909
79,75.16
84,75.035
89,75.16
94.1,75.097
99.1,74.972
104.2,75.285
109,74.595
114.3,74.282
119,73.968
124.9,73.09
129.9,72.212
134.4,71.898
139.3,70.769
144.3,70.204
149,69.264
154.3,68.699
159,67.507
164.4,67.068
170.3,65.751
175.2,64.684
179,63.932
184,62.865
189.5,61.674
195,60.795
200.8,59.666
205.2,58.474
210.4,57.847
214.6,56.969
219,55.84
224,54.46
229,53.895
234,52.076
239,51.261
244.3,50.069
249,48.187
254,47.309
259,46.305
264,44.8
269,43.545
274,42.291
279.2,40.597
284,39.405
289,38.402
294,36.583
299,35.077
304,33.948
309.1,32.254
314.3,30.874
319,29.62
324.3,27.299
329.3,26.044
334.6,24.225
340.5,22.155
345.1,20.713
350.6,19.395
355.1,18.141
359,16.133
365.1,14.252
369.3,12.683
374.3,11.241
379,9.923
384,7.791
389.8,6.787
394.4,5.783
399,4.153
404,3.902
409.4,3.023
414,2.647
419,2.773
424.3,2.773
429,2.647
434.3,2.71
439.3,2.584
444,2.522
449.3,2.773
455.1,2.396
460.5,2.522
464,2.898
469.1,2.584
474,2.71
479,2.835
484.4,2.647
489,2.584
494,2.522
499,2.459
504,2.71
509,2.835
514,2.584
520,2.835
524,2.961
529,2.459
534,2.71
539.3,2.459
544,2.584