Folder: matl-db/PMMA/Calibration_Data/GIDAZE+ (part 4)

File: GIDAZE+_TGA_O2-21_10K_2.csv
Time,Temperature,Mass
[s],[K],[mg]
0.00E+00,298.485,2.039
6.10E+01,303.485,2.03888
8.33E+01,308.485,2.03851
1.03E+02,313.485,2.04028
1.23E+02,318.485,2.04499
1.43E+02,323.485,2.04078
1.65E+02,328.485,2.04402
1.88E+02,333.485,2.04379
2.13E+02,338.485,2.04623
2.41E+02,343.485,2.05007
2.70E+02,348.485,2.05184
3.01E+02,353.485,2.05371
3.32E+02,358.485,2.05765
3.63E+02,363.485,2.06006
3.93E+02,368.485,2.05799
4.24E+02,373.485,2.05818
4.54E+02,378.485,2.06084
4.84E+02,383.485,2.05722
5.14E+02,388.485,2.06542
5.44E+02,393.485,2.06662
5.74E+02,398.485,2.06338
6.04E+02,403.485,2.06666
6.34E+02,408.485,2.06272
6.64E+02,413.485,2.06497
6.94E+02,418.485,2.06302
7.24E+02,423.485,2.0608
7.54E+02,428.485,2.06285
7.84E+02,433.485,2.06794
8.14E+02,438.485,2.06387
8.44E+02,443.485,2.06081
8.74E+02,448.485,2.06253
9.04E+02,453.485,2.05916
9.34E+02,458.485,2.06213
9.64E+02,463.485,2.06295
9.93E+02,468.485,2.0601
1.02E+03,473.485,2.06019
1.05E+03,478.485,2.05802
1.08E+03,483.485,2.056
1.11E+03,488.485,2.06006
1.14E+03,493.485,2.059
1.17E+03,498.485,2.05908
1.20E+03,503.485,2.06146
1.23E+03,508.485,2.05793
1.26E+03,513.485,2.05569
1.29E+03,518.485,2.05878
1.32E+03,523.485,2.06005
1.35E+03,528.485,2.06
1.38E+03,533.485,2.05204
1.41E+03,538.485,2.04897
1.44E+03,543.485,2.04094
1.47E+03,548.485,2.03224
1.50E+03,553.485,2.00818
1.53E+03,558.485,1.9868
1.56E+03,563.485,1.95397
1.59E+03,568.485,1.9272
1.62E+03,573.485,1.87544
1.65E+03,578.485,1.78163
1.68E+03,583.485,1.65162
1.71E+03,588.485,1.5506
1.74E+03,593.485,1.46232
1.77E+03,598.485,1.35622
1.80E+03,603.485,1.24373
1.83E+03,608.485,1.09979
1.86E+03,613.485,0.942583
1.89E+03,618.485,0.796968
1.92E+03,623.485,0.649793
1.95E+03,628.485,0.516731
1.98E+03,633.485,0.399302
2.01E+03,638.485,0.320843
2.04E+03,643.485,0.265763
2.07E+03,648.485,0.208119
2.10E+03,653.485,0.168133
2.13E+03,658.485,0.136349
2.16E+03,663.485,0.113475
2.19E+03,668.485,0.0978174
2.22E+03,673.485,0.0796521
2.25E+03,678.485,0.0718411
2.28E+03,683.485,0.0659949
2.31E+03,688.485,0.0659914
2.34E+03,693.485,0.064702
2.37E+03,698.485,0.0640001
2.40E+03,703.485,0.0638884
2.43E+03,708.485,0.0605752
2.46E+03,713.485,0.06410147
2.49E+03,718.485,0.0637006
2.52E+03,723.485,0.0601478
2.55E+03,728.485,0.0710145
2.58E+03,733.485,0.0669907
2.61E+03,738.485,0.0649943
2.64E+03,743.485,0.0629786
2.67E+03,748.485,0.0588955
2.70E+03,753.485,0.0671957
2.73E+03,758.485,0.0669071
2.76E+03,763.485,0.0650308
2.79E+03,768.485,0.0670254
2.82E+03,773.485,0.0667934
2.85E+03,778.485,0.0661058
2.88E+03,783.485,0.0649805
2.91E+03,788.485,0.0644471
2.94E+03,793.485,0.0634243
2.97E+03,798.485,0.0640001
3.00E+03,803.485,0.0640001
3.03E+03,808.485,0.0663113
3.06E+03,813.485,0.0658646
3.09E+03,818.485,0.062583
3.12E+03,823.485,0.0641388
3.15E+03,828.485,0.0599908
3.18E+03,833.485,0.0609726
3.21E+03,838.485,0.0619787
3.24E+03,843.485,0.0662316
3.27E+03,848.485,0.0619948
3.30E+03,853.485,0.0629584
3.33E+03,858.485,0.0630006
3.36E+03,863.485,0.0630006
3.39E+03,868.485,0.0608748
3.42E+03,873.485,0.0640637
3.45E+03,878.485,0.0640217
3.48E+03,883.485,0.0663623
3.51E+03,888.485,0.0646716
3.54E+03,893.485,0.0579633
3.57E+03,898.485,0.0619709
3.60E+03,903.485,0.0650641
3.63E+03,908.485,0.0626279
3.66E+03,913.485,0.0618498

File: GIDAZE+_TGA_O2-21_10K_3.csv
Time,Temperature,Mass
[s],[K],[mg]
0.00E+00,299.206,6.044
6.17E+01,304.206,6.04478
8.45E+01,309.206,6.04393
1.05E+02,314.206,6.043
1.25E+02,319.206,6.04604
1.46E+02,324.206,6.04434
1.68E+02,329.206,6.047
1.92E+02,334.206,6.045
2.18E+02,339.206,6.04701
2.46E+02,344.206,6.04786
2.75E+02,349.206,6.0454
3.06E+02,354.206,6.04409
3.36E+02,359.206,6.04596
3.67E+02,364.206,6.04472
3.98E+02,369.206,6.0461
4.28E+02,374.206,6.0448
4.58E+02,379.206,6.0451
4.88E+02,384.206,6.04341
5.18E+02,389.206,6.04221
5.48E+02,394.206,6.04115
5.78E+02,399.206,6.04123
6.08E+02,404.206,6.04116
6.38E+02,409.206,6.03724
6.68E+02,414.206,6.0334
6.98E+02,419.206,6.03149
7.28E+02,424.206,6.02685
7.58E+02,429.206,6.02674
7.88E+02,434.206,6.02189
8.18E+02,439.206,6.02236
8.48E+02,444.206,6.01763
8.78E+02,449.206,6.01584
9.08E+02,454.206,6.01495
9.38E+02,459.206,6.01233
9.68E+02,464.206,6.00861
9.98E+02,469.206,6.00546
1.03E+03,474.206,6.00549
1.06E+03,479.206,6.00183
1.09E+03,484.206,5.99939
1.12E+03,489.206,5.99939
1.15E+03,494.206,5.99791
1.18E+03,499.206,5.99795
1.21E+03,504.206,5.99467
1.24E+03,509.206,5.99305
1.27E+03,514.206,5.99196
1.30E+03,519.206,5.99218
1.33E+03,524.206,5.99111
1.36E+03,529.206,5.988
1.39E+03,534.206,5.98125
1.42E+03,539.206,5.96902
1.45E+03,544.206,5.94622
1.48E+03,549.206,5.90749
1.51E+03,554.206,5.8458
1.54E+03,559.206,5.77173
1.57E+03,564.206,5.70151
1.60E+03,569.206,5.62012
1.63E+03,574.206,5.50956
1.66E+03,579.206,5.32899
1.69E+03,584.206,5.0616
1.72E+03,589.206,4.71106
1.75E+03,594.206,4.37501
1.78E+03,599.206,4.02444
1.81E+03,604.206,3.6107
1.84E+03,609.206,3.09402
1.87E+03,614.206,2.5344
1.90E+03,619.206,2.01115
1.93E+03,624.206,1.57103
1.96E+03,629.206,1.19556
1.99E+03,634.206,0.916131
2.02E+03,639.206,0.703325
2.05E+03,644.206,0.544372
2.08E+03,649.206,0.420968
2.11E+03,654.206,0.328877
2.14E+03,659.206,0.257186
2.17E+03,664.206,0.204089
2.20E+03,669.206,0.16297
2.23E+03,674.206,0.131997
2.26E+03,679.206,0.108745
2.29E+03,684.206,0.0960881
2.32E+03,689.206,0.0900012
2.35E+03,694.206,0.0879994
2.38E+03,699.206,0.088
2.41E+03,704.206,0.0860285
2.44E+03,709.206,0.0829732
2.47E+03,714.206,0.0829998
2.50E+03,719.206,0.082998
2.53E+03,724.206,0.0820002
2.56E+03,729.206,0.0820002
2.59E+03,734.206,0.08298412
2.62E+03,739.206,0.0829998
2.65E+03,744.206,0.084005
2.68E+03,749.206,0.0840001
2.71E+03,754.206,0.08293335
2.74E+03,759.206,0.0806699
2.77E+03,764.206,0.0829998
2.80E+03,769.206,0.0819953
2.83E+03,774.206,0.0820002
2.86E+03,779.206,0.0820002
2.89E+03,784.206,0.0820008
2.92E+03,789.206,0.0809999
2.95E+03,794.206,0.0810005
2.98E+03,799.206,0.0799942
3.01E+03,804.206,0.0800002
3.04E+03,809.206,0.0810482
3.07E+03,814.206,0.0820002
3.10E+03,819.206,0.0820002
3.13E+03,824.206,0.0839741
3.16E+03,829.206,0.0840001
3.19E+03,834.206,0.0840001
3.22E+03,839.206,0.0840001
3.25E+03,844.206,0.0837783
3.28E+03,849.206,0.0849986
3.31E+03,854.206,0.0849998
3.34E+03,859.206,0.0842552
3.37E+03,864.206,0.0829956
3.40E+03,869.206,0.0829998
3.43E+03,874.206,0.0820014
3.46E+03,879.206,0.0810156
3.49E+03,884.206,0.0802462
3.52E+03,889.206,0.0799929
3.55E+03,894.206,0.0809999
3.58E+03,899.206,0.0809999
3.61E+03,904.206,0.0825616
3.64E+03,909.206,0.0830004
3.67E+03,914.206,0.0828439

File: GIDAZE+_TGA_O2-21_10K_4.csv
Time,Temperature,Mass
[s],[K],[mg]
0.00E+00,298.749,6.019
6.13E+01,303.749,6.02489
8.38E+01,308.749,6.02104
1.04E+02,313.749,6.02431
1.24E+02,318.749,6.02444
1.44E+02,323.749,6.02395
1.66E+02,328.749,6.02511
1.89E+02,333.749,6.024
2.15E+02,338.749,6.02571
2.43E+02,343.749,6.02706
2.72E+02,348.749,6.02439
3.03E+02,353.749,6.02297
3.34E+02,358.749,6.02306
3.64E+02,363.749,6.02508
3.95E+02,368.749,6.0251
4.25E+02,373.749,6.02255
4.55E+02,378.749,6.02298
4.86E+02,383.749,6.02088
5.16E+02,388.749,6.01899
5.46E+02,393.749,6.0201
5.76E+02,398.749,6.01802
6.06E+02,403.749,6.01392
6.35E+02,408.749,6.01304
6.65E+02,413.749,6.01282
6.95E+02,418.749,6.00607
7.25E+02,423.749,6.00384
7.55E+02,428.749,6.00285
7.85E+02,433.749,6.00169
8.15E+02,438.749,6.00113
8.45E+02,443.749,5.99595
8.75E+02,448.749,5.99273
9.05E+02,453.749,5.99307
9.35E+02,458.749,5.98905
9.65E+02,463.749,5.98621
9.95E+02,468.749,5.98358
1.03E+03,473.749,5.9828
1.06E+03,478.749,5.98008
1.09E+03,483.749,5.97794
1.12E+03,488.749,5.97707
1.15E+03,493.749,5.97688
1.18E+03,498.749,5.97495
1.21E+03,503.749,5.97252
1.24E+03,508.749,5.97097
1.27E+03,513.749,5.97012
1.30E+03,518.749,5.96987
1.33E+03,523.749,5.96878
1.36E+03,528.749,5.96721
1.39E+03,533.749,5.95961
1.42E+03,538.749,5.94631
1.45E+03,543.749,5.92428
1.48E+03,548.749,5.88587
1.51E+03,553.749,5.8235
1.54E+03,558.749,5.75144
1.57E+03,563.749,5.68045
1.60E+03,568.749,5.60221
1.63E+03,573.749,5.49235
1.66E+03,578.749,5.31313
1.69E+03,583.749,5.05104
1.72E+03,588.749,4.69766
1.75E+03,593.749,4.36807
1.78E+03,598.749,4.02205
1.81E+03,603.749,3.6194
1.83E+03,608.749,3.11609
1.87E+03,613.749,2.56268
1.89E+03,618.749,2.05536
1.93E+03,623.749,1.59502
1.96E+03,628.749,1.20691
1.99E+03,633.749,0.911943
2.02E+03,638.749,0.6941
2.05E+03,643.749,0.532213
2.08E+03,648.749,0.403579
2.11E+03,653.749,0.30481
2.14E+03,658.749,0.232628
2.17E+03,663.749,0.178959
2.20E+03,668.749,0.137805
2.23E+03,673.749,0.113579
2.26E+03,678.749,0.0873658
2.29E+03,683.749,0.0751418
2.32E+03,688.749,0.0690102
2.35E+03,693.749,0.0669999
2.38E+03,698.749,0.0669999
2.41E+03,703.749,0.0669999
2.44E+03,708.749,0.0649179
2.47E+03,713.749,0.0650004
2.50E+03,718.749,0.0668145
2.53E+03,723.749,0.0649101
2.56E+03,728.749,0.0649998
2.59E+03,733.749,0.0670444
2.62E+03,738.749,0.0679966
2.65E+03,743.749,0.0669903
2.68E+03,748.749,0.0669999
2.71E+03,753.749,0.0669999
2.74E+03,758.749,0.0653134
2.77E+03,763.749,0.0649998
2.80E+03,768.749,0.06195778
2.83E+03,773.749,0.063037
2.86E+03,778.749,0.0640367
2.89E+03,783.749,0.0640843
2.92E+03,788.749,0.0630418
2.95E+03,793.749,0.0630003
2.98E+03,798.749,0.0630003
3.01E+03,803.749,0.0639994
3.04E+03,808.749,0.06488783
3.07E+03,813.749,0.0660001
3.10E+03,818.749,0.0659947
3.13E+03,823.749,0.0670059
3.16E+03,828.749,0.0649962
3.19E+03,833.749,0.064
3.22E+03,838.749,0.064
3.25E+03,843.749,0.0631074
3.28E+03,848.749,0.06201797
3.31E+03,853.749,0.0620059
3.34E+03,858.749,0.0610008
3.37E+03,863.749,0.0599998
3.40E+03,868.749,0.0599998
3.43E+03,873.749,0.059124
3.46E+03,878.749,0.059
3.49E+03,883.749,0.059
3.52E+03,888.749,0.0590012
3.55E+03,893.749,0.0599998
3.58E+03,898.749,0.0599998
3.61E+03,903.749,0.05812127
3.64E+03,908.749,0.0599998
3.67E+03,913.749,0.0620884