Folder: matl-db/PMMA/Calibration_Data/GIDAZE+ (part 3)

File: GIDAZE+_FPA_25kW_Temp_1.csv
Time,Mass,Back Surface Temperature 1
[s],[g],[K]
1,0,296.865
3,0,296.786
5,0,296.736
7,0,296.689
9,0,296.662
11,0,296.647
13,0,296.647
15,0,296.661
17,0,296.728
19,0,296.842
21,0,297.013
23,0,297.393
25,0,297.717
27,0,298
29,0,298.292
31,0,298.609
33,0,298.959
35,0,299.311
37,0,299.707
39,0,300.11
41,0,300.491
43,0,300.935
45,0,301.374
47,0,301.828
49,0,302.311
51,0,302.793
53,0,303.311
55,0,303.827
57,0,304.372
59,0,304.907
61,0,305.483
63,0,306.045
65,0,306.631
67,0,307.232
69,0,307.842
71,0,308.528
73,0,309.217
75,0,309.972
77,0,310.77
79,0,311.628
81,0,312.513
83,0,313.486
85,0,314.512
87,0,315.61
89,0,316.73
91,0,317.984
93,0,319.326
95,0,320.696
97,0,322.202
99,0,323.799
101,0,325.489
103,0,327.281
105,0,329.079
107,0,330.831
109,0,332.389
111,0,334.364
113,0,335.938
115,0,337.91
117,0,340.121
119,0,342.708
121,0,345.401
123,0,345.82
125,0,348.597
127,0,351.037
129,0,353.804
131,0,357.74
133,0,359.54
135,0,360.787
137,0,362.049
139,0,363.096
141,0,364.192
143,0,365.183
145,0,365.753
147,0,366.229
149,0,363.389
151,0,358.765
153,0,354.068
155,0,349.59
157,0,345.439
159,0,341.943
161,0,339.226
163,0,337.32
165,0,336.01
167,0,335.091
169,0,334.434
171,0,333.994
173,0,333.664
175,0,333.419
177,0,333.163
179,0,332.789
181,0,332.595
183,0,332.429
185,0,332.329
187,0,332.288
189,0,332.291
191,0,332.327
193,0,332.393
195,0,332.495
197,0,332.618
199,0,332.786
201,0,333.044
203,0,333.248
205,0,333.489
207,0,333.783
209,0,334.064
211,0,334.368
213,0,334.633
215,0,334.892
217,0,335.173
219,0,335.181
221,0,335.415
223,0,335.698
225,0,336.11
227,0,336.489
229,0,336.958
231,0,337.527
233,0,338.084
235,0,338.803
237,0,339.52
239,0,340.255
241,0,340.713
243,0,341.151
245,0,341.639
247,0,341.886
249,0,342.356
251,0,342.641
253,0,342.911
255,0,343.228
257,0,343.57
259,0,343.956
261,0,344.333
263,0,344.799
265,0,345.193
267,0,345.681
269,0,346.506
271,0,347.629
273,0,349.587
275,0,352.79
277,0,355.541
279,0,358.423
281,0,362.766
283,0,376.336
285,0,379.799
287,0,380.711
289,0,380.221
291,0,380.838
293,0,382.187
295,0,383.478
297,0,385.558
299,0,387.409
301,0,388.853
303,0,389.154
305,0,390.762
307,0,391.607
309,0,392.859
311,0,394.019
313,0,395.697
315,0,395.852
317,0,397.8
319,0,400.327
321,0,402.01
323,0,403.639
325,0,406.475
327,0,410.492
329,0,419.932
331,0,434.744
333,0,443.206
335,0,459.805
337,0,470.416
339,0,480.714
341,0,487.294
343,0,491.34
345,0,495.724
347,0,501.013
349,0,507.212
351,0,519.698
353,0,525.293
355,0,530.525
357,0,535.319
359,0,537.911
361,0,538.486
363,0,538.956
365,0,543.158
367,0,547.322
369,0,546.526
371,0,549.149
373,0,555.857
375,0,560.574
377,0,564.075
379,0,568.683
381,0,570.934
383,0,575.352
385,0,578.937
387,0,579.762
389,0,576.088
391,0,553.373
393,0,542.434
395,0,543.772
397,0,553.93
399,0,558.815
401,0,554.985
403,0,548.1
405,0,543.242
407,0,541.036
409,0,539.385
411,0,539.315
413,0,539.338
415,0,539.686
417,0,540.144
419,0,540.275
421,0,540.257
423,0,541.997
425,0,541.28
427,0,541.893
429,0,543.542
431,0,544.389
433,0,543.835
435,0,545.498
437,0,546.876
439,0,547.434
441,0,548.361
443,0,549.001
445,0,548.861
447,0,550.023
449,0,550.245
451,0,550.595
453,0,552.103
455,0,554.054
457,0,554.895
459,0,555.352
461,0,555.227
463,0,556.033
465,0,557.783
467,0,558.014
469,0,558.553
471,0,559.412
473,0,559.205
475,0,560.913
477,0,560.976
479,0,560.882
481,0,562.936
483,0,562.967
485,0,563.676
487,0,565.016
489,0,565.437
491,0,566.121
493,0,566.645
495,0,567.505
497,0,568.408
499,0,570.074
501,0,569.372
503,0,570.398
505,0,571.693
507,0,572.291
509,0,572.003
511,0,573.253
513,0,572.602
515,0,573.044
517,0,573.554
519,0,574.062
521,0,574.977
523,0,575.235
525,0,576.335
527,0,576.849
529,0,577.196
531,0,578.167
533,0,578.047

File: GIDAZE+_FPA_25kW_Temp_2.csv
Time,Mass,Back surface temperature
[s],[g],[K]
1,0,299.291
3,0,299.282
5,0,299.287
7,0,299.286
9,0,299.293
11,0,299.339
13,0,299.372
15,0,299.482
17,0,299.805
19,0,299.967
21,0,300.16
23,0,300.364
25,0,300.589
27,0,300.838
29,0,301.076
31,0,301.348
33,0,301.637
35,0,301.957
37,0,302.301
39,0,302.656
41,0,303.045
43,0,303.432
45,0,303.884
47,0,304.304
49,0,304.745
51,0,305.24
53,0,305.76
55,0,306.295
57,0,306.85
59,0,307.462
61,0,308.065
63,0,308.689
65,0,309.331
67,0,309.941
69,0,310.589
71,0,311.262
73,0,311.97
75,0,312.677
77,0,313.493
79,0,314.296
81,0,315.164
83,0,316.076
85,0,317.02
87,0,318.027
89,0,319.081
91,0,320.145
93,0,321.289
95,0,322.462
97,0,323.703
99,0,325.055
101,0,326.447
103,0,327.954
105,0,329.476
107,0,330.914
109,0,332.559
111,0,334.034
113,0,335.344
115,0,336.687
117,0,338.391
119,0,340.202
121,0,341.936
123,0,343.418
125,0,345.288
127,0,346.573
129,0,348.066
131,0,350.355
133,0,353.34
135,0,357.402
137,0,360.667
139,0,362.75
141,0,364.202
143,0,365.407
145,0,366.347
147,0,367.201
149,0,367.308
151,0,364.475
153,0,361.936
155,0,358.596
157,0,352.915
159,0,348.581
161,0,344.868
163,0,342.007
165,0,339.806
167,0,338.198
169,0,336.986
171,0,336.2
173,0,335.671
175,0,335.215
177,0,334.988
179,0,334.852
181,0,334.721
183,0,334.689
185,0,334.642
187,0,334.694
189,0,334.749
191,0,334.799
193,0,334.914
195,0,335.034
197,0,335.192
199,0,335.348
201,0,335.519
203,0,335.689
205,0,335.89
207,0,336.125
209,0,336.346
211,0,336.624
213,0,336.888
215,0,337.151
217,0,337.448
219,0,337.705
221,0,337.994
223,0,338.35
225,0,338.703
227,0,339.033
229,0,339.362
231,0,339.72
233,0,340.046
235,0,340.309
237,0,340.585
239,0,340.941
241,0,341.296
243,0,341.581
245,0,341.855
247,0,342.234
249,0,342.61
251,0,343.021
253,0,343.377
255,0,343.754
257,0,344.139
259,0,344.597
261,0,345.008
263,0,345.43
265,0,345.862
267,0,346.306
269,0,346.764
271,0,347.143
273,0,347.609
275,0,348.074
277,0,348.451
279,0,348.898
281,0,349.256
283,0,349.693
285,0,350.041
287,0,350.415
289,0,350.754
291,0,351.181
293,0,351.667
295,0,352.041
297,0,352.401
299,0,352.653
301,0,353.137
303,0,353.559
305,0,353.867
307,0,354.283
309,0,354.61
311,0,355.131
313,0,355.617
315,0,356.186
317,0,356.862
319,0,357.644
321,0,358.467
323,0,358.904
325,0,359.553
327,0,360.234
329,0,360.973
331,0,361.744
333,0,362.575
335,0,363.429
337,0,364.427
339,0,365.441
341,0,366.614
343,0,367.993
345,0,369.565
347,0,371.163
349,0,372.716
351,0,374.348
353,0,376.067
355,0,377.856
357,0,380.072
359,0,382.775
361,0,385.648
363,0,388.467
365,0,390.991
367,0,393.391
369,0,395.151
371,0,397.299
373,0,399.661
375,0,401.977
377,0,404.654
379,0,407.517
381,0,410.288
383,0,413.021
385,0,415.938
387,0,418.482
389,0,422.391
391,0,428.059
393,0,434.26
395,0,440.592
397,0,446.815
399,0,454.717
401,0,465.477
403,0,471.249
405,0,471.504
407,0,469.996
409,0,467.482
411,0,466.823
413,0,465.57
415,0,465.418
417,0,464.246
419,0,463.796
421,0,464.117
423,0,465.089
425,0,465.708
427,0,466.592
429,0,467.604
431,0,468.808
433,0,469.183
435,0,469.973
437,0,470.775
439,0,472.182
441,0,473.327
443,0,474.374
445,0,474.663
447,0,475.965
449,0,476.675
451,0,477.766
453,0,478.173
455,0,480.057
457,0,480.394
459,0,481.276
461,0,482.174
463,0,482.857
465,0,483.757
467,0,484.894
469,0,485.09
471,0,486.397
473,0,487.31
475,0,488.011
477,0,489.23
479,0,489.853
481,0,490.657
483,0,491.556
485,0,492.388
487,0,492.896
489,0,493.751
491,0,494.746
493,0,495.41
495,0,496.071
497,0,496.928
499,0,497.858
501,0,498.525
503,0,499.696
505,0,500.139
507,0,500.829
509,0,501.681
511,0,501.884
513,0,502.986
515,0,503.67
517,0,503.861
519,0,505.172
521,0,505.834
523,0,506.477
525,0,506.712
527,0,507.34
529,0,508.643
531,0,508.887
533,0,510.202
535,0,510.472
537,0,511.074
539,0,511.782
541,0,512.303
542,0,512.782

File: GIDAZE+_FPA_65kW_Mass_1.csv
Time,Mass
[s],[g]
-0.4,74.721
4.4,75.035
9.5,74.721
14,74.784
19,74.784
24,74.282
29.3,72.964
34.3,72.588
39,71.271
44,70.204
49.6,68.636
54,67.507
59,65.186
64.5,64.057
69.2,62.74
74,61.36
79.2,59.415
84,58.035
89.3,56.655
94,54.209
99,52.641
104,51.261
110.2,48.752
114,46.807
119,45.553
124,43.044
129,41.224
134.5,38.402
139,36.645
144,34.638
149,32.819
155.2,29.118
160.3,27.174
164.4,25.041
169,22.908
174.4,21.214
179.3,17.764
184,15.883
189.4,13.499
194,10.425
199,8.355
204,6.913
209.3,5.093
214,3.839
219,3.086
224.1,3.023
229,2.396
234.1,2.208
239.3,2.333
244,2.333
249.1,2.145
254,2.459
259,2.083
264.8,2.271
269,2.522
274,2.647
279.5,2.522
284.3,2.522
289.3,2.647
295.6,2.333
300.3,2.522
305,2.271
309,2.208
314,2.333
319,2.459
324,2.271
329,2.522
335.1,2.271
339.6,2.522
344,2.522
349,2.522

File: GIDAZE+_FPA_65kW_Mass_2.csv
Time,Mass
[s],[g]
-0.4,72.4
4.7,72.086
10.2,71.584
14.3,71.647
19,72.274
24.3,71.208
29.1,70.769
34,69.828
39.3,67.946
45,66.88
49,65.625
54.3,63.744
60.2,62.175
65.1,61.046
69.6,59.102
74,57.847
79,56.279
84.7,54.209
90.2,52.766
94.6,51.324
99,49.944
104,48.438
109,46.18
114,44.486
119.3,41.977
124,40.095
129,38.527
134,35.516
139,33.885
144.4,31.941
149,28.93
154.5,27.111
159,24.853
164.8,22.03
169,19.646
174.8,16.573
179,14.377
184.3,11.993
189,9.735
194,6.662
199,5.156
204,4.153
209.4,2.647
214,1.894
219.5,1.832
224.6,1.393
229,1.455
234,1.643
239,1.832
244.4,1.706
249,1.455
254.2,1.832
260.2,1.455
264,1.33
269,1.643
274,1.518
279,1.393
284,1.267
289,1.769
294,1.581
299,1.643
304.5,1.455
309.4,1.267
314,1.33
319,1.643
324.5,1.267
329,1.518
334,1.518
339,1.769
344,1.267

File: GIDAZE+_TGA_N2_10K_1.csv
Time,Temperature,Mass
[s],[K],[mg]
0,297.95,2.015
60,302.95,2.01687
84,307.95,2.01771
102,312.95,2.01695
120,317.95,2.01619
144,322.95,2.02209
162,327.95,2.02716
186,332.95,2.02901
210,337.95,2.031
240,342.95,2.03303
270,347.95,2.036
300,352.95,2.03875
330,357.95,2.03963
360,362.95,2.03867
390,367.95,2.042
420,372.95,2.04408
450,377.95,2.04469
480,382.95,2.04793
510,387.95,2.04847
540,392.95,2.04902
570,397.95,2.04919
600,402.95,2.04694
630,407.95,2.04781
660,412.95,2.04906
690,417.95,2.05182
720,422.95,2.05111
750,427.95,2.05011
780,432.95,2.04987
810,437.95,2.04813
840,442.95,2.04686
870,447.95,2.04201
900,452.95,2.03976
930,457.95,2.03703
960,462.95,2.03401
990,467.95,2.03193
1020,472.95,2.02903
1050,477.95,2.02289
1080,482.95,2.01905
1110,487.95,2.01205
1140,492.95,2.00793
1170,497.95,2.00403
1200,502.95,2.00089
1230,507.95,2.002
1260,512.95,2.00377
1290,517.95,1.99995
1320,522.95,2.00206
1350,527.95,2.00302
1380,532.95,2.00099
1410,537.95,2.00207
1440,542.95,1.99786
1470,547.95,1.99395
1500,552.95,1.98282
1530,557.95,1.97505
1560,562.95,1.96592
1590,567.95,1.95389
1620,572.95,1.94093
1650,577.95,1.92489
1680,582.95,1.90787
1710,587.95,1.88583
1740,592.95,1.86282
1770,597.95,1.83479
1800,602.95,1.79929
1830,607.95,1.73909
1860,612.95,1.66126
1890,617.95,1.56521
1920,622.95,1.44843
1950,627.95,1.30411
1980,632.95,1.13528
2010,637.95,0.969814
2040,642.95,0.79602
2070,647.95,0.63979
2100,652.95,0.503699
2130,657.95,0.385622
2160,662.95,0.3
2190,667.95,0.232513
2220,672.95,0.18961
2250,677.95,0.159746
2280,682.95,0.139762
2310,687.95,0.12518
2340,692.95,0.116992
2370,697.95,0.112082
2400,702.95,0.1089712
2430,707.95,0.107
2460,712.95,0.107
2490,717.95,0.107
2520,722.95,0.107
2550,727.95,0.107
2580,732.95,0.107
2610,737.95,0.107
2640,742.95,0.107
2670,747.95,0.107
2700,752.95,0.107
2730,757.95,0.104987
2760,762.95,0.105186
2790,767.95,0.106
2820,772.95,0.106
2850,777.95,0.106
2880,782.95,0.106
2910,787.95,0.106
2940,792.95,0.107084
2970,797.95,0.107
3000,802.95,0.107
3030,807.95,0.106971
3060,812.95,0.105
3090,817.95,0.10596
3120,822.95,0.10719
3150,827.95,0.106988
3180,832.95,0.106975
3210,837.95,0.107185
3240,842.95,0.108
3270,847.95,0.107821
3300,852.95,0.105994
3330,857.95,0.105887
3360,862.95,0.106
3390,867.95,0.105996
3420,872.95,0.106997
3450,877.95,0.108
3480,882.95,0.107999
3510,887.95,0.10704
3540,892.95,0.10716
3570,897.95,0.107
3600,902.95,0.105997
3630,907.95,0.104913
3660,912.95,0.107
3690,917.95,0.107

File: GIDAZE+_TGA_N2_10K_2.csv
Time,Temperature,Mass
[s],[K],[mg]
0,297.714,1.978
60.5,302.714,1.97659
82.1,307.714,1.97805
102,312.714,1.97891
121,317.714,1.97724
140,322.714,1.97993
162,327.714,1.98206
184,332.714,1.984
209,337.714,1.98597
236,342.714,1.99001
265,347.714,1.99413
296,352.714,1.99695
327,357.714,1.996
358,362.714,1.99566
389,367.714,1.99695
419,372.714,1.99782
449,377.714,1.99946
479,382.714,2.0009
510,387.714,2.00014
540,392.714,1.9999
569,397.714,2.00003
599,402.714,2.00004
629,407.714,1.99937
659,412.714,2.00138
689,417.714,2.00183
719,422.714,2.00142
749,427.714,2.00054
779,432.714,2.00063
809,437.714,1.99958
839,442.714,1.99736
869,447.714,1.99378
899,452.714,1.98991
929,457.714,1.98491
959,462.714,1.98394
989,467.714,1.97995
1020,472.714,1.9769
1050,477.714,1.97164
1080,482.714,1.96703
1110,487.714,1.96003
1140,492.714,1.95436
1170,497.714,1.94984
1200,502.714,1.94767
1230,507.714,1.9459
1260,512.714,1.94911
1290,517.714,1.94608
1320,522.714,1.9463
1350,527.714,1.94497
1380,532.714,1.944
1410,537.714,1.94601
1440,542.714,1.94031
1470,547.714,1.93479
1500,552.714,1.92516
1530,557.714,1.91747
1560,562.714,1.90674
1590,567.714,1.89566
1620,572.714,1.88261
1650,577.714,1.86941
1680,582.714,1.85171
1710,587.714,1.83111
1740,592.714,1.80659
1770,597.714,1.77708
1800,602.714,1.73875
1830,607.714,1.68029
1860,612.714,1.60774
1890,617.714,1.51253
1920,622.714,1.39849
1950,627.714,1.25474
1980,632.714,1.09638
2010,637.714,0.929237
2040,642.714,0.758749
2070,647.714,0.600417
2100,652.714,0.465133
2130,657.714,0.351134
2160,662.714,0.261344
2190,667.714,0.197844
2220,672.714,0.150971
2250,677.714,0.121115
2280,682.714,0.0996176
2310,687.714,0.0863984
2340,692.714,0.07813911
2370,697.714,0.0729514
2400,702.714,0.0709962
2430,707.714,0.0690002
2460,712.714,0.069
2490,717.714,0.069
2520,722.714,0.069
2550,727.714,0.0668964
2580,732.714,0.067
2610,737.714,0.067
2640,742.714,0.0670002
2670,747.714,0.0679989
2700,752.714,0.06800008
2730,757.714,0.06800008
2760,762.714,0.06800008
2790,767.714,0.06800008
2820,772.714,0.06800008
2850,777.714,0.06800008
2880,782.714,0.06800008
2910,787.714,0.06800008
2940,792.714,0.068815
2970,797.714,0.067
3000,802.714,0.0653664
3030,807.714,0.06399997
3060,812.714,0.06399997
3090,817.714,0.0650117
3120,822.714,0.0659008
3150,827.714,0.0660163
3180,832.714,0.0680483
3210,837.714,0.0669064
3240,842.714,0.0669527
3270,847.714,0.0670071
3300,852.714,0.0652224
3330,857.714,0.0660514
3360,862.714,0.0659999
3390,867.714,0.0660017
3420,872.714,0.0670087
3450,877.714,0.067
3480,882.714,0.066015
3510,887.714,0.0659732
3540,892.714,0.06667205
3570,897.714,0.0659999
3600,902.714,0.0659999
3630,907.714,0.0664863
3660,912.714,0.0680007
3690,917.714,0.0659916

File: GIDAZE+_TGA_O2-10_10K_1.csv
Time,Temperature,Mass
[s],[K],[mg]
0,299.132,1.976
61.5,304.132,1.97771
84.2,309.132,1.97899
105,314.132,1.97815
125,319.132,1.97919
146,324.132,1.97659
168,329.132,1.97787
191,334.132,1.97907
217,339.132,1.97965
245,344.132,1.97885
275,349.132,1.98117
305,354.132,1.98404
336,359.132,1.983
367,364.132,1.98618
397,369.132,1.98833
427,374.132,1.99094
458,379.132,1.99256
488,384.132,1.99069
518,389.132,1.989
548,394.132,1.98841
578,399.132,1.98974
608,404.132,1.99041
638,409.132,1.98914
668,414.132,1.98707
697,419.132,1.98597
727,424.132,1.98848
757,429.132,1.98569
787,434.132,1.98335
817,439.132,1.98312
847,444.132,1.98128
878,449.132,1.98096
908,454.132,1.98039
937,459.132,1.98141
967,464.132,1.98229
997,469.132,1.98353
1030,474.132,1.98332
1060,479.132,1.98223
1090,484.132,1.981
1120,489.132,1.98241
1150,494.132,1.98402
1180,499.132,1.983
1210,504.132,1.98308
1240,509.132,1.98336
1270,514.132,1.98444
1300,519.132,1.98108
1330,524.132,1.98003
1360,529.132,1.97991
1390,534.132,1.97759
1420,539.132,1.97276
1450,544.132,1.96901
1480,549.132,1.95654
1510,554.132,1.9321
1540,559.132,1.89385
1570,564.132,1.82354
1600,569.132,1.74216
1630,574.132,1.66565
1660,579.132,1.57441
1690,584.132,1.47952
1720,589.132,1.3991
1750,594.132,1.32389
1780,599.132,1.24253
1810,604.132,1.15003
1840,609.132,1.04742
1870,614.132,0.935781
1900,619.132,0.814745
1930,624.132,0.691898
1960,629.132,0.574863
1990,634.132,0.465577
2020,639.132,0.372843
2050,644.132,0.298488
2080,649.132,0.236638
2110,654.132,0.18904
2140,659.132,0.1510405
2170,664.132,0.120967
2200,669.132,0.0970194
2230,674.132,0.08124403
2260,679.132,0.0697605
2290,684.132,0.0635519
2320,689.132,0.062
2350,694.132,0.0610272
2380,699.132,0.0610037
2410,704.132,0.0629931
2440,709.132,0.0635557
2470,714.132,0.063
2500,719.132,0.0610533
2530,724.132,0.0609995
2560,729.132,0.062
2590,734.132,0.0629984
2620,739.132,0.0610248
2650,744.132,0.060996
2680,749.132,0.0590002
2710,754.132,0.0584449
2740,759.132,0.0570001
2770,764.132,0.0589526
2800,769.132,0.059
2830,774.132,0.059
2860,779.132,0.059
2890,784.132,0.0584125
2920,789.132,0.0591654
2950,794.132,0.05939283
2980,799.132,0.0579918
3010,804.132,0.0609774
3040,809.132,0.06099991
3070,814.132,0.0619766
3100,819.132,0.062
3130,824.132,0.0630842
3160,829.132,0.0652945
3190,834.132,0.066
3220,839.132,0.06500131
3250,844.132,0.0629935
3280,849.132,0.063
3310,854.132,0.063
3340,859.132,0.063
3370,864.132,0.0629712
3400,869.132,0.0610017
3430,874.132,0.06099991
3460,879.132,0.06102797
3490,884.132,0.0629921
3520,889.132,0.0671862
3550,894.132,0.067
3580,899.132,0.0663956
3610,904.132,0.0679679
3640,909.132,0.066
3670,914.132,0.066

File: GIDAZE+_TGA_O2-10_10K_2.csv
Time,Temperature,Mass
[s],[K],[mg]
0,299.402,1.993
61.8,304.402,1.9941
84.7,309.402,1.99683
105,314.402,1.994
126,319.402,1.9961
147,324.402,1.99496
169,329.402,1.99564
193,334.402,1.99744
219,339.402,1.99702
247,344.402,2.00151
277,349.402,2.00426
307,354.402,2.00643
338,359.402,2.00582
368,364.402,2.00792
399,369.402,2.00799
429,374.402,2.01098
459,379.402,2.01193
489,384.402,2.01411
520,389.402,2.0114
550,394.402,2.01092
580,399.402,2.01311
609,404.402,2.01302
639,409.402,2.01201
669,414.402,2.00899
699,419.402,2.01101
729,424.402,2.008
759,429.402,2.00501
789,434.402,2.00492
819,439.402,2.00601
849,444.402,2.00605
879,449.402,2.00593
909,454.402,2.00603
939,459.402,2.00498
969,464.402,2.00398
999,469.402,2.007
1030,474.402,2.00799
1060,479.402,2.006
1090,484.402,2.002
1120,489.402,2.004
1150,494.402,2.00197
1180,499.402,2.00201
1210,504.402,2.003
1240,509.402,2.004
1270,514.402,2.00301
1300,519.402,2.00298
1330,524.402,2.00298
1360,529.402,2.00297
1390,534.402,2.00102
1420,539.402,1.999
1450,544.402,1.99199
1480,549.402,1.97796
1510,554.402,1.95184
1540,559.402,1.91476
1570,564.402,1.83855
1600,569.402,1.75704
1630,574.402,1.67095
1660,579.402,1.57415
1690,584.402,1.47333
1720,589.402,1.38741
1750,594.402,1.31046
1780,599.402,1.22556
1810,604.402,1.13456
1840,609.402,1.03116
1870,614.402,0.918067
1900,619.402,0.80103
1930,624.402,0.681045
1960,629.402,0.563175
1990,634.402,0.457296
2020,639.402,0.365397
2050,644.402,0.291465
2080,649.402,0.23178
2110,654.402,0.181913
2140,659.402,0.144859
2170,664.402,0.112894
2200,669.402,0.0908517
2230,674.402,0.0738988
2260,679.402,0.0639787
2290,684.402,0.0579216
2320,689.402,0.055864
2350,694.402,0.0559999
2380,699.402,0.0559999
2410,704.402,0.0580637
2440,709.402,0.0590024
2470,714.402,0.0569998
2500,719.402,0.0559925
2530,724.402,0.05600051
2560,729.402,0.0569986
2590,734.402,0.059
2620,739.402,0.059
2650,744.402,0.0590038
2680,749.402,0.057
2710,754.402,0.0559323
2740,759.402,0.055
2770,764.402,0.055
2800,769.402,0.0530407
2830,774.402,0.0529998
2860,779.402,0.0529998
2890,784.402,0.0529998
2920,789.402,0.0551359
2950,794.402,0.0539266
2980,799.402,0.0540087
3010,804.402,0.0570042
3040,809.402,0.057
3070,814.402,0.0580043
3100,819.402,0.0579999
3130,824.402,0.0569839
3160,829.402,0.0579806
3190,834.402,0.0580485
3220,839.402,0.05602901
3250,844.402,0.055
3280,849.402,0.0550317
3310,854.402,0.0540001
3340,859.402,0.0529373
3370,864.402,0.053
3400,869.402,0.053
3430,874.402,0.053
3460,879.402,0.0529773
3490,884.402,0.0550066
3520,889.402,0.0588772
3550,894.402,0.0570002
3580,899.402,0.0559333
3610,904.402,0.05701
3640,909.402,0.057
3670,914.402,0.057

File: GIDAZE+_TGA_O2-21_10K_1.csv
Time,Temperature,Mass
[s],[K],[mg]
0.00E+00,298.308,2.04
6.09E+01,303.308,2.03513
8.29E+01,308.308,2.04038
1.03E+02,313.308,2.0416
1.22E+02,318.308,2.04487
1.42E+02,323.308,2.04144
1.64E+02,328.308,2.04301
1.87E+02,333.308,2.04376
2.12E+02,338.308,2.04683
2.40E+02,343.308,2.05099
2.69E+02,348.308,2.05276
3.00E+02,353.308,2.05295
3.31E+02,358.308,2.05779
3.62E+02,363.308,2.0585
3.92E+02,368.308,2.05691
4.22E+02,373.308,2.05704
4.53E+02,378.308,2.05712
4.83E+02,383.308,2.05199
5.13E+02,388.308,2.059
5.43E+02,393.308,2.06201
5.73E+02,398.308,2.059
6.03E+02,403.308,2.062
6.33E+02,408.308,2.06092
6.63E+02,413.308,2.06197
6.93E+02,418.308,2.06099
7.22E+02,423.308,2.06001
7.52E+02,428.308,2.06303
7.82E+02,433.308,2.06201
8.13E+02,438.308,2.06085
8.42E+02,443.308,2.05803
8.73E+02,448.308,2.06122
9.03E+02,453.308,2.0579
9.33E+02,458.308,2.05617
9.62E+02,463.308,2.05512
9.92E+02,468.308,2.05683
1.02E+03,473.308,2.05596
1.05E+03,478.308,2.05607
1.08E+03,483.308,2.05787
1.11E+03,488.308,2.05787
1.14E+03,493.308,2.05486
1.17E+03,498.308,2.05596
1.20E+03,503.308,2.05601
1.23E+03,508.308,2.05599
1.26E+03,513.308,2.05599
1.29E+03,518.308,2.05509
1.32E+03,523.308,2.05393
1.35E+03,528.308,2.05101
1.38E+03,533.308,2.04801
1.41E+03,538.308,2.04711
1.44E+03,543.308,2.04013
1.47E+03,548.308,2.02515
1.50E+03,553.308,2.00559
1.53E+03,558.308,1.97751
1.56E+03,563.308,1.94451
1.59E+03,568.308,1.91632
1.62E+03,573.308,1.86806
1.65E+03,578.308,1.76718
1.68E+03,583.308,1.62423
1.71E+03,588.308,1.5025
1.74E+03,593.308,1.39262
1.77E+03,598.308,1.26645
1.80E+03,603.308,1.11651
1.83E+03,608.308,0.951951
1.86E+03,613.308,0.7837578
1.89E+03,618.308,0.6284985
1.92E+03,623.308,0.499305
1.95E+03,628.308,0.391287
1.98E+03,633.308,0.310712
2.01E+03,638.308,0.255562
2.04E+03,643.308,0.21537
2.07E+03,648.308,0.176259
2.10E+03,653.308,0.150181
2.13E+03,658.308,0.127173
2.16E+03,663.308,0.108213
2.19E+03,668.308,0.0960563
2.22E+03,673.308,0.0800394
2.25E+03,678.308,0.0740971
2.28E+03,683.308,0.0660301
2.31E+03,688.308,0.0639999
2.34E+03,693.308,0.06215574
2.37E+03,698.308,0.0618442
2.40E+03,703.308,0.0650101
2.43E+03,708.308,0.0628842
2.46E+03,713.308,0.0629438
2.49E+03,718.308,0.06302478
2.52E+03,723.308,0.0619515
2.55E+03,728.308,0.06585324
2.58E+03,733.308,0.0659479
2.61E+03,738.308,0.0670379
2.64E+03,743.308,0.0650024
2.67E+03,748.308,0.0629981
2.70E+03,753.308,0.0649999
2.73E+03,758.308,0.0650032
2.76E+03,763.308,0.0649993
2.79E+03,768.308,0.0610007
2.82E+03,773.308,0.06100008
2.85E+03,778.308,0.0629658
2.88E+03,783.308,0.0590046
2.91E+03,788.308,0.0569807
2.94E+03,793.308,0.0569827
2.97E+03,798.308,0.0580001
3.00E+03,803.308,0.0580001
3.03E+03,808.308,0.0599523
3.06E+03,813.308,0.0601037
3.09E+03,818.308,0.0580001
3.12E+03,823.308,0.0579999
3.15E+03,828.308,0.05900088
3.18E+03,833.308,0.0550002
3.21E+03,838.308,0.0559639
3.24E+03,843.308,0.0559615
3.27E+03,848.308,0.0580174
3.30E+03,853.308,0.06200886
3.33E+03,858.308,0.0540443
3.36E+03,863.308,0.0569964
3.39E+03,868.308,0.0560555
3.42E+03,873.308,0.0549672
3.45E+03,878.308,0.0579258
3.48E+03,883.308,0.0580784
3.51E+03,888.308,0.060027
3.54E+03,893.308,0.0550186
3.57E+03,898.308,0.057996
3.60E+03,903.308,0.0590343
3.63E+03,908.308,0.0561157
3.66E+03,913.308,0.05502288