Folder: matl-db/PMMA/Calibration_Data/HKPoly (part 2)

File: HKPolyU_TGA_N2_10K_1.csv
Time,Temperature,Mass
[s],[k],[mg]
0.24,300.03,4.104
11.76,301.529,4.1018
23.76,303.413,4.0998
35.76,305.606,4.098
47.76,308.017,4.0969
59.76,310.538,4.0962
71.76,313.081,4.0956
83.76,315.613,4.0954
95.76,318.045,4.0952
107.76,320.383,4.0951
119.76,322.618,4.0953
131.76,324.751,4.0952
143.76,326.786,4.0953
155.76,328.76,4.0953
167.76,330.689,4.0953
179.76,332.588,4.0952
191.76,334.483,4.0951
203.76,336.385,4.095
215.76,338.301,4.0948
227.76,340.237,4.095
239.76,342.199,4.0949
251.76,344.179,4.0947
263.76,346.19,4.0948
275.76,348.208,4.0947
287.76,350.236,4.0946
299.76,352.276,4.0945
311.76,354.312,4.0945
323.76,356.341,4.0944
335.76,358.373,4.0945
347.76,360.401,4.0945
359.76,362.424,4.0944
371.76,364.457,4.0945
383.76,366.462,4.0945
395.76,368.472,4.0947
407.76,370.482,4.0951
419.76,372.483,4.095
431.76,374.501,4.0952
443.76,376.511,4.0956
455.76,378.519,4.0957
467.76,380.536,4.0956
479.76,382.553,4.0955
491.76,384.566,4.0954
503.76,386.595,4.0953
515.76,388.612,4.0952
527.76,390.632,4.095
539.76,392.657,4.0947
551.76,394.68,4.0943
563.76,396.694,4.0939
575.76,398.718,4.0933
587.76,400.732,4.0928
599.76,402.754,4.0922
611.76,404.775,4.0917
623.76,406.78,4.0912
635.76,408.801,4.0905
647.76,410.817,4.0899
659.76,412.831,4.0892
671.76,414.852,4.0884
683.76,416.861,4.0878
695.76,418.866,4.0869
707.76,420.878,4.0861
719.76,422.894,4.0853
731.76,424.898,4.0843
743.76,426.913,4.0833
755.76,428.932,4.0822
767.76,430.95,4.0812
779.76,432.952,4.0798
791.76,434.965,4.0783
803.76,436.971,4.0764
815.76,438.986,4.0746
827.76,440.997,4.0725
839.76,443.001,4.07
851.76,445.015,4.0674
863.76,447.02,4.0643
875.76,449.022,4.0611
887.76,451.028,4.0576
899.76,453.026,4.0536
911.76,455.029,4.0496
923.76,457.035,4.0455
935.76,459.042,4.0414
947.76,461.052,4.0371
959.76,463.056,4.0331
971.76,465.054,4.0291
983.76,467.067,4.0253
995.76,469.074,4.0215
1007.76,471.074,4.0175
1019.76,473.075,4.0138
1031.76,475.076,4.01
1043.76,477.08,4.0059
1055.76,479.086,4.0019
1067.76,481.095,3.9982
1079.76,483.098,3.9946
1091.76,485.097,3.9914
1103.76,487.099,3.9885
1115.76,489.1,3.9861
1127.76,491.106,3.984
1139.76,493.111,3.9822
1151.76,495.108,3.9808
1163.76,497.109,3.9797
1175.76,499.112,3.9788
1187.76,501.12,3.9778
1199.76,503.116,3.9772
1211.76,505.107,3.9762
1223.76,507.105,3.9755
1235.76,509.096,3.9746
1247.76,511.096,3.9738
1259.76,513.088,3.9729
1271.76,515.084,3.9718
1283.76,517.078,3.9706
1295.76,519.067,3.9695
1307.76,521.059,3.968
1319.76,523.058,3.9665
1331.76,525.052,3.9648
1343.76,527.046,3.963
1355.76,529.037,3.9608
1367.76,531.037,3.9587
1379.76,533.023,3.9562
1391.76,535.012,3.9534
1403.76,536.994,3.9506
1415.76,538.986,3.9474
1427.76,540.978,3.9439
1439.76,542.964,3.94
1451.76,544.953,3.9359
1463.76,546.938,3.9313
1475.76,548.927,3.9261
1487.76,550.915,3.9206
1499.76,552.901,3.9146
1511.76,554.888,3.9083
1523.76,556.875,3.9012
1535.76,558.863,3.8937
1547.76,560.85,3.8859
1559.76,562.839,3.8776
1571.76,564.819,3.8688
1583.76,566.808,3.8599
1595.76,568.791,3.8506
1607.76,570.772,3.8409
1619.76,572.758,3.8308
1631.76,574.744,3.8204
1643.76,576.732,3.8094
1655.76,578.711,3.7977
1667.76,580.7,3.7846
1679.76,582.678,3.7711
1691.76,584.662,3.7564
1703.76,586.641,3.7402
1715.76,588.626,3.7222
1727.76,590.609,3.7021
1739.76,592.592,3.6798
1751.76,594.569,3.6547
1763.76,596.539,3.6265
1775.76,598.514,3.5947
1787.76,600.483,3.5587
1799.76,602.451,3.518
1811.76,604.419,3.4722
1823.76,606.389,3.4205
1835.76,608.355,3.3625
1847.76,610.313,3.2976
1859.76,612.271,3.2255
1871.76,614.233,3.1457
1883.76,616.197,3.0581
1895.76,618.151,2.9624
1907.76,620.105,2.8591
1919.76,622.058,2.7482
1931.76,624.013,2.6305
1943.76,625.966,2.506
1955.76,627.929,2.3756
1967.76,629.888,2.2412
1979.76,631.859,2.1037
1991.76,633.829,1.9658
2003.76,635.81,1.8256
2015.76,637.799,1.6861
2027.76,639.783,1.5493
2039.76,641.768,1.4149
2051.76,643.767,1.2852
2063.76,645.755,1.1553
2075.76,647.753,1.0297
2087.76,649.752,0.909
2099.76,651.759,0.7949
2111.76,653.766,0.6891
2123.76,655.774,0.5908
2135.76,657.79,0.5021
2147.76,659.799,0.4234
2159.76,661.813,0.3542
2171.76,663.84,0.2934
2183.76,665.848,0.2406
2195.76,667.867,0.1949
2207.76,669.871,0.1559
2219.76,671.882,0.1233
2231.76,673.893,0.0957
2243.76,675.898,0.073
2255.76,677.898,0.054
2267.76,679.901,0.0383
2279.76,681.903,0.0255
2291.76,683.892,0.015
2303.76,685.89,0.0065
2315.76,687.88,-0.0004
2327.76,689.871,-0.0058
2339.76,691.864,-0.0102
2351.76,693.853,-0.0136
2363.76,695.842,-0.0164
2375.76,697.825,-0.0185
2387.76,699.807,-0.0203
2399.76,701.796,-0.0215
2411.76,703.776,-0.0223
2423.76,705.758,-0.0228
2435.76,707.739,-0.023
2447.76,709.725,-0.023
2459.76,711.706,-0.0232
2471.76,713.692,-0.0229
2483.76,715.671,-0.023
2495.76,717.655,-0.0228
2507.76,719.64,-0.0226
2519.76,721.627,-0.0226
2531.76,723.601,-0.0225
2543.76,725.581,-0.0223
2555.76,727.558,-0.0222
2567.76,729.544,-0.022
2579.76,731.525,-0.0218
2591.76,733.504,-0.0216
2603.76,735.488,-0.0216
2615.76,737.467,-0.0214
2627.76,739.454,-0.0212
2639.76,741.43,-0.021
2651.76,743.407,-0.0208
2663.76,745.392,-0.0208
2675.76,747.374,-0.0206
2687.76,749.362,-0.0204
2699.76,751.335,-0.0203
2711.76,753.318,-0.0201
2723.76,755.295,-0.02
2735.76,757.268,-0.0198
2747.76,759.251,-0.0196
2759.76,761.234,-0.0195
2771.76,763.215,-0.0194
2783.76,765.201,-0.0191
2795.76,767.185,-0.0189
2807.76,769.167,-0.0188
2819.76,771.151,-0.0186
2831.76,773.131,-0.0185
2843.76,775.11,-0.0183
2855.76,777.087,-0.0182
2867.76,779.067,-0.0181
2879.76,781.048,-0.018
2891.76,783.031,-0.0178
2903.76,785.012,-0.0177
2915.76,787,-0.0176
2927.76,788.976,-0.0175
2939.76,790.963,-0.0174
2951.76,792.947,-0.0172
2963.76,794.924,-0.017
2975.76,796.9,-0.0169
2987.76,798.888,-0.0168
2999.76,800.868,-0.0167
3011.76,802.846,-0.0167