Folder: matl-db/PMMA/Calibration_Data/HKPoly

Note: PMMA/Calibration_Data/HKPoly/README.md
# The Hong Kong Polytechnic University (HKPoly)

### Experimental Conditions, TGA
A TA Instruments SDT Q600 (V20.9 Build 20) was used to conduct Simultaneous Thermal Analysis (TGA + DSC) experiments. STA experiments performed in Nitrogen and in Air. Although tests were conducted simultaneously, TGA and DSC measurement data presented here are separated into two files, for consistency with other datasets.

* Heating Rate: 10 K/min
* Temperature program
  - Initial Temperature: 300 K
  - Initial Isotherm: None [?]
  - Maximum Temperature: 800 K
  - Final Isotherm: None
* Sample mass: ~4 mg
* Sample geometry: powdered
* Calibration type: Annual internal mass calibration  [?]
* Crucible
  - Type: Al2O3 [?]
  - Volume: 85 ÂµL [?]
  - Diameter: 6.8 mm [?]
  - Mass: None
  - Lid: None
  - Note: None
* Carrier Gas
  - Type: Air, Nitrogen
  - Flow rate: 100 ml/min
  - Note: None
* Instrument
  - Type: TA Instruments SDT Q600 (V20.9 Build 20)
  - Note: Simultaneous Thermal Analysis (TGA + DSC), measurement data presented as two separated files
 
| Test Name | O2 vol % |  Initial Sample Mass (mg) | 
| --------- | :----: | :------------------------:|
|HKPolyU\_STA\_N2\_10K\_1 |  0  | 4.104|  
|HKPolyU\_STA\_N2\_10K\_2 |  0  | 4.1896|  
|HKPolyU\_STA\_O2-21\_10K\_1 | 21? |3.9309|  
|HKPolyU\_STA\_O2-21\_10K\_2 | 21? |3.8808|  


### Experimental Conditions, Cone calorimeter
* Extraction flow rate: 7.14L/s
* Sample Surface Area: 0.01 m2 (nominal)
* Sample holder dimensions:
    - Insulation board with a dimension of 10 cm * 10 cm * 5 cm
* Backing Insulation: thermal conductivity?0.1 W/m.K, density?800 kg/m3, heat capacity?0.5
* Thermocouple location:
    - Back surface [center?]

###### Test Heating Conditions  
|Test Name | Heat Flux (kW/m2)| Heater Temperature (K) 
|----------|:------:| :---: |
|HKPolyU\_Cone\_25KW\_1 | 25| 900  |
|HKPolyU\_Cone\_25KW\_2 | 25| 900  |
|HKPolyU\_Cone\_65KW\_1 | 65| 1188 |
|HKPolyU\_Cone\_65KW\_2 | 65| 1188 |

File: HKPoly_TGA_O2-21_10K_1.csv
Time,Temperature,Mass
[s],[k],[mg]
0.19,302.027,3.9309
11.76,302.052,3.9304
23.76,302.215,3.9293
35.76,302.73,3.9277
47.76,303.701,3.9259
59.76,305.136,3.9243
71.76,307.005,3.9229
83.76,309.213,3.9219
95.76,311.66,3.9213
107.76,314.227,3.9209
119.76,316.83,3.9205
131.76,319.401,3.9206
143.76,321.884,3.9206
155.76,324.254,3.9207
167.76,326.5,3.921
179.76,328.635,3.9213
191.76,330.685,3.9215
203.76,332.643,3.9217
215.76,334.551,3.9217
227.76,336.441,3.9218
239.76,338.317,3.9219
251.76,340.219,3.9218
263.76,342.152,3.9218
275.76,344.107,3.9218
287.76,346.105,3.9218
299.76,348.133,3.9218
311.76,350.195,3.9217
323.76,352.263,3.9219
335.76,354.354,3.9219
347.76,356.451,3.922
359.76,358.546,3.9221
371.76,360.638,3.9222
383.76,362.721,3.9223
395.76,364.783,3.9228
407.76,366.845,3.923
419.76,368.895,3.9231
431.76,370.926,3.923
443.76,372.944,3.9231
455.76,374.964,3.923
467.76,376.973,3.9218
479.76,378.987,3.9218
491.76,380.998,3.9216
503.76,383.011,3.9215
515.76,385.033,3.9214
527.76,387.061,3.9213
539.76,389.084,3.921
551.76,391.108,3.921
563.76,393.144,3.9208
575.76,395.176,3.9208
587.76,397.209,3.9206
599.76,399.237,3.9204
611.76,401.269,3.9202
623.76,403.301,3.9197
635.76,405.331,3.9195
647.76,407.349,3.9191
659.76,409.363,3.9186
671.76,411.384,3.9181
683.76,413.399,3.9176
695.76,415.415,3.9171
707.76,417.426,3.9166
719.76,419.442,3.916
731.76,421.459,3.9156
743.76,423.469,3.915
755.76,425.484,3.9144
767.76,427.504,3.9139
779.76,429.513,3.9135
791.76,431.532,3.9131
803.76,433.545,3.9125
815.76,435.558,3.912
827.76,437.572,3.9115
839.76,439.585,3.9112
851.76,441.6,3.9107
863.76,443.609,3.9103
875.76,445.613,3.9098
887.76,447.628,3.9094
899.76,449.641,3.909
911.76,451.653,3.9085
923.76,453.658,3.9081
935.76,455.659,3.9078
947.76,457.665,3.9075
959.76,459.677,3.9071
971.76,461.679,3.9067
983.76,463.685,3.9065
995.76,465.686,3.9062
1007.76,467.692,3.9058
1019.76,469.694,3.9057
1031.76,471.698,3.9055
1043.76,473.706,3.9054
1055.76,475.709,3.9051
1067.76,477.714,3.9049
1079.76,479.717,3.9048
1091.76,481.727,3.9046
1103.76,483.726,3.9045
1115.76,485.729,3.9044
1127.76,487.731,3.9044
1139.76,489.736,3.9043
1151.76,491.741,3.9042
1163.76,493.744,3.904
1175.76,495.746,3.9038
1187.76,497.747,3.9038
1199.76,499.74,3.9038
1211.76,501.733,3.9037
1223.76,503.735,3.9037
1235.76,505.732,3.9035
1247.76,507.724,3.9035
1259.76,509.72,3.9034
1271.76,511.723,3.9033
1283.76,513.72,3.9032
1295.76,515.719,3.9031
1307.76,517.708,3.9029
1319.76,519.696,3.9025
1331.76,521.694,3.9022
1343.76,523.68,3.9018
1355.76,525.673,3.9011
1367.76,527.675,3.9002
1379.76,529.669,3.8988
1391.76,531.67,3.8968
1403.76,533.655,3.894
1415.76,535.642,3.8904
1427.76,537.633,3.8857
1439.76,539.635,3.8798
1451.76,541.626,3.8727
1463.76,543.621,3.8644
1475.76,545.606,3.8547
1487.76,547.604,3.8436
1499.76,549.593,3.8314
1511.76,551.576,3.8188
1523.76,553.561,3.8061
1535.76,555.55,3.7935
1547.76,557.536,3.7806
1559.76,559.521,3.7668
1571.76,561.508,3.7515
1583.76,563.496,3.7337
1595.76,565.49,3.7126
1607.76,567.476,3.6873
1619.76,569.465,3.6562
1631.76,571.446,3.6172
1643.76,573.43,3.5667
1655.76,575.412,3.4964
1667.76,577.391,3.3934
1679.76,579.335,3.2657
1691.76,581.269,3.1421
1703.76,583.216,3.0292
1715.76,585.198,2.9193
1727.76,587.135,2.8171
1739.76,589.112,2.7186
1751.76,591.134,2.6237
1763.76,593.064,2.5149
1775.76,595.046,2.4141
1787.76,597.025,2.3022
1799.76,598.993,2.1698
1811.76,600.933,2.0271
1823.76,602.89,1.8812
1835.76,604.874,1.7319
1847.76,606.836,1.5858
1859.76,608.822,1.4616
1871.76,610.8,1.3365
1883.76,612.79,1.222
1895.76,614.801,1.1117
1907.76,616.843,1.018
1919.76,618.881,0.9343
1931.76,620.905,0.8589
1943.76,622.922,0.7924
1955.76,624.934,0.7339
1967.76,626.94,0.6829
1979.76,628.95,0.638
1991.76,630.954,0.5987
2003.76,632.959,0.5642
2015.76,634.954,0.5337
2027.76,636.948,0.5066
2039.76,638.942,0.4825
2051.76,640.934,0.4609
2063.76,642.925,0.4414
2075.76,644.915,0.4239
2087.76,646.901,0.4081
2099.76,648.891,0.3938
2111.76,650.875,0.3808
2123.76,652.857,0.3692
2135.76,654.845,0.3583
2147.76,656.829,0.3486
2159.76,658.812,0.3398
2171.76,660.796,0.3318
2183.76,662.785,0.3243
2195.76,664.77,0.3176
2207.76,666.756,0.3113
2219.76,668.738,0.3056
2231.76,670.725,0.3005
2243.76,672.709,0.2959
2255.76,674.693,0.2917
2267.76,676.676,0.2881
2279.76,678.662,0.2851
2291.76,680.651,0.2825
2303.76,682.644,0.2811
2315.76,684.63,0.2809
2327.76,686.607,0.2809
2339.76,688.599,0.2807
2351.76,690.577,0.2808
2363.76,692.561,0.2808
2375.76,694.545,0.2807
2387.76,696.525,0.2807
2399.76,698.514,0.2807
2411.76,700.491,0.2806
2423.76,702.474,0.2805
2435.76,704.456,0.2807
2447.76,706.439,0.2806
2459.76,708.425,0.2807
2471.76,710.405,0.2807
2483.76,712.393,0.2809
2495.76,714.38,0.2809
2507.76,716.364,0.2811
2519.76,718.345,0.2813
2531.76,720.326,0.2813
2543.76,722.308,0.2815
2555.76,724.294,0.2816
2567.76,726.27,0.2818
2579.76,728.249,0.2821
2591.76,730.239,0.2822
2603.76,732.226,0.2824
2615.76,734.205,0.2825
2627.76,736.193,0.2827
2639.76,738.178,0.2829
2651.76,740.159,0.2831
2663.76,742.143,0.2833
2675.76,744.123,0.2834
2687.76,746.113,0.2837
2699.76,748.097,0.2839
2711.76,750.08,0.284
2723.76,752.068,0.2842
2735.76,754.05,0.2843
2747.76,756.026,0.2844
2759.76,758.012,0.2847
2771.76,759.993,0.285
2783.76,761.981,0.285
2795.76,763.966,0.2851
2807.76,765.955,0.2853
2819.76,767.937,0.2855
2831.76,769.92,0.2856
2843.76,771.902,0.2857
2855.76,773.889,0.2859
2867.76,775.869,0.2861
2879.76,777.853,0.2863
2891.76,779.846,0.2864
2903.76,781.83,0.2865
2915.76,783.817,0.2867
2927.76,785.802,0.2869
2939.76,787.782,0.287
2951.76,789.766,0.2872
2963.76,791.754,0.2873
2975.76,793.74,0.2874
2987.76,795.727,0.2875
2999.76,797.714,0.2877
3011.76,799.703,0.2878

File: HKPolyU_Cone_25kW_2.CSV
Time,Mass,Heat release,Back surface temperature
[s],[g],[kW/m2],[K]
1,77.53,2.06,305
3,77.52,1.6,305
5,77.51,1.23,305.1
7,77.49,4.37,305.1
9,77.49,5.61,305.1
11,77.5,4.42,305.1
13,77.5,2.16,305.1
15,77.52,1.49,304.9
17,77.51,1.96,304.9
19,77.5,0.3,304.9
21,77.5,0.89,305
23,77.49,1.17,305.3
25,77.47,0.67,305.6
27,77.47,2.79,305.6
29,77.47,3.04,305.8
31,77.45,2.86,306.4
33,77.45,0.4,306.9
35,77.47,2.86,307.4
37,77.45,0.4,308
39,77.46,2.86,308.7
41,77.42,0.4,309.5
43,77.41,1.23,310.4
45,77.41,4.01,311.3
47,77.4,3.6,312.1
49,77.39,3.15,312.9
51,77.38,2.98,313.9
53,77.35,2.14,314.8
55,77.35,2.87,315.9
57,77.36,2.99,317.1
59,77.35,3.1,318.1
61,77.34,3.13,319.2
63,77.35,4.7,320.3
65,77.35,11.15,321.5
67,77.31,18.82,322.4
69,77.23,24.51,323.4
71,77.09,22.4,324.5
73,76.93,21.69,325.6
75,76.8,22.78,326.8
77,76.63,29.95,328.2
79,76.41,44.35,329.5
81,76.19,71.41,331
83,75.93,121.17,333
85,75.67,171.6,335.9
87,75.43,217.35,338.7
89,75.07,272.41,341
91,74.76,337.1,343.2
93,74.43,390.19,345.3
95,74.07,435.64,347.3
97,73.79,480.26,349
99,73.44,517.5,350.7
101,73.06,559.94,352.4
103,72.74,608.16,353.9
105,72.37,646.74,355.3
107,72.01,675.59,356.5
109,71.62,700.86,357.6
111,71.24,721.54,358.7
113,70.81,739.01,359.5
115,70.49,755.57,360.3
117,70.11,777.08,361
119,69.73,792.56,361.7
121,69.35,811.62,361.7
123,68.96,834.63,361.3
125,68.54,848.73,361.1
127,68.19,864.44,360.7
129,67.82,874.44,359.9
131,67.41,878.86,358.7
133,67.01,883.19,357.9
135,66.6,883.39,356.9
137,66.25,882.52,356.5
139,65.81,879.65,356.3
141,65.41,877.1,356.2
143,64.99,881.65,356.5
145,64.62,887.09,357.4
147,64.21,886.13,358.3
149,63.86,883.32,360
151,63.42,882.46,362
153,63,885.59,363.4
155,62.64,910.54,365.2
157,62.27,935.47,365.6
159,61.83,943.82,366.3
161,61.46,946.51,366.9
163,61.05,945.88,367.2
165,60.63,940.98,368
167,60.2,936.7,368.8
169,59.8,928.63,369.4
171,59.43,920.87,371.4
173,59.02,917.98,373.3
175,58.6,918.09,374.7
177,58.2,922.99,376.3
179,57.78,929.23,377.6
181,57.42,942.75,378.9
183,57,956.3,379.8
185,56.61,964.18,381.2
187,56.17,954.66,382.2
189,55.77,940.61,383.4
191,55.37,934.11,384.5
193,54.96,935.64,385.6
195,54.53,940.94,386.4
197,54.13,946.6,387.7
199,53.73,955.47,388.3
201,53.31,962.63,389.4
203,52.9,964.94,390.4
205,52.55,964.96,391.1
207,52.09,964.65,392.2
209,51.69,963.98,393.1
211,51.24,957.01,394.2
213,50.81,952.61,395.2
215,50.46,953.53,396.2
217,50.08,961.62,397.1
219,49.62,967.87,398.2
221,49.19,971.69,398.9
223,48.8,974.37,399.8
225,48.4,976.47,400.9
227,47.95,976.38,401.9
229,47.56,968.93,402.8
231,47.12,963.55,403.7
233,46.7,961.68,404.6
235,46.29,966.08,405.4
237,45.85,971.05,406.2
239,45.42,979.83,406.9
241,45.03,986.95,407.6
243,44.61,992.09,408.7
245,44.15,995.95,409.4
247,43.75,997.56,409.9
249,43.3,1000.37,410.7
251,42.83,1002.16,411.2
253,42.49,1002.64,411.9
255,42.02,1003.37,412.7
257,41.64,1001.28,413.7
259,41.15,998.27,414.3
261,40.77,998.7,414.7
263,40.33,999.48,415.4
265,39.93,1000.36,416.1
267,39.51,1004.38,416.8
269,39.1,1008.91,417.6
271,38.61,1015.52,418.3
273,38.15,1023,419
275,37.74,1023.87,419.6
277,37.33,1012.13,420.2
279,36.88,1001.86,420.4
281,36.45,1004.96,420.7
283,36.04,1019.99,421.4
285,35.6,1030.91,421.8
287,35.16,1034.97,422
289,34.74,1035.24,421.5
291,34.26,1031.83,421.1
293,33.85,1024.16,420.7
295,33.38,1019.38,420.4
297,32.95,1026.35,419.3
299,32.52,1032.51,417.9
301,32.09,1037.73,417
303,31.65,1047.84,417.1
305,31.24,1053.28,417.5
307,30.83,1056.24,417.8
309,30.35,1054.34,417.8
311,29.91,1047.02,417.1
313,29.45,1039.96,416.9
315,28.99,1035.58,416.5
317,28.53,1041.54,416
319,28.1,1055.12,416.2
321,27.66,1064.14,417.5
323,27.16,1070.85,418.2
325,26.77,1075.61,418.9
327,26.34,1077.2,420.4
329,25.87,1076.85,422.8
331,25.44,1076.48,426.5
333,25.03,1074.89,437.2
335,24.6,1072.15,446.3
337,24.17,1073.34,452.5
339,23.73,1073.28,458.7
341,23.31,1072.32,465.6
343,22.89,1067.17,471.3
345,22.51,1053,478.6
347,22.1,1039.28,483.1
349,21.65,1030.03,486.3
351,21.28,1016.01,490
353,20.87,1002.98,496
355,20.46,992.88,500.9
357,20.08,985.97,505.3
359,19.72,983.16,509.7
361,19.34,973.51,514.4
363,18.95,953.36,519.4
365,18.51,943.46,524.3
367,18.16,937.84,528.2
369,17.77,923.49,532.4
371,17.37,902.28,536.1
373,17.03,887.05,540.5
375,16.69,879.03,544.8
377,16.3,867.09,548.7
379,15.91,852.23,552.7
381,15.58,837.48,556.4
383,15.21,821.31,559.9
385,14.86,811.1,562.8
387,14.51,793.49,566
389,14.18,770.99,568.9
391,13.87,758.7,571.2
393,13.52,739.96,574.2
395,13.14,723.07,576.8
397,12.78,712.31,580.9
399,12.44,698.66,583.9
401,12.1,684.84,586.2
403,11.73,663.25,586.8
405,11.38,646.14,591.9
407,11.02,638.57,592.5
409,10.62,638.37,595.8
411,10.3,637.39,597.9
413,9.98,632.71,598.8
415,9.68,627.33,600.2
417,9.36,623.46,601.3
419,8.99,619.14,602.6
421,8.61,609.26,604
423,8.33,592.86,606.1
425,8.01,575.43,609.1
427,7.69,553,612.4
429,7.45,526.76,616.7
431,7.16,507.98,620.4
433,6.92,490.44,624.2
435,6.62,471.76,629.3
437,6.36,458.08,636.7
439,6.12,442.01,645.7
441,5.89,430.32,654.2
443,5.66,410.43,664.4
445,5.41,385.82,677.2
447,5.15,362.29,686.5
449,4.94,341.59,695.2
451,4.74,323.61,705.6
453,4.53,305.18,714.6
455,4.34,281.34,731.1
457,4.12,258.69,741
459,3.95,241.67,753.8
461,3.75,223.76,767.9
463,3.62,210.73,774.6
465,3.47,201.08,774
467,3.28,189.61,751.1
469,3.14,167.6,721.5
471,3.05,147.24,698.6
473,2.89,127,680.7
475,2.79,107.83,666.7
477,2.68,89.46,655.8
479,2.57,73.11,647
481,2.43,55.54,640.2
483,2.36,39.8,634.3
485,2.25,28.96,631
487,2.12,21.94,628.2
489,2.04,18.14,623.6
491,1.9,15.01,622.4
493,1.75,13.78,621.5
495,1.69,12.82,620.4
497,1.55,12.08,619.6
499,1.44,12.33,619.4
501,1.34,11.7,617.9
503,1.22,10.74,618.3
505,1.1,10.2,617.2
507,0.99,9.85,615.7
509,0.89,9.48,615

File: HKPolyU_Cone_65kW_2.CSV
Time,Mass,Heat release,Back surface temperature
[s],[g],[kW/m2],[K]
1,79.79,0.93,296.3
2,79.75,0.73,296.4
3,79.73,0.48,296.3
4,79.73,0.34,297.4
5,79.71,0.41,297.3
6,79.7,0.69,297.3
7,79.72,0.91,297.3
8,79.71,0.69,297.3
9,79.69,0.41,297.1
10,79.66,0.32,297.3
11,79.66,0.42,296.6
12,79.69,0.73,296.7
13,79.69,0.88,296.7
14,79.66,0.64,296.8
15,79.6,0.4,296.8
16,79.5,0.35,296.7
17,79.35,0.46,296.8
18,79.19,0.83,296.7
19,78.98,0.87,296.9
20,78.73,0.6,297
21,78.45,0.37,297.6
22,78.17,0.36,297.7
23,77.89,1.35,297.9
24,77.59,2.12,298.1
25,77.24,2.1,297.6
26,76.93,1.81,297.9
27,76.6,3.79,298.2
28,76.28,10.73,298.6
29,75.96,26.37,299.1
30,75.6,63.67,299.5
31,75.24,135.94,299.7
32,74.87,225.94,300.2
33,74.49,334.59,300.9
34,74.13,457.93,301.3
35,73.76,581.61,301.8
36,73.39,699.34,302.5
37,72.97,823.99,303.3
38,72.59,964.44,303.8
39,72.22,1093.8,304.8
40,71.86,1211.55,305.5
41,71.46,1305.62,306.4
42,71.09,1386.74,307.2
43,70.73,1475.75,308
44,70.34,1560.54,308.9
45,69.94,1633.16,309.7
46,69.52,1701.05,310.6
47,69.13,1764.08,311.6
48,68.77,1812.78,312.4
49,68.38,1858.3,313.5
50,67.97,1900.17,314.5
51,67.59,1936.38,315.4
52,67.23,1966.55,316.3
53,66.85,1990.34,317.2
54,66.44,2009.77,318.3
55,66.02,2024.42,319.5
56,65.67,2039.04,320.2
57,65.31,2054.63,321.3
58,64.91,2068.57,322.4
59,64.53,2079.76,323.4
60,64.14,2090.03,324.2
61,63.74,2097.35,325.5
62,63.34,2101.68,326.4
63,62.98,2104.82,327.4
64,62.58,2110.91,328.5
65,62.15,2122.47,329.5
66,61.79,2138.98,330.2
67,61.42,2156.35,331.5
68,61.01,2173.3,332.7
69,60.57,2188.19,333.9
70,60.2,2199.12,335.4
71,59.81,2205.9,336.7
72,59.4,2209.95,338.2
73,59,2212.42,339.9
74,58.62,2216.56,340.5
75,58.23,2224.44,342.4
76,57.85,2232.22,343.8
77,57.45,2237.55,347.1
78,57.06,2240.61,349.1
79,56.66,2239.94,350.7
80,56.28,2240.3,351.9
81,55.88,2241.83,353.9
82,55.48,2246.39,351.6
83,55.08,2251.93,355
84,54.69,2259.58,356.2
85,54.29,2271.3,358.2
86,53.87,2282.51,357
87,53.48,2293.33,327.3
88,53.1,2301.54,361.7
89,52.72,2307.29,343.8
90,52.31,2310.47,364.6
91,51.92,2309.91,361.3
92,51.53,2304.31,365
93,51.14,2296.99,353.1
94,50.74,2292.24,367.3
95,50.32,2289.52,361.3
96,49.93,2297.44,364.7
97,49.54,2309.38,371.6
98,49.13,2318.71,362.7
99,48.75,2324.68,350.6
100,48.37,2328.76,376
101,47.98,2330.07,378.2
102,47.6,2330.27,379.6
103,47.2,2334.4,379.9
104,46.79,2338.75,384.2
105,46.4,2342.18,385.5
106,46.01,2345.5,387.9
107,45.61,2347.31,389.8
108,45.2,2349.29,391.7
109,44.83,2352.46,393.2
110,44.46,2356.01,395.1
111,44.06,2359.51,394.4
112,43.68,2362.36,369.3
113,43.28,2362.57,382.4
114,42.87,2362.14,379.3
115,42.45,2361.32,383.1
116,42.09,2356.53,389.8
117,41.69,2347.02,392
118,41.31,2339.39,281.9
119,40.92,2333.44,392
120,40.52,2331.62,391.9
121,40.12,2330.51,390.3
122,39.7,2331.34,392.5
123,39.29,2332.11,394.6
124,38.89,2332.26,396.7
125,38.5,2332.45,398.8
126,38.08,2334.23,400.9
127,37.67,2338.04,402.9
128,37.26,2351.87,404.9
129,36.85,2373.2,406.9
130,36.42,2390.56,408.9
131,36.02,2400.54,410.8
132,35.61,2405.64,412.8
133,35.19,2406.63,414.8
134,34.79,2408,416.7
135,34.38,2408.79,418.6
136,33.97,2408.96,420.6
137,33.56,2413.61,422.5
138,33.14,2423.74,424.4
139,32.73,2435.75,426.6
140,32.32,2448.09,428.6
141,31.89,2466.58,430.8
142,31.44,2484.9,432.8
143,31,2501.12,435
144,30.58,2513.03,437.3
145,30.12,2521.36,439.6
146,29.66,2532,441.8
147,29.23,2542.35,444
148,28.79,2550.24,446.2
149,28.34,2555.34,469.4
150,27.91,2564.49,471.3
151,27.47,2573.31,474.1
152,27.01,2579.45,476.8
153,26.55,2583.66,479.9
154,26.08,2586.1,481.6
155,25.63,2587.43,483.8
156,25.21,2597.12,489.8
157,24.79,2622.1,488.7
158,24.32,2650.57,486.1
159,23.84,2672.23,497.8
160,23.42,2686.13,506.7
161,22.97,2697.69,503.6
162,22.52,2717.35,507.3
163,22.05,2743.35,508.3
164,21.58,2775.38,511.5
165,21.14,2803.29,511.9
166,20.67,2823.48,513.8
167,20.23,2838.54,512.3
168,19.74,2850.21,512.9
169,19.3,2866.88,514.5
170,18.87,2881.63,517.4
171,18.46,2894.49,521.1
172,18.03,2912.24,523.8
173,17.59,2928,531.3
174,17.13,2940.12,532.4
175,16.72,2950.06,537.3
176,16.3,2956.77,538.9
177,15.89,2963.8,545.1
178,15.48,2969.51,547.1
179,15.06,2973.72,550.9
180,14.63,2973.46,556.4
181,14.24,2965.03,558.8
182,13.81,2952.44,562.8
183,13.38,2935.47,568.2
184,12.97,2909.27,570.4
185,12.6,2877.94,575.4
186,12.19,2851.15,576.8
187,11.79,2828.18,581.2
188,11.41,2805.47,584.9
189,11.03,2783.82,588.6
190,10.64,2765.04,592.2
191,10.29,2744.66,602.4
192,9.95,2726.24,616.4
193,9.62,2714.1,630.8
194,9.3,2700.88,647.1
195,9,2683.33,667.6
196,8.71,2659.48,691.6
197,8.41,2632.28,714.6
198,8.14,2610.19,735.9
199,7.87,2591.58,753.4
200,7.58,2574.78,769.4
201,7.29,2542.36,783.4
202,7.02,2494.88,802.3
203,6.77,2424.18,832.4
204,6.5,2328.03,852.2
205,6.31,2201.59,867.1
206,6.1,2085.34,881.1
207,5.89,1980.47,891.8
208,5.69,1880.72,902.5
209,5.46,1799.96,914.9
210,5.28,1700.8,926.5
211,5.04,1582.56,935.9
212,4.85,1455.06,947.7
213,4.68,1337.55,958.2
214,4.48,1228.86,965.7
215,4.29,1130.02,966
216,4.1,1050.58,973.1
217,3.92,977.93,975.2
218,3.77,896.46,979.6
219,3.61,814.81,982.5
220,3.44,744.05,988.2
221,3.27,678.34,989.7
222,3.13,612.48,988.1
223,2.96,550.59,988.8
224,2.81,491.54,987.2
225,2.65,439.88,985.2
226,2.48,397.94,982.6
227,2.33,364.93,973.7
228,2.18,334.86,968.3
229,2.02,307.45,957.6
230,1.88,278.51,948.7
231,1.76,254.27,943.4
232,1.59,233.65,936.5
233,1.42,216.12,928
234,1.29,200.31,920.9
235,1.18,180.82,915.9
236,1.03,162.04,911.6
237,0.86,142.52,908.6
238,0.72,123.79,905.6
239,0.57,107.94,904.2
240,0.43,94.63,903.1
241,0.25,83.1,902.1
242,0.15,71.93,900.2
243,0.02,63.2,899.3

File: HKPolyU_DSC_O2-21_10K_2.csv
Time,Temperature,Heat Flow
[s],[k],[W/g]
0.05,300.021,0.21649
11.76,302.639,1.06643
23.76,305.231,1.02929
35.76,307.719,0.928825
47.76,310.087,0.771907
59.76,312.35,0.554021
71.76,314.492,0.288214
83.76,316.536,-0.0151934
95.76,318.519,-0.341712
107.76,320.453,-0.673015
119.76,322.357,-0.998062
131.76,324.265,-1.30302
143.76,326.182,-1.58076
155.76,328.131,-1.82946
167.76,330.109,-2.04332
179.76,332.105,-2.22152
191.76,334.152,-2.37622
203.76,336.208,-2.50123
215.76,338.299,-2.60092
227.76,340.4,-2.68504
239.76,342.509,-2.75824
251.76,344.615,-2.81701
263.76,346.713,-2.8673
275.76,348.802,-2.9125
287.76,350.878,-2.95026
299.76,352.944,-2.98357
311.76,354.992,-3.01157
323.76,357.037,-3.03332
335.76,359.065,-3.05132
347.76,361.092,-3.06362
359.76,363.114,-3.07044
371.76,365.137,-3.07172
383.76,367.173,-3.06692
395.76,369.195,-3.05777
407.76,371.229,-3.04244
419.76,373.247,-3.02343
431.76,375.285,-3.00063
443.76,377.326,-2.9741
455.76,379.365,-2.94556
467.76,381.405,-2.91686
479.76,383.448,-2.8864
491.76,385.483,-2.85495
503.76,387.521,-2.82403
515.76,389.558,-2.79339
527.76,391.585,-2.76558
539.76,393.612,-2.73777
551.76,395.633,-2.71036
563.76,397.671,-2.68417
575.76,399.699,-2.6577
587.76,401.726,-2.63134
599.76,403.74,-2.60525
611.76,405.762,-2.57904
623.76,407.784,-2.55494
635.76,409.794,-2.53077
647.76,411.818,-2.50621
659.76,413.833,-2.48376
671.76,415.853,-2.46158
683.76,417.867,-2.43956
695.76,419.894,-2.4193
707.76,421.908,-2.39916
719.76,423.924,-2.38147
731.76,425.94,-2.36337
743.76,427.956,-2.34786
755.76,429.975,-2.33169
767.76,431.995,-2.31686
779.76,434.012,-2.30418
791.76,436.027,-2.29127
803.76,438.039,-2.28002
815.76,440.049,-2.26958
827.76,442.064,-2.25863
839.76,444.077,-2.24969
851.76,446.079,-2.24096
863.76,448.089,-2.23245
875.76,450.097,-2.22523
887.76,452.1,-2.2176
899.76,454.116,-2.21135
911.76,456.12,-2.20465
923.76,458.128,-2.19832
935.76,460.137,-2.19056
947.76,462.145,-2.18485
959.76,464.146,-2.17858
971.76,466.155,-2.17158
983.76,468.163,-2.16447
995.76,470.163,-2.15727
1007.76,472.178,-2.14912
1019.76,474.178,-2.14025
1031.76,476.174,-2.1332
1043.76,478.178,-2.12499
1055.76,480.186,-2.11511
1067.76,482.186,-2.10489
1079.76,484.189,-2.09397
1091.76,486.19,-2.08194
1103.76,488.198,-2.07054
1115.76,490.201,-2.0565
1127.76,492.202,-2.04331
1139.76,494.207,-2.02981
1151.76,496.206,-2.01571
1163.76,498.203,-2.00075
1175.76,500.206,-1.98653
1187.76,502.198,-1.96975
1199.76,504.2,-1.9517
1211.76,506.201,-1.93528
1223.76,508.198,-1.91835
1235.76,510.19,-1.90377
1247.76,512.192,-1.88627
1259.76,514.179,-1.86881
1271.76,516.178,-1.85293
1283.76,518.17,-1.8362
1295.76,520.163,-1.81804
1307.76,522.164,-1.79666
1319.76,524.157,-1.77733
1331.76,526.148,-1.75515
1343.76,528.135,-1.73242
1355.76,530.129,-1.71004
1367.76,532.125,-1.68504
1379.76,534.121,-1.65955
1391.76,536.112,-1.6325
1403.76,538.118,-1.60267
1415.76,540.115,-1.56833
1427.76,542.102,-1.5367
1439.76,544.1,-1.50837
1451.76,546.086,-1.47642
1463.76,548.078,-1.44739
1475.76,550.071,-1.41858
1487.76,552.058,-1.39062
1499.76,554.047,-1.36464
1511.76,556.035,-1.34021
1523.76,558.027,-1.31317
1535.76,560.015,-1.28504
1547.76,562.008,-1.25588
1559.76,563.996,-1.22576
1571.76,565.991,-1.19497
1583.76,567.986,-1.1619
1595.76,569.99,-1.12953
1607.76,571.985,-1.08798
1619.76,573.987,-1.05423
1631.76,575.989,-1.03679
1643.76,577.974,-1.05508
1655.76,579.933,-1.11373
1667.76,581.904,-1.12438
1679.76,583.878,-1.09324
1691.76,585.864,-0.9935235
1703.76,587.81,-1.0215
1715.76,589.785,-1.01758
1727.76,591.783,-0.994671
1739.76,593.733,-1.01536
1751.76,595.72,-1.02279
1763.76,597.684,-1.12001
1775.76,599.649,-1.23228
1787.76,601.627,-1.28262
1799.76,603.629,-1.20709
1811.76,605.65,-1.07628
1823.76,607.693,-0.835564
1835.76,609.751,-0.442802
1847.76,611.782,-0.175482
1859.76,613.776,-0.0428599
1871.76,615.753,0.0162934
1883.76,617.721,0.0316265
1895.76,619.689,0.0131877
1907.76,621.65,-0.0202143
1919.76,623.618,-0.0529295
1931.76,625.599,-0.08276
1943.76,627.579,-0.112838
1955.76,629.561,-0.135493
1967.76,631.544,-0.157272
1979.76,633.531,-0.176338
1991.76,635.52,-0.191893
2003.76,637.498,-0.20311
2015.76,639.474,-0.218374
2027.76,641.449,-0.232455
2039.76,643.428,-0.233517
2051.76,645.407,-0.238526
2063.76,647.377,-0.240205
2075.76,649.359,-0.236463
2087.76,651.337,-0.223419
2099.76,653.313,-0.210674
2111.76,655.293,-0.195536
2123.76,657.277,-0.175344
2135.76,659.258,-0.162848
2147.76,661.233,-0.141438
2159.76,663.215,-0.126588
2171.76,665.2,-0.108943
2183.76,667.181,-0.091657
2195.76,669.163,-0.073096
2207.76,671.141,-0.0473409
2219.76,673.123,-0.0253537
2231.76,675.103,0.001674566
2243.76,677.089,0.0261328
2255.76,679.074,0.0567249
2267.76,681.057,0.0922435
2279.76,683.036,0.109538
2291.76,685.024,0.125696
2303.76,686.998,0.134855
2315.76,688.977,0.142347
2327.76,690.962,0.159692
2339.76,692.937,0.175691
2351.76,694.921,0.196746
2363.76,696.901,0.210742
2375.76,698.885,0.223302
2387.76,700.866,0.237822
2399.76,702.844,0.253187
2411.76,704.826,0.275477
2423.76,706.808,0.292953
2435.76,708.79,0.313082
2447.76,710.772,0.334069
2459.76,712.754,0.355817
2471.76,714.733,0.376835
2483.76,716.72,0.405927
2495.76,718.698,0.428152
2507.76,720.682,0.450909
2519.76,722.662,0.468889
2531.76,724.642,0.489122
2543.76,726.628,0.514229
2555.76,728.61,0.533933
2567.76,730.588,0.549202
2579.76,732.57,0.568027
2591.76,734.552,0.590288
2603.76,736.532,0.598721
2615.76,738.512,0.612619
2627.76,740.496,0.6293
2639.76,742.471,0.637167
2651.76,744.451,0.656959
2663.76,746.43,0.668411
2675.76,748.42,0.683496
2687.76,750.403,0.703834
2699.76,752.379,0.726693
2711.76,754.362,0.749241
2723.76,756.341,0.758255
2735.76,758.325,0.7749
2747.76,760.307,0.780419
2759.76,762.285,0.786753
2771.76,764.265,0.799047
2783.76,766.241,0.809659
2795.76,768.225,0.817645
2807.76,770.21,0.834519
2819.76,772.189,0.844598
2831.76,774.167,0.854442
2843.76,776.152,0.874063
2855.76,778.132,0.884753
2867.76,780.115,0.895517
2879.76,782.099,0.90009
2891.76,784.079,0.901428
2903.76,786.059,0.914411
2915.76,788.042,0.92216
2927.76,790.025,0.937117
2939.76,792.006,0.949574
2951.76,793.988,0.945328
2963.76,795.968,0.93516
2975.76,797.944,0.928991
2987.76,799.927,0.915425
2999.76,801.904,0.897242
3011.76,803.886,0.892502