Folder: matl-db/PMMA/Calibration_Data/LCPP (part 4)

File: LCPP_TGA_N2_10K_2.csv
Time,Temperature,Mass
[s],[K],[mg]
0,301.192,2.94796
9,301.12,2.94788
18,301.051,2.94785
27,300.993,2.9481
36,300.948,2.94741
45,300.912,2.94736
54,300.854,2.94765
63,300.816,2.94725
72,300.783,2.94736
81,300.761,2.94701
90,300.713,2.9472
99,300.69,2.94731
108,300.653,2.94662
117,300.636,2.94648
126,300.613,2.94706
135,300.586,2.94666
144,300.559,2.94696
153,300.553,2.94714
162,300.523,2.94703
171,300.503,2.94697
180,300.482,2.94655
189,300.465,2.94642
198,300.471,2.94719
207,300.435,2.94637
216,300.429,2.94685
225,300.418,2.94636
234,300.403,2.94626
243,300.407,2.94609
252,300.381,2.94608
261,300.385,2.94599
270,300.369,2.94607
279,300.35,2.946
288,300.346,2.94599
297,300.345,2.94599
306,300.834,2.94631
315,302.863,2.94859
324,305.453,2.94655
333,308.223,2.94512
342,311.036,2.94499
351,313.88,2.94467
360,316.736,2.94432
369,319.589,2.9439
378,322.475,2.94367
387,325.372,2.94351
396,328.289,2.94301
405,331.201,2.94255
414,334.124,2.94222
423,337.051,2.94202
432,339.985,2.94221
441,342.925,2.94155
450,345.853,2.94157
459,348.793,2.94131
468,351.739,2.94099
477,354.697,2.94063
486,357.65,2.94054
495,360.597,2.94024
504,363.563,2.93999
513,366.524,2.93975
522,369.497,2.9396
531,372.459,2.93928
540,375.434,2.93927
549,378.414,2.93886
558,381.389,2.93896
567,384.359,2.9384
576,387.349,2.93804
585,390.331,2.93775
594,393.32,2.93743
603,396.318,2.93744
612,399.319,2.93675
621,402.328,2.93623
630,405.328,2.93573
639,408.339,2.93512
648,411.346,2.9346
657,414.364,2.93397
666,417.376,2.93323
675,420.402,2.9328
684,423.424,2.93197
693,426.451,2.93135
702,429.482,2.93064
711,432.513,2.92956
720,435.55,2.92895
729,438.585,2.92787
738,441.624,2.92656
747,444.673,2.92537
756,447.711,2.92396
765,450.755,2.92265
774,453.807,2.92098
783,456.859,2.91912
792,459.892,2.91697
801,462.942,2.91524
810,466.006,2.91232
819,469.061,2.90948
828,472.112,2.9069
837,475.166,2.90423
846,478.219,2.90075
855,481.278,2.89732
864,484.336,2.89355
873,487.405,2.88985
882,490.464,2.88579
891,493.523,2.88171
900,496.58,2.87803
909,499.641,2.87453
918,502.689,2.87113
927,505.76,2.86798
936,508.817,2.86571
945,511.886,2.8639
954,514.937,2.86268
963,517.998,2.86156
972,521.055,2.85969
981,524.115,2.8586
990,527.169,2.8567
999,530.227,2.85473
1008,533.301,2.85281
1017,536.348,2.84997
1026,539.402,2.84759
1035,542.464,2.84424
1044,545.512,2.84081
1053,548.553,2.83649
1062,551.611,2.83207
1071,554.671,2.82644
1080,557.711,2.81984
1089,560.77,2.813
1098,563.819,2.80457
1107,566.867,2.79547
1116,569.913,2.78519
1125,572.955,2.7734
1134,576.002,2.76059
1143,579.046,2.74654
1152,582.097,2.73138
1161,585.139,2.71525
1170,588.172,2.69695
1179,591.217,2.67549
1188,594.256,2.65171
1197,597.296,2.62486
1206,600.338,2.59283
1215,603.379,2.55595
1224,606.424,2.51404
1233,609.451,2.46533
1242,612.491,2.40962
1251,615.521,2.34695
1260,618.532,2.27439
1269,621.553,2.19337
1278,624.564,2.10361
1287,627.572,2.00432
1296,630.579,1.89656
1305,633.583,1.78025
1314,636.581,1.65609
1323,639.576,1.52514
1332,642.578,1.38901
1341,645.589,1.24955
1350,648.587,1.11077
1359,651.601,0.973315
1368,654.609,0.839831
1377,657.629,0.713517
1386,660.656,0.59758
1395,663.683,0.493511
1404,666.714,0.402528
1413,669.737,0.323729
1422,672.772,0.257772
1431,675.795,0.203176
1440,678.827,0.1595
1449,681.846,0.125839
1458,684.871,0.100516
1467,687.868,0.0814692
1476,690.883,0.0678449
1485,693.879,0.0580695
1494,696.877,0.0511816
1503,699.866,0.0462839
1512,702.865,0.0426707
1521,705.857,0.0401823
1530,708.842,0.039195
1539,711.829,0.0378291
1548,714.814,0.0367475
1557,717.802,0.0364995
1566,720.794,0.0361603
1575,723.778,0.0359892
1584,726.77,0.0358296
1593,729.76,0.0357801
1602,732.744,0.0355236
1611,735.738,0.0355646
1620,738.72,0.0352501
1629,741.71,0.0355473
1638,744.69,0.0357893
1647,747.676,0.0351254
1656,750.661,0.035101
1665,753.643,0.0352976
1674,756.634,0.0350143
1683,759.616,0.0349353
1692,762.604,0.034868
1701,765.59,0.0347752
1710,768.569,0.0349621
1719,771.558,0.0346095
1728,774.549,0.0343967
1737,777.538,0.0341643
1746,780.444,0.0348497
1755,782.834,0.034431
1764,784.785,0.0338554
1773,786.402,0.0337045
1782,787.756,0.0341984
1791,788.911,0.0339266
1800,789.894,0.034186
1809,790.753,0.0339861
1818,791.471,0.0341685
1827,792.092,0.0339759
1836,792.629,0.0341277
1845,793.09,0.0340728
1854,793.471,0.0339903
1863,793.81,0.0339895
1872,794.094,0.033487
1881,794.339,0.0338325
1890,794.548,0.0337723
1899,794.73,0.0340862
1908,794.886,0.0339909
1917,795.011,0.034319
1926,795.124,0.0341108
1935,795.223,0.0339925
1944,795.308,0.0339896
1953,795.377,0.0339895
1962,795.433,0.0338747
1971,795.489,0.0335181
1980,795.522,0.0334731
1989,795.563,0.0336185
1998,795.6,0.032922
2007,795.629,0.0334994
2016,795.649,0.0330876
2025,795.677,0.0329931
2034,795.686,0.0329913
2043,795.701,0.0329912
2052,795.715,0.0329912
2061,795.725,0.0328728
2070,795.729,0.0326931
2079,795.737,0.0329737
2088,795.733,0.0330627
2097,795.736,0.0330639
2100,795.74,0.0329912

File: LCPP_TGA_N2_15K_1.csv
Time,Temperature,Mass
[s],[K],[mg]
0,301.279,3.04276
9,301.228,3.04274
18,301.168,3.04258
27,301.096,3.04245
36,301.039,3.04221
45,300.987,3.04223
54,300.921,3.04231
63,300.879,3.04221
72,300.843,3.042
81,300.813,3.04173
90,300.769,3.042
99,300.751,3.042
108,300.719,3.04195
117,300.686,3.04187
126,300.668,3.04183
135,300.639,3.04168
144,300.621,3.04163
153,300.601,3.04193
162,300.583,3.04151
171,300.564,3.04167
180,300.541,3.04135
189,300.522,3.041
198,300.506,3.041
207,300.483,3.041
216,300.474,3.04161
225,300.474,3.04102
234,300.448,3.041
243,300.439,3.041
252,300.434,3.041
261,300.421,3.041
270,300.42,3.041
279,300.405,3.041
288,300.385,3.041
297,300.376,3.04061
306,300.712,3.04023
315,302.148,3.04252
324,303.983,3.04092
333,305.958,3.04012
342,307.997,3.03976
351,310.078,3.03931
360,312.149,3.03918
369,314.246,3.03879
378,316.372,3.03878
387,318.492,3.03853
396,320.646,3.03837
405,322.805,3.03812
414,324.986,3.03786
423,327.155,3.03751
432,329.34,3.03738
441,331.524,3.03726
450,333.704,3.03716
459,335.897,3.03698
468,338.088,3.03697
477,340.286,3.03666
486,342.484,3.03646
495,344.674,3.03629
504,346.878,3.03627
513,349.058,3.03625
522,351.269,3.03599
531,353.474,3.03585
540,355.681,3.03585
549,357.885,3.03556
558,360.089,3.03547
567,362.294,3.0352
576,364.493,3.03508
585,366.715,3.03501
594,368.942,3.0346
603,371.149,3.03461
612,373.363,3.03436
621,375.588,3.03415
630,377.81,3.03419
639,380.038,3.03377
648,382.262,3.03358
657,384.486,3.03353
666,386.709,3.03303
675,388.939,3.03293
684,391.175,3.03286
693,393.41,3.03238
702,395.644,3.03214
711,397.885,3.03169
720,400.125,3.03152
729,402.374,3.03111
738,404.624,3.03095
747,406.871,3.03059
756,409.116,3.03012
765,411.364,3.02962
774,413.626,3.0291
783,415.88,3.02841
792,418.132,3.02805
801,420.388,3.02731
810,422.65,3.0268
819,424.923,3.02608
828,427.173,3.02528
837,429.448,3.0247
846,431.713,3.02394
855,433.979,3.02344
864,436.251,3.02245
873,438.515,3.02152
882,440.793,3.02017
891,443.07,3.01971
900,445.351,3.01855
909,447.622,3.01711
918,449.899,3.01608
927,452.177,3.01449
936,454.451,3.01273
945,456.734,3.01106
954,459.012,3.00942
963,461.295,3.00794
972,463.576,3.00556
981,465.858,3.00369
990,468.135,3.00162
999,470.425,2.99955
1008,472.709,2.99716
1017,474.99,2.99454
1026,477.278,2.99203
1035,479.566,2.98925
1044,481.85,2.98619
1053,484.138,2.98322
1062,486.417,2.97997
1071,488.705,2.97681
1080,490.988,2.97329
1089,493.278,2.97039
1098,495.563,2.96739
1107,497.858,2.96488
1116,500.13,2.96258
1125,502.422,2.96075
1134,504.715,2.95911
1143,506.997,2.95759
1152,509.292,2.95667
1161,511.579,2.95547
1170,513.874,2.95478
1179,516.156,2.95348
1188,518.446,2.95218
1197,520.728,2.95129
1206,523.011,2.94976
1215,525.305,2.94883
1224,527.583,2.94741
1233,529.873,2.94527
1242,532.157,2.94327
1251,534.439,2.9413
1260,536.724,2.9388
1269,539.008,2.93619
1278,541.29,2.9334
1287,543.568,2.9298
1296,545.848,2.92646
1305,548.129,2.92239
1314,550.415,2.91805
1323,552.7,2.91324
1332,554.988,2.90746
1341,557.261,2.90185
1350,559.542,2.89481
1359,561.828,2.88763
1368,564.109,2.87935
1377,566.384,2.87062
1386,568.674,2.86123
1395,570.947,2.85098
1404,573.233,2.84018
1413,575.511,2.82887
1422,577.786,2.81654
1431,580.069,2.80331
1440,582.339,2.78911
1449,584.623,2.77404
1458,586.892,2.75731
1467,589.177,2.73901
1476,591.458,2.71875
1485,593.733,2.69618
1494,596.013,2.67108
1503,598.285,2.64325
1512,600.57,2.61238
1521,602.847,2.57818
1530,605.131,2.5402
1539,607.42,2.49831
1548,609.693,2.45189
1557,611.982,2.40075
1566,614.249,2.34497
1575,616.519,2.28361
1584,618.784,2.21719
1593,621.047,2.14548
1602,623.301,2.06864
1611,625.568,1.98662
1620,627.817,1.89955
1629,630.068,1.80747
1638,632.32,1.71078
1647,634.573,1.61038
1656,636.836,1.50682
1665,639.083,1.40082
1674,641.344,1.29325
1683,643.592,1.18471
1692,645.851,1.0772
1701,648.117,0.970867
1710,650.389,0.86756
1719,652.647,0.76862
1728,654.916,0.673293
1737,657.184,0.584717
1746,659.454,0.503274
1755,661.722,0.428944
1764,663.994,0.362527
1773,666.265,0.303197
1782,668.54,0.250789
1791,670.814,0.20556
1800,673.079,0.167103
1809,675.345,0.134728
1818,677.6,0.108239
1827,679.849,0.0864909
1836,682.1,0.0693058
1845,684.338,0.0554016
1854,686.585,0.0446721
1863,688.828,0.0361931
1872,691.069,0.0295238
1881,693.31,0.024404
1890,695.546,0.020756
1899,697.794,0.0177417
1908,700.027,0.0156042
1917,702.271,0.0139205
1926,704.507,0.0125745
1935,706.754,0.0112548
1944,708.987,0.0100445
1953,711.234,0.0100985
1962,713.48,0.00990248
1971,715.717,0.0096117
1980,717.958,0.00930552
1989,720.198,0.00923025
1998,722.442,0.00895357
2007,724.687,0.00884267
2016,726.938,0.008705
2025,729.17,0.00879416
2034,731.419,0.00884291
2043,733.66,0.00857864
2052,735.899,0.00846379
2061,738.152,0.00836387
2070,740.379,0.00832141
2079,742.628,0.0082791
2088,744.87,0.00829238
2097,747.109,0.0084946
2106,749.349,0.00814583
2115,751.598,0.00812688
2124,753.83,0.00814271
2133,756.074,0.00827513
2142,758.315,0.00765703
2151,760.554,0.00769065
2160,762.795,0.0077901
2169,765.04,0.00746132
2178,767.271,0.00740029
2187,769.515,0.00757848
2196,771.754,0.00758464
2205,774.002,0.00722157
2214,776.247,0.00733968
2223,778.488,0.00762465
2232,780.729,0.00745647
2241,782.974,0.00734613
2250,785.002,0.0074259
2259,786.642,0.00705924
2268,788.001,0.00723991
2277,789.129,0.00716446
2286,790.073,0.00701649
2295,790.888,0.0069724
2304,791.598,0.00650006
2313,792.19,0.00683078
2322,792.69,0.00656771
2331,793.128,0.00603015
2340,793.5,0.00604743
2349,793.816,0.00637901
2358,794.094,0.00614776
2367,794.33,0.00610995
2376,794.529,0.00610948
2385,794.705,0.00610948
2394,794.858,0.00602867
2403,794.982,0.00598334
2412,795.093,0.00587143
2421,795.179,0.00559532
2430,795.257,0.00539889
2439,795.324,0.00550771
2448,795.383,0.00546486
2457,795.431,0.00521277
2466,795.475,0.00510217
2475,795.511,0.00509637
2484,795.538,0.0050962
2493,795.568,0.0050962
2502,795.583,0.0050962
2511,795.597,0.00521029
2520,795.623,0.00536796
2529,795.636,0.00537672
2538,795.645,0.00568306
2547,795.663,0.00598563
2556,795.663,0.00610378
2565,795.673,0.00606297
2574,795.684,0.00610861
2583,795.691,0.00610948
2592,795.696,0.00610948
2598,795.688,0.00610948

File: LCPP_TGA_N2_15K_2.csv
Time,Temperature,Mass
[s],[K],[mg]
0,301.299,3.12389
9,301.225,3.12375
18,301.15,3.1237
27,301.096,3.12353
36,301.037,3.1232
45,300.972,3.12328
54,300.934,3.12357
63,300.879,3.1232
72,300.846,3.12334
81,300.816,3.12335
90,300.775,3.12301
99,300.743,3.12299
108,300.703,3.12359
117,300.679,3.12264
126,300.67,3.12287
135,300.637,3.12298
144,300.597,3.12299
153,300.594,3.12299
162,300.567,3.12299
171,300.551,3.12299
180,300.54,3.12299
189,300.506,3.12299
198,300.5,3.12299
207,300.484,3.12299
216,300.47,3.12299
225,300.457,3.12299
234,300.432,3.12299
243,300.418,3.12256
252,300.411,3.12218
261,300.399,3.12276
270,300.391,3.12239
279,300.381,3.12199
288,300.373,3.12199
297,300.35,3.12173
306,300.695,3.12143
315,302.119,3.12395
324,303.97,3.12216
333,305.961,3.1213
342,308.003,3.12088
351,310.068,3.12044
360,312.147,3.11997
369,314.259,3.11971
378,316.373,3.11957
387,318.526,3.1194
396,320.668,3.11923
405,322.833,3.11913
414,325.018,3.11884
423,327.188,3.11861
432,329.371,3.11829
441,331.568,3.11809
450,333.754,3.11796
459,335.942,3.11782
468,338.141,3.11773
477,340.337,3.11756
486,342.521,3.11732
495,344.724,3.11706
504,346.919,3.11698
513,349.127,3.11685
522,351.321,3.11662
531,353.523,3.11652
540,355.728,3.11636
549,357.933,3.11644
558,360.148,3.11608
567,362.366,3.11579
576,364.576,3.11566
585,366.777,3.11566
594,369.005,3.11543
603,371.218,3.11537
612,373.441,3.11502
621,375.66,3.11486
630,377.887,3.11469
639,380.112,3.11427
648,382.341,3.11429
657,384.563,3.11404
666,386.799,3.11378
675,389.026,3.11363
684,391.26,3.11338
693,393.492,3.11287
702,395.728,3.11234
711,397.969,3.11197
720,400.218,3.11142
729,402.475,3.11109
738,404.707,3.11084
747,406.958,3.11031
756,409.215,3.10948
765,411.458,3.10902
774,413.698,3.10839
783,415.974,3.10782
792,418.228,3.10708
801,420.479,3.1066
810,422.742,3.10587
819,425.013,3.10518
828,427.276,3.10433
837,429.537,3.10357
846,431.811,3.10275
855,434.072,3.102
864,436.346,3.10127
873,438.61,3.10038
882,440.894,3.09892
891,443.165,3.09808
900,445.435,3.09708
909,447.709,3.09583
918,449.98,3.09414
927,452.263,3.0925
936,454.544,3.09087
945,456.812,3.08914
954,459.09,3.08743
963,461.37,3.08595
972,463.657,3.08442
981,465.93,3.08183
990,468.219,3.08004
999,470.496,3.07766
1008,472.78,3.07516
1017,475.063,3.0726
1026,477.349,3.06987
1035,479.645,3.06701
1044,481.935,3.06391
1053,484.211,3.06051
1062,486.497,3.05726
1071,488.791,3.05372
1080,491.071,3.04999
1089,493.36,3.04632
1098,495.652,3.04309
1107,497.94,3.04027
1116,500.228,3.03772
1125,502.509,3.03605
1134,504.796,3.03458
1143,507.088,3.03323
1152,509.375,3.03182
1161,511.657,3.03033
1170,513.947,3.02978
1179,516.238,3.02848
1188,518.521,3.02717
1197,520.804,3.02578
1206,523.094,3.02433
1215,525.383,3.02291
1224,527.666,3.02149
1233,529.963,3.01927
1242,532.244,3.01757
1251,534.524,3.01517
1260,536.815,3.01268
1269,539.099,3.00965
1278,541.38,3.00618
1287,543.669,3.00264
1296,545.946,2.99886
1305,548.22,2.99461
1314,550.509,2.98975
1323,552.784,2.98438
1332,555.066,2.97853
1341,557.352,2.97185
1350,559.63,2.96446
1359,561.919,2.95664
1368,564.2,2.94815
1377,566.478,2.93862
1386,568.763,2.92859
1395,571.04,2.91802
1404,573.317,2.90687
1413,575.605,2.89508
1422,577.885,2.88224
1431,580.149,2.86867
1440,582.438,2.85422
1449,584.716,2.83866
1458,586.995,2.82152
1467,589.274,2.80296
1476,591.554,2.7824
1485,593.83,2.75979
1494,596.105,2.73411
1503,598.38,2.70584
1512,600.668,2.67485
1521,602.947,2.63999
1530,605.226,2.60169
1539,607.512,2.55922
1548,609.785,2.51224
1557,612.063,2.46045
1566,614.335,2.40386
1575,616.596,2.34198
1584,618.863,2.27446
1593,621.121,2.20157
1602,623.372,2.1232
1611,625.633,2.03929
1620,627.888,1.95093
1629,630.143,1.8571
1638,632.391,1.75902
1647,634.653,1.65649
1656,636.887,1.55123
1665,639.149,1.44436
1674,641.392,1.33644
1683,643.652,1.22762
1692,645.91,1.1201
1701,648.17,1.01406
1710,650.43,0.910058
1719,652.695,0.808083
1728,654.949,0.710467
1737,657.216,0.618912
1746,659.477,0.534126
1755,661.757,0.45701
1764,664.025,0.387967
1773,666.302,0.326337
1782,668.568,0.271912
1791,670.836,0.224836
1800,673.102,0.184749
1809,675.354,0.15119
1818,677.622,0.12316
1827,679.873,0.100557
1836,682.124,0.0822956
1845,684.375,0.0676634
1854,686.621,0.056112
1863,688.857,0.0469041
1872,691.104,0.0400317
1881,693.345,0.0345474
1890,695.588,0.0305244
1899,697.829,0.0271643
1908,700.068,0.0249047
1917,702.319,0.0230832
1926,704.561,0.0215997
1935,706.796,0.020043
1944,709.044,0.0191366
1953,711.284,0.0191082
1962,713.525,0.0187838
1971,715.77,0.0183545
1980,718.016,0.0180257
1989,720.255,0.0181716
1998,722.497,0.0179369
2007,724.739,0.017637
2016,726.985,0.0176405
2025,729.229,0.0177586
2034,731.473,0.0176186
2043,733.718,0.0174426
2052,735.961,0.0173266
2061,738.205,0.0174551
2070,740.444,0.0173786
2079,742.682,0.0171733
2088,744.923,0.017202
2097,747.165,0.0169592
2106,749.413,0.0170232
2115,751.648,0.0170272
2124,753.892,0.0168925
2133,756.134,0.0168191
2142,758.373,0.0165178
2151,760.616,0.0166189
2160,762.851,0.0164551
2169,765.094,0.0163371
2178,767.336,0.0162907
2187,769.575,0.0164682
2196,771.818,0.0162214
2205,774.064,0.0162262
2214,776.299,0.0162533
2223,778.547,0.0165708
2232,780.787,0.0162186
2241,783.029,0.0159064
2250,785.062,0.0161412
2259,786.702,0.0159559
2268,788.053,0.0158836
2277,789.174,0.0157736
2286,790.122,0.0157166
2295,790.927,0.0156865
2304,791.632,0.0150851
2313,792.216,0.015795
2322,792.723,0.0152182
2331,793.15,0.0149957
2340,793.519,0.0150358
2349,793.843,0.015285
2358,794.113,0.015096
2367,794.347,0.0150946
2376,794.555,0.0150949
2385,794.728,0.0150949
2394,794.869,0.0150949
2403,794.995,0.0151513
2412,795.101,0.0148151
2421,795.196,0.015062
2430,795.278,0.0153538
2439,795.342,0.0155034
2448,795.396,0.0154625
2457,795.449,0.0152031
2466,795.496,0.0147574
2475,795.537,0.0144569
2484,795.561,0.0146344
2493,795.595,0.0148869
2502,795.612,0.0150878
2511,795.627,0.0150949
2520,795.648,0.0149191
2529,795.661,0.015084
2538,795.667,0.0149497
2547,795.687,0.0148663
2556,795.689,0.01509
2565,795.686,0.0150948
2574,795.701,0.0150949
2583,795.711,0.0150949
2592,795.71,0.0150949
2598,795.703,0.0150949

File: LCPP_TGA_N2_15K_3.csv
Time,Temperature,Mass
[s],[K],[mg]
0,301.168,3.06913
9,301.109,3.06934
18,301.033,3.06938
27,300.988,3.06906
36,300.933,3.06895
45,300.893,3.06922
54,300.841,3.06889
63,300.793,3.06851
72,300.765,3.06897
81,300.748,3.06839
90,300.701,3.06809
99,300.685,3.06883
108,300.652,3.06884
117,300.628,3.06812
126,300.601,3.06791
135,300.584,3.0679
144,300.564,3.0679
153,300.552,3.0679
162,300.516,3.0679
171,300.5,3.06835
180,300.497,3.06834
189,300.483,3.06791
198,300.456,3.0679
207,300.44,3.0679
216,300.44,3.0679
225,300.408,3.0679
234,300.41,3.0679
243,300.4,3.0679
252,300.375,3.0679
261,300.389,3.0679
270,300.381,3.0679
279,300.363,3.0679
288,300.361,3.0679
297,300.34,3.06763
306,300.682,3.0671
315,302.108,3.06927
324,303.945,3.06739
333,305.929,3.0665
342,307.985,3.0661
351,310.047,3.06561
360,312.129,3.06528
369,314.234,3.0649
378,316.351,3.06467
387,318.476,3.0644
396,320.633,3.06421
405,322.789,3.06401
414,324.969,3.0636
423,327.142,3.06333
432,329.333,3.06315
441,331.515,3.06285
450,333.71,3.06258
459,335.898,3.06249
468,338.087,3.06227
477,340.275,3.06203
486,342.469,3.06182
495,344.671,3.06177
504,346.866,3.06169
513,349.072,3.06161
522,351.279,3.0613
531,353.483,3.06137
540,355.678,3.0613
549,357.876,3.06116
558,360.086,3.06097
567,362.312,3.0609
576,364.506,3.06078
585,366.728,3.06079
594,368.936,3.06067
603,371.163,3.06066
612,373.383,3.06035
621,375.608,3.06015
630,377.828,3.06004
639,380.058,3.05962
648,382.279,3.05942
657,384.507,3.0591
666,386.73,3.05876
675,388.97,3.05837
684,391.198,3.0583
693,393.427,3.05797
702,395.676,3.05741
711,397.913,3.05709
720,400.152,3.05659
729,402.4,3.05623
738,404.64,3.05592
747,406.899,3.05522
756,409.138,3.05455
765,411.402,3.05381
774,413.648,3.05339
783,415.899,3.05262
792,418.152,3.05198
801,420.414,3.05149
810,422.68,3.05082
819,424.942,3.04998
828,427.213,3.04903
837,429.48,3.04836
846,431.74,3.0475
855,434.004,3.04677
864,436.273,3.04591
873,438.554,3.04471
882,440.818,3.04373
891,443.091,3.04278
900,445.363,3.04159
909,447.65,3.04038
918,449.926,3.03911
927,452.205,3.03748
936,454.482,3.03573
945,456.759,3.03406
954,459.041,3.03241
963,461.314,3.03093
972,463.598,3.02942
981,465.871,3.02724
990,468.161,3.02479
999,470.449,3.02268
1008,472.724,3.02025
1017,475.013,3.01771
1026,477.298,3.01566
1035,479.581,3.01246
1044,481.877,3.0098
1053,484.168,3.00637
1062,486.453,3.003
1071,488.738,2.9996
1080,491.026,2.99574
1089,493.315,2.99213
1098,495.589,2.98877
1107,497.89,2.98594
1116,500.162,2.98355
1125,502.457,2.98123
1134,504.745,2.97979
1143,507.036,2.97829
1152,509.326,2.97714
1161,511.612,2.97625
1170,513.904,2.97502
1179,516.179,2.97432
1188,518.469,2.97317
1197,520.755,2.97178
1206,523.035,2.97034
1215,525.33,2.96891
1224,527.609,2.96735
1233,529.902,2.96518
1242,532.191,2.9634
1251,534.475,2.9612
1260,536.761,2.95858
1269,539.041,2.9554
1278,541.338,2.95197
1287,543.616,2.94872
1296,545.898,2.94499
1305,548.182,2.94045
1314,550.462,2.93564
1323,552.741,2.93059
1332,555.028,2.92429
1341,557.312,2.91827
1350,559.583,2.91089
1359,561.877,2.90307
1368,564.149,2.89471
1377,566.435,2.8855
1386,568.718,2.87573
1395,570.998,2.8652
1404,573.284,2.85423
1413,575.56,2.84261
1422,577.831,2.83011
1431,580.112,2.81668
1440,582.387,2.80272
1449,584.676,2.78737
1458,586.952,2.77084
1467,589.231,2.7528
1476,591.501,2.73217
1485,593.781,2.70991
1494,596.06,2.68506
1503,598.335,2.65715
1512,600.619,2.62649
1521,602.901,2.59221
1530,605.176,2.55423
1539,607.462,2.51247
1548,609.733,2.46625
1557,612.009,2.41501
1566,614.274,2.3589
1575,616.538,2.29768
1584,618.801,2.23118
1593,621.062,2.15941
1602,623.323,2.08238
1611,625.573,2.00031
1620,627.827,1.91308
1629,630.079,1.82068
1638,632.323,1.72377
1647,634.575,1.62373
1656,636.824,1.52069
1665,639.073,1.41451
1674,641.331,1.30665
1683,643.591,1.19838
1692,645.85,1.09149
1701,648.101,0.985437
1710,650.366,0.883003
1719,652.627,0.783171
1728,654.892,0.688537
1737,657.16,0.599962
1746,659.432,0.518057
1755,661.692,0.443334
1764,663.965,0.376016
1773,666.233,0.316128
1782,668.508,0.262943
1791,670.776,0.217186
1800,673.034,0.177977
1809,675.308,0.145026
1818,677.566,0.117878
1827,679.826,0.0955695
1836,682.078,0.0777309
1845,684.324,0.0633696
1854,686.575,0.0520363
1863,688.826,0.043255
1872,691.076,0.036503
1881,693.316,0.031082
1890,695.564,0.0267449
1899,697.805,0.0238411
1908,700.05,0.021153
1917,702.296,0.0192935
1926,704.543,0.0179178
1935,706.785,0.0166202
1944,709.034,0.0158262
1953,711.276,0.0151482
1962,713.52,0.0144961
1971,715.76,0.0146341
1980,718.008,0.0144057
1989,720.252,0.0142681
1998,722.499,0.0137253
2007,724.745,0.0135576
2016,726.984,0.013515
2025,729.225,0.0134624
2034,731.47,0.0132689
2043,733.718,0.0130734
2052,735.96,0.0131095
2061,738.193,0.0130784
2070,740.44,0.0131853
2079,742.68,0.012635
2088,744.925,0.0126923
2097,747.171,0.0127484
2106,749.415,0.0129105
2115,751.649,0.0130634
2124,753.881,0.012314
2133,756.129,0.0125723
2142,758.366,0.0120773
2151,760.611,0.012141
2160,762.845,0.0124285
2169,765.083,0.0119468
2178,767.33,0.0120757
2187,769.574,0.0121533
2196,771.813,0.0117452
2205,774.053,0.0119476
2214,776.291,0.0119288
2223,778.532,0.0118804
2232,780.777,0.0115308
2241,783.021,0.0114767
2250,785.059,0.0116281
2259,786.704,0.011611
2268,788.055,0.0110246
2277,789.172,0.0111676
2286,790.121,0.0112363
2295,790.927,0.0109877
2304,791.63,0.0105127
2313,792.231,0.0108202
2322,792.734,0.0109402
2331,793.165,0.0106503
2340,793.531,0.0100963
2349,793.856,0.0107576
2358,794.127,0.0110717
2367,794.359,0.0102069
2376,794.56,0.0103587
2385,794.723,0.0101372
2394,794.873,0.0101037
2403,794.999,0.0103157
2412,795.103,0.0101748
2421,795.202,0.0102291
2430,795.278,0.0103687
2439,795.343,0.0105148
2448,795.41,0.0104734
2457,795.45,0.0102196
2466,795.505,0.00987921
2475,795.533,0.00994628
2484,795.562,0.0100743
2493,795.595,0.00985639
2502,795.613,0.0100721
2511,795.628,0.0101023
2520,795.641,0.00972856
2529,795.661,0.0100491
2538,795.665,0.0101027
2547,795.685,0.010103
2556,795.688,0.010103
2565,795.696,0.010103
2574,795.697,0.010103
2583,795.704,0.010103
2592,795.714,0.010103
2598,795.716,0.010103