Folder: matl-db/PMMA/Calibration_Data/LCPP (part 5)

File: LCPP_TGA_N2_20K_3.csv
Time,Temperature,Mass
[s],[K],[mg]
0,301.249,3.15013
9,301.163,3.15037
18,301.104,3.15017
27,301.055,3.15005
36,300.988,3.1502
45,300.947,3.14946
54,300.906,3.14989
63,300.868,3.14943
72,300.843,3.14928
81,300.803,3.14909
90,300.765,3.14938
99,300.736,3.14913
108,300.701,3.14861
117,300.683,3.14858
126,300.657,3.14874
135,300.637,3.14822
144,300.599,3.1486
153,300.591,3.14824
162,300.575,3.14812
171,300.561,3.1481
180,300.534,3.14809
189,300.513,3.14809
198,300.504,3.14833
207,300.486,3.14835
216,300.471,3.14819
225,300.472,3.1481
234,300.458,3.14809
243,300.437,3.14819
252,300.421,3.14801
261,300.41,3.14784
270,300.394,3.14796
279,300.386,3.14797
288,300.379,3.14762
297,300.371,3.14803
306,300.87,3.14795
315,302.889,3.15007
324,305.47,3.14837
333,308.244,3.14677
342,311.037,3.14635
351,313.884,3.14592
360,316.734,3.14551
369,319.596,3.14517
378,322.485,3.14486
387,325.396,3.14458
396,328.287,3.1441
405,331.2,3.14369
414,334.119,3.14347
423,337.05,3.14321
432,339.975,3.1431
441,342.913,3.14287
450,345.845,3.14276
459,348.783,3.14256
468,351.725,3.14241
477,354.671,3.14193
486,357.617,3.14197
495,360.586,3.14154
504,363.548,3.14125
513,366.517,3.14125
522,369.482,3.14081
531,372.429,3.14066
540,375.408,3.14012
549,378.377,3.14007
558,381.365,3.13968
567,384.348,3.13962
576,387.32,3.13893
585,390.313,3.13848
594,393.303,3.13764
603,396.305,3.13781
612,399.313,3.13699
621,402.299,3.13655
630,405.316,3.1359
639,408.322,3.13495
648,411.339,3.13427
657,414.355,3.13333
666,417.364,3.13239
675,420.399,3.1315
684,423.415,3.13063
693,426.445,3.12966
702,429.468,3.12874
711,432.507,3.12786
720,435.541,3.12701
729,438.573,3.12549
738,441.615,3.12422
747,444.662,3.12282
756,447.706,3.12138
765,450.75,3.11965
774,453.794,3.11798
783,456.84,3.11541
792,459.889,3.11321
801,462.945,3.11121
810,465.996,3.10829
819,469.037,3.10538
828,472.099,3.10235
837,475.15,3.0994
846,478.208,3.09601
855,481.272,3.09248
864,484.332,3.08844
873,487.383,3.0841
882,490.444,3.0791
891,493.501,3.07445
900,496.566,3.07016
909,499.629,3.06572
918,502.678,3.06179
927,505.745,3.0583
936,508.815,3.05675
945,511.869,3.05476
954,514.928,3.05332
963,518.001,3.052
972,521.058,3.05026
981,524.12,3.04824
990,527.177,3.04669
999,530.226,3.04471
1008,533.294,3.04203
1017,536.343,3.03954
1026,539.402,3.03634
1035,542.456,3.0328
1044,545.509,3.0284
1053,548.555,3.02337
1062,551.618,3.01822
1071,554.673,3.01168
1080,557.72,3.00411
1089,560.768,2.99608
1098,563.816,2.98629
1107,566.869,2.9759
1116,569.918,2.96415
1125,572.955,2.9508
1134,576.011,2.93656
1143,579.054,2.92121
1152,582.099,2.90479
1161,585.146,2.88683
1170,588.188,2.86725
1179,591.228,2.84472
1188,594.263,2.8189
1197,597.306,2.78976
1206,600.345,2.75583
1215,603.389,2.71682
1224,606.42,2.67205
1233,609.459,2.62065
1242,612.488,2.56167
1251,615.514,2.49497
1260,618.531,2.41919
1269,621.539,2.33431
1278,624.552,2.24035
1287,627.557,2.1371
1296,630.56,2.02515
1305,633.56,1.90465
1314,636.562,1.77605
1323,639.551,1.64056
1332,642.559,1.50047
1341,645.556,1.35706
1350,648.555,1.21424
1359,651.565,1.07325
1368,654.577,0.934896
1377,657.595,0.802527
1386,660.625,0.678481
1395,663.642,0.565977
1404,666.673,0.465354
1413,669.697,0.378372
1422,672.734,0.304369
1431,675.774,0.242264
1440,678.804,0.191908
1449,681.825,0.151988
1458,684.853,0.12121
1467,687.877,0.097275
1476,690.894,0.0795972
1485,693.898,0.0664935
1494,696.896,0.0561612
1503,699.897,0.0483224
1512,702.892,0.0422211
1521,705.892,0.0374608
1530,708.883,0.0337332
1539,711.874,0.0299855
1548,714.854,0.0270816
1557,717.847,0.0243647
1566,720.839,0.0218864
1575,723.833,0.0199009
1584,726.825,0.0180624
1593,729.81,0.0159252
1602,732.807,0.0137878
1611,735.803,0.0125385
1620,738.782,0.0105146
1629,741.775,0.00876555
1638,744.767,0.00743701
1647,747.75,0.00631674
1656,750.746,0.00615876
1665,753.721,0.0053072
1674,756.711,0.00514048
1683,759.7,0.00457981
1692,762.684,0.00405745
1701,765.674,0.00414099
1710,768.653,0.00424362
1719,771.635,0.00348999
1728,774.629,0.00336716
1737,777.613,0.00291782
1746,780.528,0.00314412
1755,782.904,0.00304531
1764,784.839,0.00259976
1773,786.45,0.00215381
1782,787.797,0.00278807
1791,788.934,0.00216349
1800,789.914,0.0018727
1809,790.774,0.00189294
1818,791.493,0.00167447
1827,792.108,0.00193433
1836,792.634,0.00161886
1845,793.088,0.00177322
1854,793.465,0.0014828
1863,793.804,0.00109182
1872,794.093,0.000887616
1881,794.336,0.000831747
1890,794.54,0.000907416
1899,794.727,0.00106143
1908,794.878,0.00108654
1917,795.01,0.00108775
1926,795.115,0.00108778
1935,795.22,0.000519579
1944,795.303,0.000102966
1953,795.374,0.000179774
1962,795.425,0.00036928
1971,795.484,0.000576946
1980,795.523,0.000455766
1989,795.577,0.000282497
1998,795.604,-0.00067781
2007,795.639,0.000381767
2016,795.664,-0.00081213
2025,795.677,0.000907047
2034,795.703,0.000908891
2043,795.711,-0.00090897
2052,795.727,0.000908971
2061,795.744,-0.00102736
2070,795.75,-0.00120709
2079,795.761,0.000842664
2088,795.771,0.000747511
2097,795.771,-0.00090897
2106,749.349,0.00814583
2115,751.598,0.00812688
2124,753.83,0.00814271
2133,756.074,0.00827513
2142,758.315,0.00765703
2151,760.554,0.00769065
2160,762.795,0.0077901
2169,765.04,0.00746132
2178,767.271,0.00740029
2187,769.515,0.00757848
2196,771.754,0.00758464
2205,774.002,0.00722157
2214,776.247,0.00733968
2223,778.488,0.00762465
2232,780.729,0.00745647
2241,782.974,0.00734613
2250,785.002,0.0074259
2259,786.642,0.00705924
2268,788.001,0.00723991
2277,789.129,0.00716446
2286,790.073,0.00701649
2295,790.888,0.0069724
2304,791.598,0.00650006
2313,792.19,0.00683078
2322,792.69,0.00656771
2331,793.128,0.00603015
2340,793.5,0.00604743
2349,793.816,0.00637901
2358,794.094,0.00614776
2367,794.33,0.00610995
2376,794.529,0.00610948
2385,794.705,0.00610948
2394,794.858,0.00602867
2403,794.982,0.00598334
2412,795.093,0.00587143
2421,795.179,0.00559532
2430,795.257,0.00539889
2439,795.324,0.00550771
2448,795.383,0.00546486
2457,795.431,0.00521277
2466,795.475,0.00510217
2475,795.511,0.00509637
2484,795.538,0.0050962
2493,795.568,0.0050962
2502,795.583,0.0050962
2511,795.597,0.00521029
2520,795.623,0.00536796
2529,795.636,0.00537672
2538,795.645,0.00568306
2547,795.663,0.00598563
2556,795.663,0.00610378
2565,795.673,0.00606297
2574,795.684,0.00610861
2583,795.691,0.00610948
2592,795.696,0.00610948
2598,795.688,0.00610948