Folder: matl-db/PMMA/Calibration_Data/LCPP (part 2)

File: LCPP_Cone_65kW_4.csv
Time,Mass,HRR,Back Surface Temperature 1
[s],[g],[kW/m2],[K]
0,0,-0.42576,298.272
1,0,,298.273
2,0,,298.294
3,0,,298.335
4,0,,298.338
5,0,-1.54052,298.363
6,0,,298.393
7,0,,298.454
8,0,,298.523
9,0,,298.62
10,0,-2.86891,298.729
11,0,,298.852
12,0,,299.013
13,0,,299.202
14,0,,299.41
15,0,-2.97838,299.661
16,0,,299.923
17,0,,300.271
18,0,,300.633
19,0,,301.047
20,0,-1.76191,301.459
21,0,,302.015
22,0,,302.568
23,0,,303.177
24,0,,303.938
25,0,-2.86621,304.615
26,0,,305.364
27,0,,306.343
28,0,,307.22
29,0,,308.299
30,0,93.9688,309.169
31,0,,310.393
32,0,,311.478
33,0,,312.808
34,0,,314.033
35,0,401.226,315.291
36,0,,316.575
37,0,,318.148
38,0,,319.533
39,0,,320.88
40,0,609.653,322.529
41,0,,323.959
42,0,,325.422
43,0,,327.188
44,0,,328.636
45,0,722.766,330.201
46,0,,331.763
47,0,,333.536
48,0,,335.156
49,0,,336.996
50,0,776.319,338.445
51,0,,340.266
52,0,,341.916
53,0,,343.805
54,0,,345.199
55,0,779.013,347.09
56,0,,349
57,0,,350.692
58,0,,352.286
59,0,,353.941
60,0,808.166,355.898
61,0,,357.507
62,0,,359.129
63,0,,361.059
64,0,,362.675
65,0,803.439,364.278
66,0,,365.901
67,0,,367.498
68,0,,369.352
69,0,,370.798
70,0,779.45,372.378
71,0,,374.071
72,0,,375.487
73,0,,376.874
74,0,,378.643
75,0,772.543,379.882
76,0,,381.147
77,0,,383.19
78,0,,384.69
79,0,,386.096
80,0,789.769,388.091
81,0,,389.643
82,0,,391.22
83,0,,392.79
84,0,,394.364
85,0,784.657,396.253
86,0,,397.876
87,0,,399.689
88,0,,401.451
89,0,,403.075
90,0,826.501,405.014
91,0,,406.697
92,0,,408.348
93,0,,410.009
94,0,,411.995
95,0,826.799,413.635
96,0,,415.414
97,0,,417.111
98,0,,419.081
99,0,,420.829
100,0,780.247,422.476
101,0,,424.211
102,0,,426.266
103,0,,427.873
104,0,,429.712
105,0,823.426,431.732
106,0,,433.489
107,0,,435.305
108,0,,437.32
109,0,,439.133
110,0,813.437,440.959
111,0,,442.75
112,0,,444.048
113,0,,445.149
114,0,,446.494
115,0,857.145,447.763
116,0,,448.939
117,0,,450.297
118,0,,451.919
119,0,,453.286
120,0,861.702,454.871
121,0,,456.347
122,0,,458.196
123,0,,459.906
124,0,,461.49
125,0,921.416,463.614
126,0,,465.421
127,0,,467.429
128,0,,469.409
129,0,,471.156
130,0,945.597,473.128
131,0,,475.503
132,0,,477.319
133,0,,479.435
134,0,,481.869
135,0,880.23,483.86
136,0,,486.202
137,0,,488.375
138,0,,490.476
139,0,,493.249
140,0,1035.84,495.458
141,0,,498.154
142,0,,500.634
143,0,,502.822
144,0,,505.636
145,0,988.656,508.125
146,0,,510.476
147,0,,513.093
148,0,,515.646
149,0,,518.455
150,0,1060.13,521.146
151,0,,524.058
152,0,,526.568
153,0,,529.143
154,0,,531.595
155,0,1083.96,534.097
156,0,,537.384
157,0,,539.579
158,0,,542.92
159,0,,545.959
160,0,1015.39,548.823
161,0,,551.827
162,0,,555.179
163,0,,557.744
164,0,,560.37
165,0,1056.13,563.608
166,0,,566.495
167,0,,570.215
168,0,,573.638
169,0,,577.249
170,0,1169.46,581.139
171,0,,585.26
172,0,,590.472
173,0,,595.638
174,0,,601.018
175,0,1091.63,607.034
176,0,,611.921
177,0,,616.79
178,0,,622.829
179,0,,627.962
180,0,1390.51,633.898
181,0,,644.511
182,0,,656.551
183,0,,669.294
184,0,,686.333
185,0,1451.02,709.907
186,0,,755.652
187,0,,823.976
188,0,,879.977
189,0,,877.28
190,0,1607.15,866.914
191,0,,857.219
192,0,,809.682
193,0,,768.719
194,0,,737.397
195,0,1671.02,711.205
196,0,,684.102
197,0,,660.761
198,0,,630.324
199,0,,607.915
200,0,1040.39,591.288
201,0,,575.545
202,0,,560.899
203,0,,545.103
204,0,,532.662
205,0,419.088,521.139
206,0,,508.441
207,0,,498.234
208,0,,487.152
209,0,,478.251
210,0,146.379,469.915
211,0,,462.078
212,0,,453.537
213,0,,446.668
214,0,,440.191
215,0,60.3909,433.056
216,0,,427.237
217,0,,421.704
218,0,,415.597
219,0,,410.693
220,0,32.0892,406.007
221,0,,400.809
222,0,,396.574
223,0,,392.505
224,0,,388.633
225,0,11.8996,384.334
226,0,,380.809
227,0,,448.482
228,0,,449.315
229,0,,450.197
230,0,-0.467483,451.081
231,0,,452.003
232,0,,452.847
233,0,,453.797
234,0,,454.744
235,0,-4.20793,455.53
236,0,,456.446
237,0,,457.383
238,0,,458.191
239,0,,459.279
240,0,-7.25845,460.124
241,0,,460.894
242,0,,461.695
243,0,,462.667
244,0,,463.449
245,0,-6.08209,464.385
246,0,,465.278
247,0,,466.077
248,0,,467.075
249,0,,467.92
250,0,-7.61477,468.715

File: LCPP_TGA_N2_2-5K_1.csv
Time,Temperature,Mass
[s],[K],[mg]
0,301.365,3.00723
50,301.024,3.00648
100,300.81,3.00604
150,300.672,3.0058
200,300.563,3.00545
250,300.49,3.00544
300,300.44,3.00515
350,301.554,3.00571
400,303.392,3.00531
450,305.411,3.00491
500,307.424,3.00447
550,309.4,3.00441
600,311.361,3.00414
650,313.315,3.00371
700,315.263,3.00334
750,317.225,3.00305
800,319.177,3.00268
850,321.117,3.00265
900,323.065,3.00251
950,325.006,3.00227
1000,326.942,3.0023
1050,328.915,3.00191
1100,330.851,3.00187
1150,332.794,3.00155
1200,334.754,3.00075
1250,336.723,3.00155
1300,338.697,3.00125
1350,340.66,3.00106
1400,342.634,3.00097
1450,344.61,3.00106
1500,346.599,3.00084
1550,348.57,3.00069
1600,350.552,3.0005
1650,352.547,3.00018
1700,354.533,3.0002
1750,356.526,3.00006
1800,358.525,2.99997
1850,360.528,2.99979
1900,362.533,2.99974
1950,364.542,2.99966
2000,366.551,2.99972
2050,368.56,2.99921
2100,370.585,2.99942
2150,372.611,2.99914
2200,374.631,2.99925
2250,376.662,2.99898
2300,378.684,2.99855
2350,380.718,2.99837
2400,382.75,2.99801
2450,384.789,2.9975
2500,386.821,2.99715
2550,388.855,2.99689
2600,390.902,2.99637
2650,392.937,2.99601
2700,394.989,2.99542
2750,397.02,2.9951
2800,399.087,2.99497
2850,401.129,2.99403
2900,403.184,2.99383
2950,405.239,2.99299
3000,407.296,2.99206
3050,409.352,2.99103
3100,411.413,2.99031
3150,413.473,2.9904
3200,415.539,2.98996
3250,417.6,2.98902
3300,419.689,2.98822
3350,421.749,2.98729
3400,423.828,2.98617
3450,425.896,2.98497
3500,427.963,2.98423
3550,430.026,2.9837
3600,432.11,2.98195
3650,434.186,2.98188
3700,436.26,2.98048
3750,438.335,2.9797
3800,440.41,2.97813
3850,442.492,2.97694
3900,444.577,2.97617
3950,446.665,2.97508
4000,448.744,2.97342
4050,450.832,2.97191
4100,452.917,2.97095
4150,455,2.96935
4200,457.088,2.96802
4250,459.174,2.96701
4300,461.255,2.96534
4350,463.346,2.9635
4400,465.437,2.96176
4450,467.512,2.95994
4500,469.601,2.95901
4550,471.695,2.95794
4600,473.783,2.95683
4650,475.876,2.9555
4700,477.974,2.955
4750,480.073,2.95422
4800,482.162,2.95318
4850,484.268,2.95307
4900,486.36,2.9524
4950,488.443,2.95213
5000,490.532,2.95123
5050,492.641,2.95095
5100,494.741,2.9501
5150,496.838,2.94913
5200,498.928,2.9482
5250,501.032,2.94746
5300,503.129,2.9461
5350,505.226,2.94492
5400,507.307,2.94326
5450,509.41,2.94198
5500,511.504,2.94
5550,513.608,2.9371
5600,515.693,2.93569
5650,517.797,2.93295
5700,519.89,2.93
5750,521.985,2.92672
5800,524.076,2.92304
5850,526.178,2.91939
5900,528.287,2.91533
5950,530.377,2.91027
6000,532.488,2.90525
6050,534.582,2.89934
6100,536.679,2.89258
6150,538.778,2.88504
6200,540.871,2.87715
6250,542.971,2.868
6300,545.072,2.8584
6350,547.17,2.847
6400,549.265,2.83488
6450,551.364,2.82204
6500,553.451,2.80738
6550,555.552,2.79242
6600,557.653,2.77521
6650,559.75,2.75721
6700,561.854,2.73693
6750,563.944,2.71566
6800,566.057,2.69159
6850,568.144,2.66573
6900,570.245,2.63808
6950,572.352,2.60739
7000,574.442,2.57394
7050,576.544,2.53754
7100,578.658,2.49828
7150,580.763,2.45581
7200,582.861,2.41013
7250,584.961,2.36115
7300,587.072,2.3085
7350,589.169,2.2529
7400,591.26,2.19365
7450,593.365,2.13041
7500,595.453,2.06425
7550,597.561,1.99408
7600,599.668,1.92063
7650,601.766,1.84429
7700,603.863,1.76444
7750,605.963,1.68074
7800,608.06,1.59401
7850,610.161,1.50438
7900,612.269,1.4121
7950,614.359,1.31898
8000,616.459,1.22453
8050,618.547,1.12796
8100,620.634,1.03285
8150,622.744,0.938738
8200,624.833,0.846586
8250,626.924,0.756613
8300,629.013,0.670921
8350,631.099,0.589731
8400,633.186,0.513445
8450,635.265,0.44249
8500,637.356,0.377828
8550,639.443,0.31996
8600,641.526,0.269407
8650,643.618,0.224917
8700,645.698,0.186511
8750,647.78,0.153391
8800,649.883,0.12612
8850,651.966,0.103739
8900,654.052,0.0853316
8950,656.132,0.0705095
9000,658.218,0.0584386
9050,660.314,0.0487349
9100,662.406,0.0407641
9150,664.493,0.0341538
9200,666.587,0.0295841
9250,668.678,0.0258121
9300,670.756,0.0229937
9350,672.853,0.020156
9400,674.94,0.0188074
9450,677.032,0.0170022
9500,679.117,0.0160039
9550,681.209,0.0159248
9600,683.303,0.0148337
9650,685.393,0.0149366
9700,687.482,0.0149408
9750,689.578,0.014971
9800,691.678,0.0146231
9850,693.758,0.0148002
9900,695.843,0.0142195
9950,697.925,0.0135507
10000,700.021,0.0137714
10050,702.108,0.0133864
10100,704.199,0.0138698
10150,706.282,0.0134795
10200,708.372,0.0139787
10250,710.458,0.0138594
10300,712.561,0.0131534
10350,714.645,0.0130846
10400,716.739,0.0130087
10450,718.819,0.0129938
10500,720.897,0.0128895
10550,722.983,0.0129938
10600,725.069,0.0129913
10650,727.16,0.0122617
10700,729.236,0.0120036
10750,731.335,0.0119991
10800,733.414,0.0121266
10850,735.495,0.0114732
10900,737.587,0.0113941
10950,739.679,0.0118443
11000,741.757,0.0120997
11050,743.845,0.0118352
11100,745.925,0.0109971
11150,748.01,0.0109972
11200,750.096,0.0109991
11250,752.176,0.0111046
11300,754.267,0.0113777
11350,756.349,0.0105586
11400,758.435,0.0109683
11450,760.518,0.0109822
11500,762.606,0.0110105
11550,764.697,0.0101915
11600,766.77,0.0100567
11650,768.848,0.0106986
11700,770.942,0.0111013
11750,773.027,0.010996
11800,775.106,0.0109358
11850,777.195,0.010002
11900,779.29,0.0100971
11950,781.364,0.0107684
12000,783.456,0.0108918
12050,785.556,0.0108845
12100,787.634,0.00998384
12150,789.715,0.0100507
12200,791.809,0.0109403
12250,793.854,0.0105433
12300,794.917,0.0106549
12350,795.341,0.0103747
12400,795.529,0.00999868
12450,795.6,0.00999868
12500,795.639,0.00999868
12550,795.651,0.00999868
12600,795.648,0.00999868

File: LCPP_TGA_N2_2-5K_2.csv
Time,Temperature,Mass
[s],[K],[mg]
0,301.319,3.12678
50,300.979,3.12646
100,300.767,3.12604
150,300.623,3.12631
200,300.52,3.12519
250,300.439,3.12545
300,300.398,3.12514
350,301.517,3.12552
400,303.366,3.12516
450,305.368,3.12445
500,307.389,3.12425
550,309.36,3.12405
600,311.316,3.12367
650,313.288,3.12344
700,315.237,3.12303
750,317.19,3.12259
800,319.12,3.12219
850,321.064,3.12221
900,323.03,3.12198
950,324.969,3.12151
1000,326.919,3.12138
1050,328.88,3.12136
1100,330.821,3.12128
1150,332.768,3.121
1200,334.735,3.12076
1250,336.693,3.12079
1300,338.655,3.12041
1350,340.646,3.12052
1400,342.607,3.12049
1450,344.579,3.12031
1500,346.557,3.12026
1550,348.538,3.12025
1600,350.534,3.12037
1650,352.509,3.11995
1700,354.514,3.11989
1750,356.504,3.1197
1800,358.489,3.11917
1850,360.506,3.11919
1900,362.509,3.11881
1950,364.513,3.11861
2000,366.523,3.11853
2050,368.543,3.11814
2100,370.554,3.11781
2150,372.585,3.11785
2200,374.595,3.11754
2250,376.626,3.11718
2300,378.655,3.11688
2350,380.685,3.11653
2400,382.72,3.11641
2450,384.753,3.1161
2500,386.795,3.11532
2550,388.835,3.11487
2600,390.873,3.11437
2650,392.913,3.11425
2700,394.955,3.11394
2750,397.006,3.11312
2800,399.048,3.11289
2850,401.116,3.11205
2900,403.171,3.11111
2950,405.229,3.11025
3000,407.284,3.11003
3050,409.345,3.10903
3100,411.404,3.10828
3150,413.465,3.1075
3200,415.52,3.107
3250,417.588,3.10604
3300,419.655,3.10523
3350,421.72,3.10425
3400,423.782,3.10306
3450,425.863,3.10201
3500,427.944,3.10123
3550,430.017,3.10071
3600,432.088,3.09895
3650,434.16,3.09873
3700,436.233,3.09711
3750,438.317,3.09609
3800,440.392,3.09512
3850,442.466,3.09394
3900,444.556,3.09219
3950,446.634,3.09124
4000,448.727,3.08954
4050,450.804,3.08882
4100,452.894,3.08712
4150,454.981,3.08536
4200,457.071,3.08403
4250,459.161,3.082
4300,461.248,3.08088
4350,463.344,3.07849
4400,465.43,3.07607
4450,467.526,3.07505
4500,469.608,3.07302
4550,471.704,3.07194
4600,473.787,3.07001
4650,475.887,3.06874
4700,477.978,3.06822
4750,480.065,3.06721
4800,482.157,3.06674
4850,484.262,3.06597
4900,486.346,3.06509
4950,488.437,3.06493
5000,490.543,3.06421
5050,492.627,3.06312
5100,494.72,3.062
5150,496.828,3.06123
5200,498.916,3.0602
5250,501.01,3.05942
5300,503.117,3.05751
5350,505.201,3.05592
5400,507.302,3.05392
5450,509.398,3.05198
5500,511.49,3.05
5550,513.593,3.0471
5600,515.687,3.04502
5650,517.784,3.04202
5700,519.88,3.039
5750,521.976,3.03514
5800,524.071,3.03106
5850,526.173,3.02724
5900,528.275,3.02301
5950,530.36,3.01715
6000,532.466,3.01126
6050,534.563,3.00512
6100,536.67,2.99729
6150,538.768,2.98946
6200,540.873,2.98082
6250,542.959,2.9708
6300,545.06,2.96043
6350,547.15,2.94811
6400,549.253,2.93533
6450,551.349,2.92181
6500,553.455,2.90636
6550,555.553,2.89078
6600,557.65,2.873
6650,559.742,2.85465
6700,561.846,2.83382
6750,563.953,2.81213
6800,566.049,2.78766
6850,568.155,2.76138
6900,570.259,2.7329
6950,572.356,2.70191
7000,574.453,2.66814
7050,576.554,2.63119
7100,578.655,2.59158
7150,580.763,2.54857
7200,582.867,2.50213
7250,584.963,2.45251
7300,587.048,2.39898
7350,589.164,2.34252
7400,591.248,2.28209
7450,593.356,2.21768
7500,595.451,2.14979
7550,597.54,2.07767
7600,599.65,2.0019
7650,601.755,1.92315
7700,603.851,1.84018
7750,605.951,1.75354
7800,608.052,1.66405
7850,610.147,1.57193
7900,612.25,1.47724
7950,614.346,1.38108
8000,616.456,1.2833
8050,618.535,1.18277
8100,620.63,1.08421
8150,622.719,0.98691
8200,624.814,0.891637
8250,626.913,0.798596
8300,628.992,0.709989
8350,631.086,0.625372
8400,633.168,0.545491
8450,635.26,0.470276
8500,637.343,0.401626
8550,639.424,0.340074
8600,641.519,0.285863
8650,643.605,0.238434
8700,645.68,0.197022
8750,647.773,0.160899
8800,649.86,0.130978
8850,651.952,0.106328
8900,654.035,0.0860607
8950,656.123,0.0693297
9000,658.22,0.0558998
9050,660.299,0.0450535
9100,662.392,0.0359872
9150,664.485,0.0289805
9200,666.576,0.0232128
9250,668.667,0.0190764
9300,670.752,0.0160054
9350,672.839,0.0130932
9400,674.92,0.0110182
9450,677.028,0.00999869
9500,679.111,0.00900033
9550,681.202,0.00793721
9600,683.293,0.00783017
9650,685.386,0.00794896
9700,687.479,0.00785058
9750,689.567,0.00733906
9800,691.648,0.00662941
9850,693.735,0.00682983
9900,695.826,0.00671614
9950,697.899,0.00654622
10000,699.997,0.00666687
10050,702.083,0.00582517
10100,704.17,0.00641102
10150,706.26,0.00564535
10200,708.339,0.00598856
10250,710.433,0.00600517
10300,712.524,0.00600516
10350,714.607,0.00609379
10400,716.699,0.00599216
10450,718.784,0.00506955
10500,720.869,0.00499193
10550,722.951,0.0049919
10600,725.035,0.00499185
10650,727.129,0.004937
10700,729.207,0.00406746
10750,731.296,0.00401208
10800,733.382,0.00413979
10850,735.474,0.00390448
10900,737.553,0.00435872
10950,739.636,0.00408767
11000,741.713,0.00409782
11050,743.804,0.00399351
11100,745.899,0.00399354
11150,747.984,0.00399362
11200,750.067,0.00390564
11250,752.148,0.00332301
11300,754.231,0.00351658
11350,756.321,0.00357041
11400,758.399,0.0039782
11450,760.469,0.0031071
11500,762.555,0.00301503
11550,764.643,0.00299946
11600,766.731,0.00294883
11650,768.81,0.00378819
11700,770.898,0.00343732
11750,772.98,0.00299514
11800,775.063,0.00299599
11850,777.153,0.00301332
11900,779.25,0.00307965
11950,781.328,0.00276913
12000,783.428,0.00288996
12050,785.508,0.00249281
12100,787.59,0.00199682
12150,789.673,0.00204342
12200,791.764,0.00293839
12250,793.816,0.00299511
12300,794.88,0.00265332
12350,795.307,0.00201764
12400,795.475,0.00199676
12450,795.562,0.00199676
12500,795.584,0.00199676
12550,795.599,0.00199676
12600,795.604,0.00199676

File: LCPP_TGA_N2_2-5K_3.csv
Time,Temperature,Mass
[s],[K],[mg]
0,301.243,3.18254
50,300.899,3.18173
100,300.716,3.18104
150,300.579,3.18179
200,300.458,3.181
250,300.394,3.1813
300,300.345,3.18066
350,301.483,3.18123
400,303.317,3.18081
450,305.338,3.18034
500,307.34,3.18017
550,309.338,3.18001
600,311.304,3.17945
650,313.265,3.17932
700,315.202,3.17873
750,317.141,3.17821
800,319.088,3.17777
850,321.041,3.17805
900,322.972,3.17779
950,324.926,3.17735
1000,326.869,3.17736
1050,328.83,3.17725
1100,330.787,3.17696
1150,332.741,3.17684
1200,334.703,3.17665
1250,336.647,3.17679
1300,338.616,3.17635
1350,340.582,3.17655
1400,342.568,3.17635
1450,344.546,3.17615
1500,346.526,3.17601
1550,348.499,3.17592
1600,350.481,3.17596
1650,352.482,3.17528
1700,354.468,3.17517
1750,356.469,3.17522
1800,358.462,3.17484
1850,360.455,3.17467
1900,362.469,3.17467
1950,364.473,3.17462
2000,366.48,3.17394
2050,368.506,3.17391
2100,370.525,3.17362
2150,372.536,3.17395
2200,374.561,3.17343
2250,376.582,3.17312
2300,378.622,3.17257
2350,380.649,3.17215
2400,382.674,3.1719
2450,384.72,3.17151
2500,386.762,3.17103
2550,388.799,3.17083
2600,390.839,3.17035
2650,392.883,3.16982
2700,394.927,3.16918
2750,396.972,3.16906
2800,399.015,3.16805
2850,401.055,3.16784
2900,403.12,3.16706
2950,405.183,3.16603
3000,407.221,3.16505
3050,409.289,3.16413
3100,411.35,3.16328
3150,413.407,3.16267
3200,415.473,3.16225
3250,417.545,3.16138
3300,419.609,3.16052
3350,421.689,3.15939
3400,423.753,3.15879
3450,425.85,3.15778
3500,427.916,3.15623
3550,429.985,3.1557
3600,432.058,3.15405
3650,434.126,3.15386
3700,436.202,3.1521
3750,438.288,3.15147
3800,440.366,3.15021
3850,442.45,3.14893
3900,444.526,3.14718
3950,446.617,3.1462
4000,448.699,3.14478
4050,450.779,3.14369
4100,452.871,3.14245
4150,454.952,3.14036
4200,457.046,3.13902
4250,459.132,3.13799
4300,461.225,3.13589
4350,463.314,3.13401
4400,465.386,3.13207
4450,467.492,3.13089
4500,469.575,3.12902
4550,471.667,3.12785
4600,473.761,3.12683
4650,475.863,3.12548
4700,477.953,3.12427
4750,480.046,3.12342
4800,482.141,3.12299
4850,484.245,3.12206
4900,486.341,3.12111
4950,488.423,3.12112
5000,490.518,3.12024
5050,492.613,3.119
5100,494.714,3.11817
5150,496.8,3.11775
5200,498.909,3.11652
5250,500.999,3.11546
5300,503.091,3.11444
5350,505.193,3.11293
5400,507.297,3.11094
5450,509.39,3.10899
5500,511.48,3.10701
5550,513.583,3.10487
5600,515.686,3.1027
5650,517.779,3.09995
5700,519.874,3.09604
5750,521.972,3.09294
5800,524.066,3.08905
5850,526.162,3.08454
5900,528.267,3.08023
5950,530.364,3.07502
6000,532.457,3.06915
6050,534.551,3.06313
6100,536.654,3.05575
6150,538.749,3.04805
6200,540.852,3.0396
6250,542.946,3.02987
6300,545.042,3.0197
6350,547.142,3.00756
6400,549.239,2.99489
6450,551.331,2.98136
6500,553.433,2.96608
6550,555.529,2.9505
6600,557.631,2.93272
6650,559.733,2.91436
6700,561.836,2.89361
6750,563.938,2.8717
6800,566.026,2.84712
6850,568.128,2.82065
6900,570.231,2.79206
6950,572.331,2.76065
7000,574.421,2.72635
7050,576.523,2.68925
7100,578.618,2.649
7150,580.718,2.60529
7200,582.822,2.55838
7250,584.921,2.5078
7300,587.014,2.45341
7350,589.12,2.39609
7400,591.209,2.33461
7450,593.313,2.26917
7500,595.412,2.20022
7550,597.518,2.12705
7600,599.627,2.05054
7650,601.718,1.97099
7700,603.829,1.88781
7750,605.931,1.80075
7800,608.024,1.71067
7850,610.119,1.61653
7900,612.217,1.5196
7950,614.31,1.42211
8000,616.408,1.32349
8050,618.505,1.22232
8100,620.595,1.12122
8150,622.702,1.02176
8200,624.799,0.92418
8250,626.887,0.828619
8300,628.981,0.73755
8350,631.08,0.650108
8400,633.165,0.567846
8450,635.25,0.489851
8500,637.344,0.419514
8550,639.424,0.355832
8600,641.504,0.300045
8650,643.596,0.251747
8700,645.681,0.209924
8750,647.771,0.173643
8800,649.86,0.143623
8850,651.953,0.118752
8900,654.041,0.0984245
8950,656.132,0.081741
9000,658.221,0.0683134
9050,660.306,0.0573522
9100,662.397,0.0485997
9150,664.487,0.0412534
9200,666.575,0.0360837
9250,668.674,0.0319
9300,670.763,0.0284549
9350,672.858,0.0260035
9400,674.945,0.0240061
9450,677.035,0.0219047
9500,679.127,0.0209064
9550,681.212,0.0198432
9600,683.308,0.0198237
9650,685.393,0.0199404
9700,687.476,0.0198934
9750,689.581,0.0193333
9800,691.668,0.0186248
9850,693.762,0.0188331
9900,695.853,0.0186221
9950,697.946,0.0185419
10000,700.027,0.0187753
10050,702.11,0.0181827
10100,704.205,0.0178782
10150,706.294,0.0174904
10200,708.379,0.017984
10250,710.469,0.0178963
10300,712.558,0.0180005
10350,714.636,0.0180888
10400,716.727,0.0176479
10450,718.813,0.0177908
10500,720.894,0.0169874
10550,722.981,0.0169873
10600,725.061,0.016276
10650,727.155,0.0161082
10700,729.239,0.0160099
10750,731.321,0.0160075
10800,733.41,0.0161168
10850,735.499,0.0152473
10900,737.583,0.015492
10950,739.667,0.0158399
11000,741.757,0.0160928
11050,743.843,0.0150349
11100,745.919,0.0149906
11150,748.014,0.0149907
11200,750.082,0.0150065
11250,752.174,0.0142188
11300,754.251,0.0145136
11350,756.338,0.0145548
11400,758.418,0.0149714
11450,760.51,0.0143708
11500,762.584,0.0140121
11550,764.672,0.0139965
11600,766.748,0.0139607
11650,768.839,0.0140879
11700,770.92,0.0140965
11750,773.008,0.0139922
11800,775.088,0.0140078
11850,777.175,0.0138853
11900,779.268,0.0130976
11950,781.355,0.0137662
12000,783.433,0.0139906
12050,785.525,0.0133422
12100,787.611,0.0129939
12150,789.703,0.0130454
12200,791.774,0.0139354
12250,793.842,0.0133678
12300,794.908,0.0126643
12350,795.327,0.0129938
12400,795.511,0.0129938
12450,795.58,0.0129563
12500,795.617,0.0127599
12550,795.622,0.0129938
12600,795.634,0.0129938