Folder: matl-db/PMMA/Calibration_Data/LCPP (part 3)

File: LCPP_TGA_N2_5K_1.csv
Time,Temperature,Mass
[s],[K],[mg]
0,301.152,3.09388
25,300.977,3.09339
50,300.825,3.09329
75,300.732,3.09303
100,300.655,3.09311
125,300.58,3.09299
150,300.538,3.09333
175,300.482,3.09388
200,300.447,3.0937
225,300.415,3.09299
250,300.39,3.09299
275,300.36,3.09299
300,300.346,3.09189
325,301.233,3.09345
350,302.857,3.09263
375,304.644,3.09242
400,306.544,3.09238
425,308.526,3.09185
450,310.54,3.09168
475,312.547,3.09121
500,314.566,3.09129
525,316.589,3.09106
550,318.587,3.09085
575,320.582,3.09086
600,322.592,3.09055
625,324.572,3.09045
650,326.551,3.09046
675,328.533,3.0899
700,330.514,3.09007
725,332.5,3.08977
750,334.472,3.08925
775,336.455,3.08942
800,338.445,3.08954
825,340.426,3.08907
850,342.402,3.08901
875,344.392,3.08884
900,346.37,3.0883
925,348.365,3.08851
950,350.367,3.08825
975,352.363,3.08787
1000,354.358,3.0878
1025,356.36,3.08774
1050,358.366,3.08789
1075,360.388,3.0875
1100,362.379,3.08729
1125,364.399,3.08741
1150,366.414,3.08725
1175,368.44,3.08714
1200,370.457,3.08713
1225,372.488,3.08699
1250,374.52,3.08697
1275,376.553,3.08665
1300,378.587,3.08636
1325,380.626,3.08611
1350,382.659,3.08573
1375,384.703,3.08491
1400,386.734,3.08517
1425,388.79,3.08433
1450,390.83,3.08412
1475,392.876,3.08408
1500,394.938,3.08357
1525,396.979,3.08314
1550,399.042,3.08281
1575,401.095,3.08229
1600,403.151,3.08186
1625,405.207,3.08137
1650,407.278,3.08091
1675,409.345,3.08028
1700,411.409,3.07971
1725,413.477,3.07845
1750,415.554,3.07789
1775,417.619,3.07701
1800,419.705,3.07613
1825,421.754,3.07586
1850,423.837,3.07465
1875,425.93,3.07406
1900,427.999,3.07322
1925,430.08,3.07246
1950,432.166,3.07194
1975,434.241,3.07107
2000,436.33,3.07065
2025,438.419,3.06897
2050,440.499,3.06836
2075,442.596,3.06728
2100,444.679,3.06608
2125,446.774,3.06499
2150,448.863,3.06383
2175,450.95,3.0623
2200,453.042,3.06039
2225,455.142,3.05916
2250,457.228,3.05746
2275,459.323,3.05602
2300,461.407,3.05412
2325,463.502,3.05271
2350,465.607,3.0506
2375,467.697,3.04871
2400,469.796,3.04667
2425,471.897,3.04469
2450,473.995,3.0425
2475,476.087,3.04036
2500,478.186,3.03762
2525,480.279,3.03611
2550,482.377,3.03477
2575,484.478,3.03269
2600,486.585,3.03179
2625,488.683,3.03095
2650,490.78,3.02999
2675,492.889,3.02925
2700,494.988,3.02838
2725,497.085,3.02747
2750,499.191,3.02646
2775,501.284,3.02569
2800,503.39,3.02504
2825,505.487,3.02421
2850,507.592,3.02385
2875,509.691,3.02302
2900,511.792,3.02123
2925,513.892,3.01968
2950,515.983,3.0188
2975,518.081,3.01723
3000,520.184,3.01506
3025,522.287,3.01301
3050,524.4,3.0109
3075,526.496,3.0081
3100,528.601,3.00507
3125,530.697,3.00228
3150,532.795,2.9986
3175,534.91,2.99453
3200,537.012,2.99067
3225,539.106,2.98558
3250,541.206,2.9803
3275,543.312,2.97461
3300,545.414,2.9679
3325,547.519,2.96095
3350,549.625,2.95304
3375,551.728,2.94425
3400,553.834,2.93439
3425,555.95,2.92405
3450,558.045,2.91313
3475,560.153,2.90106
3500,562.248,2.8879
3525,564.353,2.874
3550,566.458,2.85885
3575,568.559,2.84269
3600,570.66,2.82528
3625,572.766,2.8059
3650,574.874,2.78506
3675,576.972,2.76249
3700,579.08,2.73705
3725,581.188,2.70962
3750,583.294,2.6793
3775,585.403,2.64633
3800,587.514,2.61038
3825,589.615,2.57097
3850,591.715,2.52833
3875,593.826,2.48199
3900,595.929,2.43199
3925,598.051,2.37758
3950,600.153,2.31951
3975,602.263,2.25704
4000,604.375,2.19019
4025,606.491,2.11882
4050,608.586,2.04353
4075,610.707,1.96386
4100,612.817,1.8799
4125,614.931,1.79262
4150,617.04,1.70141
4175,619.149,1.60576
4200,621.255,1.50803
4225,623.363,1.409
4250,625.466,1.3083
4275,627.559,1.20599
4300,629.655,1.10357
4325,631.749,1.00234
4350,633.849,0.903514
4375,635.937,0.808239
4400,638.019,0.717077
4425,640.098,0.63062
4450,642.175,0.55012
4475,644.254,0.475085
4500,646.33,0.407326
4525,648.4,0.346599
4550,650.472,0.292754
4575,652.55,0.245462
4600,654.621,0.204695
4625,656.693,0.169552
4650,658.746,0.13983
4675,660.815,0.115144
4700,662.878,0.0949701
4725,664.95,0.0785803
4750,667.023,0.065311
4775,669.106,0.0545319
4800,671.181,0.0459484
4825,673.261,0.0392808
4850,675.333,0.0339681
4875,677.426,0.0298243
4900,679.5,0.0263647
4925,681.592,0.0240148
4950,683.674,0.0220153
4975,685.765,0.0201267
5000,687.851,0.0189973
5025,689.93,0.0179948
5050,692.021,0.0178875
5075,694.107,0.0169034
5100,696.193,0.0167251
5125,698.278,0.0169007
5150,700.369,0.0168992
5175,702.457,0.0163601
5200,704.54,0.0161467
5225,706.627,0.0159914
5250,708.705,0.0160077
5275,710.8,0.0160069
5300,712.88,0.0159911
5325,714.968,0.0158627
5350,717.054,0.0152854
5375,719.13,0.0152548
5400,721.211,0.0152016
5425,723.294,0.0151124
5450,725.398,0.0150935
5475,727.492,0.0152642
5500,729.559,0.0149183
5525,731.643,0.0150948
5550,733.727,0.0150075
5575,735.815,0.0150209
5600,737.892,0.0151125
5625,739.971,0.0141876
5650,742.043,0.0145639
5675,744.126,0.0148458
5700,746.205,0.015072
5725,748.29,0.014686
5750,750.366,0.013995
5775,752.456,0.014043
5800,754.531,0.014247
5825,756.621,0.0139922
5850,758.698,0.0139969
5875,760.771,0.014087
5900,762.857,0.0136687
5925,764.944,0.0137367
5950,767.016,0.0139907
5975,769.102,0.0139822
6000,771.185,0.0138231
6025,773.268,0.0131267
6050,775.355,0.0138603
6075,777.432,0.0138112
6100,779.524,0.0133997
6125,781.602,0.0131396
6150,783.696,0.0135726
6175,785.774,0.0134737
6200,787.857,0.0139249
6225,789.947,0.0130122
6250,791.957,0.0137098
6275,793.281,0.0134516
6300,794.099,0.0130087
6325,794.619,0.0128187
6350,794.972,0.0129938
6375,795.177,0.0129938
6400,795.308,0.0127887
6425,795.403,0.0121327
6450,795.458,0.0120093
6475,795.495,0.0129916
6500,795.521,0.0123736
6525,795.532,0.0119968
6550,795.535,0.0119961
6575,795.55,0.012043
6600,795.553,0.0125612

File: LCPP_TGA_N2_5K_2.csv
Time,Temperature,Mass
[s],[K],[mg]
0,301.208,3.0349
25,301.037,3.03478
50,300.896,3.03446
75,300.795,3.03411
100,300.705,3.03411
125,300.643,3.03441
150,300.581,3.03499
175,300.53,3.03499
200,300.487,3.03499
225,300.454,3.03411
250,300.435,3.034
275,300.404,3.034
300,300.363,3.03287
325,301.262,3.03467
350,302.889,3.03405
375,304.671,3.03381
400,306.578,3.03368
425,308.561,3.03337
450,310.583,3.03321
475,312.6,3.03286
500,314.607,3.03282
525,316.641,3.03253
550,318.624,3.03228
575,320.633,3.03224
600,322.614,3.03198
625,324.598,3.03169
650,326.578,3.03156
675,328.57,3.0314
700,330.536,3.03126
725,332.53,3.03095
750,334.5,3.03068
775,336.476,3.03064
800,338.467,3.03076
825,340.442,3.0303
850,342.425,3.03011
875,344.417,3.03007
900,346.396,3.02961
925,348.4,3.02966
950,350.379,3.02944
975,352.381,3.02942
1000,354.376,3.0295
1025,356.39,3.02926
1050,358.391,3.02913
1075,360.401,3.02909
1100,362.401,3.02868
1125,364.429,3.02874
1150,366.448,3.02857
1175,368.47,3.02841
1200,370.491,3.02843
1225,372.498,3.02814
1250,374.543,3.0281
1275,376.571,3.02791
1300,378.605,3.02793
1325,380.65,3.02755
1350,382.677,3.02735
1375,384.712,3.02673
1400,386.748,3.02678
1425,388.808,3.02625
1450,390.846,3.02575
1475,392.905,3.02559
1500,394.946,3.02524
1525,396.999,3.02492
1550,399.048,3.02475
1575,401.11,3.02411
1600,403.174,3.02363
1625,405.236,3.02337
1650,407.296,3.02291
1675,409.361,3.02228
1700,411.438,3.02183
1725,413.502,3.02105
1750,415.591,3.02026
1775,417.661,3.01977
1800,419.722,3.01905
1825,421.807,3.01832
1850,423.886,3.01729
1875,425.966,3.01702
1900,428.033,3.01615
1925,430.106,3.01525
1950,432.2,3.01487
1975,434.283,3.01343
2000,436.365,3.01358
2025,438.45,3.01197
2050,440.535,3.01092
2075,442.619,3.01014
2100,444.707,3.00894
2125,446.799,3.00798
2150,448.884,3.00681
2175,450.979,3.00549
2200,453.062,3.00375
2225,455.163,3.00217
2250,457.245,3.001
2275,459.338,2.99999
2300,461.436,2.99786
2325,463.526,2.99655
2350,465.624,2.9946
2375,467.709,2.9927
2400,469.806,2.99067
2425,471.905,2.9887
2450,473.998,2.9865
2475,476.099,2.98362
2500,478.19,2.98154
2525,480.289,2.97968
2550,482.395,2.97867
2575,484.494,2.97669
2600,486.604,2.97581
2625,488.705,2.97485
2650,490.8,2.97411
2675,492.899,2.97326
2700,494.999,2.9724
2725,497.099,2.97147
2750,499.2,2.97052
2775,501.304,2.96965
2800,503.395,2.96943
2825,505.497,2.9689
2850,507.597,2.9679
2875,509.695,2.96706
2900,511.798,2.9662
2925,513.892,2.96435
2950,516,2.96289
2975,518.101,2.96123
3000,520.21,2.95952
3025,522.309,2.95802
3050,524.414,2.95515
3075,526.521,2.9529
3100,528.626,2.95024
3125,530.73,2.9475
3150,532.826,2.94398
3175,534.919,2.94026
3200,537.033,2.93642
3225,539.127,2.93171
3250,541.234,2.92663
3275,543.328,2.9211
3300,545.441,2.91464
3325,547.541,2.90788
3350,549.635,2.90049
3375,551.738,2.89208
3400,553.842,2.88271
3425,555.941,2.87283
3450,558.043,2.86243
3475,560.151,2.85094
3500,562.253,2.83826
3525,564.351,2.82478
3550,566.46,2.81022
3575,568.558,2.79451
3600,570.669,2.77773
3625,572.776,2.75899
3650,574.871,2.73887
3675,576.972,2.7172
3700,579.082,2.69252
3725,581.183,2.66609
3750,583.293,2.6368
3775,585.399,2.6049
3800,587.511,2.5702
3825,589.607,2.53197
3850,591.709,2.49077
3875,593.834,2.44612
3900,595.932,2.39777
3925,598.046,2.34526
3950,600.148,2.28932
3975,602.26,2.22956
4000,604.362,2.16541
4025,606.47,2.09707
4050,608.578,2.0251
4075,610.695,1.94888
4100,612.785,1.86895
4125,614.891,1.78547
4150,617.003,1.69844
4175,619.108,1.6075
4200,621.217,1.51404
4225,623.314,1.41911
4250,625.42,1.32295
4275,627.516,1.22538
4300,629.607,1.12796
4325,631.707,1.03238
4350,633.805,0.938374
4375,635.896,0.847893
4400,637.988,0.761453
4425,640.074,0.679674
4450,642.159,0.603252
4475,644.238,0.532201
4500,646.311,0.467488
4525,648.385,0.409429
4550,650.459,0.357927
4575,652.53,0.312827
4600,654.605,0.273869
4625,656.677,0.240074
4650,658.752,0.211344
4675,660.824,0.187546
4700,662.9,0.168126
4725,664.972,0.152429
4750,667.043,0.139683
4775,669.122,0.12949
4800,671.195,0.121117
4825,673.278,0.114726
4850,675.363,0.109434
4875,677.444,0.105431
4900,679.524,0.1021
4925,681.619,0.100022
4950,683.711,0.0980112
4975,685.792,0.0963974
5000,687.878,0.0949038
5025,689.957,0.0939013
5050,692.047,0.093885
5075,694.127,0.0933449
5100,696.218,0.0927355
5125,698.301,0.0929121
5150,700.397,0.0930011
5175,702.478,0.0929568
5200,704.574,0.0929823
5225,706.659,0.0928104
5250,708.743,0.0924243
5275,710.827,0.0920322
5300,712.919,0.0920302
5325,714.995,0.0920736
5350,717.086,0.0921241
5375,719.166,0.092126
5400,721.248,0.0919093
5425,723.334,0.0916605
5450,725.413,0.091426
5475,727.505,0.0917074
5500,729.581,0.0917278
5525,731.672,0.0920984
5550,733.756,0.0918957
5575,735.84,0.0918471
5600,737.918,0.0913136
5625,740.003,0.0911708
5650,742.089,0.0915827
5675,744.171,0.0918483
5700,746.259,0.0918533
5725,748.338,0.091014
5750,750.414,0.0908998
5775,752.497,0.0910535
5800,754.573,0.0914632
5825,756.66,0.0917991
5850,758.739,0.0910114
5875,760.821,0.0910937
5900,762.904,0.0910648
5925,764.987,0.0913033
5950,767.07,0.0908958
5975,769.146,0.0910035
6000,771.228,0.0908002
6025,773.319,0.0901309
6050,775.391,0.0908694
6075,777.479,0.0907937
6100,779.556,0.0907373
6125,781.632,0.09034
6150,783.726,0.090494
6175,785.805,0.0904785
6200,787.896,0.0907538
6225,789.98,0.0900065
6250,791.995,0.0907838
6275,793.326,0.090278
6300,794.118,0.090003
6325,794.645,0.0894591
6350,794.979,0.0899136
6375,795.194,0.0899136
6400,795.335,0.0897085
6425,795.424,0.0899134
6450,795.481,0.0898694
6475,795.52,0.0900607
6500,795.554,0.0902898
6525,795.559,0.089915
6550,795.585,0.0899136
6575,795.588,0.0899592
6600,795.584,0.0897722

File: LCPP_TGA_N2_5K_3.csv
Time,Temperature,Mass
[s],[K],[mg]
0,301.174,3.06027
25,300.996,3.06019
50,300.875,3.06016
75,300.787,3.06
100,300.693,3.05912
125,300.637,3.06
150,300.581,3.06
175,300.527,3.06
200,300.493,3.06
225,300.449,3.05994
250,300.427,3.05915
275,300.409,3.05898
300,300.373,3.05796
325,301.297,3.05975
350,302.895,3.05908
375,304.683,3.05897
400,306.59,3.05864
425,308.575,3.05828
450,310.59,3.05796
475,312.609,3.0578
500,314.636,3.0576
525,316.644,3.05719
550,318.652,3.05704
575,320.641,3.05694
600,322.636,3.05662
625,324.629,3.05646
650,326.612,3.05614
675,328.6,3.05596
700,330.57,3.05596
725,332.56,3.0557
750,334.533,3.05551
775,336.515,3.05537
800,338.49,3.05522
825,340.482,3.05493
850,342.451,3.05464
875,344.44,3.05475
900,346.423,3.05437
925,348.417,3.05443
950,350.403,3.05418
975,352.412,3.05386
1000,354.401,3.05399
1025,356.416,3.05384
1050,358.415,3.05367
1075,360.429,3.05362
1100,362.424,3.05331
1125,364.449,3.05336
1150,366.458,3.05319
1175,368.47,3.05332
1200,370.519,3.05324
1225,372.549,3.05284
1250,374.544,3.05274
1275,376.604,3.0525
1300,378.617,3.0523
1325,380.656,3.05186
1350,382.711,3.0517
1375,384.73,3.05125
1400,386.786,3.05115
1425,388.825,3.05054
1450,390.869,3.05005
1475,392.93,3.05004
1500,394.971,3.04979
1525,397.027,3.04932
1550,399.087,3.04889
1575,401.143,3.04825
1600,403.198,3.04778
1625,405.262,3.04733
1650,407.326,3.04692
1675,409.388,3.04611
1700,411.47,3.04567
1725,413.527,3.04481
1750,415.594,3.04389
1775,417.655,3.04311
1800,419.751,3.04212
1825,421.802,3.04187
1850,423.892,3.04084
1875,425.969,3.04032
1900,428.045,3.03939
1925,430.115,3.03882
1950,432.205,3.03796
1975,434.299,3.03673
2000,436.392,3.03648
2025,438.451,3.03493
2050,440.527,3.03377
2075,442.651,3.03254
2100,444.726,3.0312
2125,446.811,3.03006
2150,448.895,3.02886
2175,450.984,3.02764
2200,453.085,3.02614
2225,455.163,3.02405
2250,457.274,3.02299
2275,459.348,3.02125
2300,461.442,3.01985
2325,463.535,3.01773
2350,465.624,3.0156
2375,467.725,3.0137
2400,469.832,3.01067
2425,471.935,3.00868
2450,474.032,3.00543
2475,476.131,3.0035
2500,478.227,3.00105
2525,480.31,2.99868
2550,482.432,2.99748
2575,484.521,2.99557
2600,486.609,2.99455
2625,488.703,2.99317
2650,490.831,2.99229
2675,492.93,2.99188
2700,495.031,2.99108
2725,497.12,2.99028
2750,499.22,2.98939
2775,501.318,2.98868
2800,503.424,2.98801
2825,505.524,2.98668
2850,507.632,2.98583
2875,509.731,2.98504
2900,511.832,2.98323
2925,513.933,2.98133
2950,516.043,2.97988
2975,518.144,2.97823
3000,520.248,2.97622
3025,522.348,2.97401
3050,524.455,2.97109
3075,526.546,2.96812
3100,528.654,2.96493
3125,530.748,2.96167
3150,532.85,2.95797
3175,534.956,2.95376
3200,537.058,2.94931
3225,539.162,2.94383
3250,541.253,2.93838
3275,543.356,2.93219
3300,545.46,2.92524
3325,547.56,2.91787
3350,549.673,2.90973
3375,551.767,2.90059
3400,553.867,2.89055
3425,555.964,2.88004
3450,558.074,2.86882
3475,560.181,2.85662
3500,562.286,2.84346
3525,564.382,2.82933
3550,566.48,2.81413
3575,568.579,2.79796
3600,570.686,2.78061
3625,572.79,2.76143
3650,574.899,2.74081
3675,577.003,2.71853
3700,579.114,2.6934
3725,581.208,2.66647
3750,583.314,2.6368
3775,585.42,2.60443
3800,587.525,2.56938
3825,589.639,2.53089
3850,591.741,2.48926
3875,593.851,2.44423
3900,595.958,2.39561
3925,598.067,2.34296
3950,600.18,2.28658
3975,602.282,2.22641
4000,604.39,2.16183
4025,606.503,2.09302
4050,608.613,2.02028
4075,610.722,1.94312
4100,612.83,1.86234
4125,614.935,1.77793
4150,617.029,1.68982
4175,619.135,1.59781
4200,621.237,1.50314
4225,623.341,1.40735
4250,625.445,1.30765
4275,627.552,1.20798
4300,629.641,1.10717
4325,631.737,1.0081
4350,633.834,0.910402
4375,635.917,0.814933
4400,638.014,0.7237
4425,640.087,0.637072
4450,642.195,0.555632
4475,644.272,0.479508
4500,646.346,0.409753
4525,648.422,0.347108
4550,650.492,0.291429
4575,652.566,0.242721
4600,654.643,0.200101
4625,656.718,0.163444
4650,658.785,0.13241
4675,660.868,0.106599
4700,662.939,0.0853743
4725,665.02,0.0681192
4750,667.091,0.0540528
4775,669.165,0.0427782
4800,671.25,0.0335453
4825,673.331,0.026406
4850,675.414,0.0206615
4875,677.49,0.0160561
4900,679.577,0.0124949
4925,681.665,0.0100084
4950,683.742,0.00800546
4975,685.83,0.00589674
5000,687.918,0.00488635
5025,690.008,0.00388365
5050,692.095,0.00379173
5075,694.184,0.00289382
5100,696.262,0.00271921
5125,698.362,0.00281368
5150,700.448,0.0024424
5175,702.526,0.00218705
5200,704.618,0.00208194
5225,706.704,0.0018943
5250,708.783,0.00200884
5275,710.869,0.00200122
5300,712.948,0.0017867
5325,715.037,0.00174694
5350,717.121,0.00111955
5375,719.211,0.0013011
5400,721.292,0.00118968
5425,723.384,0.00109064
5450,725.457,0.00108814
5475,727.533,0.00151715
5500,729.623,0.000967259
5525,731.706,0.00119718
5550,733.789,0.00101236
5575,735.869,0.00101176
5600,737.953,0.00114625
5625,740.03,0.000980882
5650,742.106,0.000651049
5675,744.195,0.000855586
5700,746.278,0.00107584
5725,748.36,0.000982056
5750,750.444,0.000914074
5775,752.523,1.69E-06
5800,754.609,0.000454431
5825,756.695,0.000931843
5850,758.785,0.000426497
5875,760.851,7.43E-07
5900,762.928,0.000078766
5925,765.023,0.000681602
5950,767.101,0.000494557
5975,769.188,3.30E-06
6000,771.265,2.58E-07
6025,773.345,8.46E-06
6050,775.431,0.000269295
6075,777.51,-0.00019158
6100,779.596,1.52E-09
6125,781.673,0.000129857
6150,783.753,0.000111534
6175,785.833,0.000521177
6200,787.929,0.000033186
6225,790.012,0.000184327
6250,792.038,0.000237078
6275,793.355,5.17E-06
6300,794.157,0.000997571
6325,794.679,0.000506146
6350,795.018,6.01E-08
6375,795.232,0.000539671
6400,795.366,-0.00120719
6425,795.458,0.000998449
6450,795.516,0.000998378
6475,795.556,0.000732816
6500,795.578,0.000618079
6525,795.59,0.000996307
6550,795.595,0.000998378
6575,795.607,0.000958051
6600,795.611,0.000998378

File: LCPP_TGA_N2_10K_1.csv
Time,Temperature,Mass
[s],[K],[mg]
0,301.205,3.01186
9,301.148,3.01144
18,301.082,3.01159
27,301.027,3.01136
36,300.971,3.01123
45,300.91,3.01082
54,300.882,3.01121
63,300.856,3.01081
72,300.812,3.01117
81,300.772,3.01048
90,300.735,3.01031
99,300.714,3.01048
108,300.687,3.01038
117,300.661,3.01039
126,300.633,3.01016
135,300.619,3.01
144,300.604,3.00998
153,300.574,3.01004
162,300.559,3.00993
171,300.542,3.0099
180,300.532,3.0099
189,300.5,3.0099
198,300.499,3.01009
207,300.482,3.0099
216,300.469,3.00999
225,300.453,3.00991
234,300.439,3.0099
243,300.417,3.00998
252,300.413,3.00975
261,300.412,3.00973
270,300.403,3.00949
279,300.39,3.00903
288,300.389,3.00936
297,300.376,3.00903
306,300.864,3.00936
315,302.9,3.01167
324,305.498,3.00981
333,308.273,3.00824
342,311.1,3.00805
351,313.934,3.00763
360,316.779,3.0072
369,319.649,3.00683
378,322.541,3.0065
387,325.455,3.00634
396,328.354,3.00604
405,331.276,3.00549
414,334.195,3.00548
423,337.126,3.00501
432,340.061,3.00482
441,342.986,3.00471
450,345.933,3.00458
459,348.877,3.00419
468,351.818,3.00435
477,354.769,3.00365
486,357.729,3.00353
495,360.683,3.00343
504,363.641,3.00315
513,366.613,3.00291
522,369.574,3.00283
531,372.545,3.00232
540,375.524,3.00194
549,378.496,3.00214
558,381.474,3.00173
567,384.454,3.00154
576,387.434,3.00118
585,390.436,3.00083
594,393.423,3.00045
603,396.406,3.00031
612,399.403,2.99993
621,402.415,2.9992
630,405.419,2.9984
639,408.427,2.99829
648,411.431,2.9971
657,414.458,2.99645
666,417.474,2.99547
675,420.489,2.99491
684,423.519,2.99366
693,426.536,2.9932
702,429.574,2.99246
711,432.606,2.99117
720,435.635,2.99031
729,438.667,2.98882
738,441.713,2.98796
747,444.747,2.98623
756,447.799,2.98499
765,450.848,2.98366
774,453.886,2.98199
783,456.929,2.97994
792,459.977,2.97711
801,463.031,2.97455
810,466.081,2.97221
819,469.136,2.9692
828,472.187,2.96658
837,475.232,2.96323
846,478.295,2.95963
855,481.353,2.95613
864,484.407,2.95215
873,487.466,2.94756
882,490.527,2.943
891,493.588,2.93836
900,496.648,2.93396
909,499.712,2.92955
918,502.772,2.92584
927,505.823,2.92297
936,508.883,2.92078
945,511.95,2.91913
954,515.002,2.91753
963,518.062,2.91635
972,521.124,2.91515
981,524.188,2.91331
990,527.243,2.91106
999,530.307,2.90966
1008,533.363,2.90716
1017,536.419,2.90449
1026,539.473,2.90194
1035,542.526,2.89832
1044,545.581,2.89423
1053,548.633,2.88954
1062,551.673,2.88482
1071,554.728,2.87862
1080,557.782,2.87141
1089,560.826,2.86407
1098,563.871,2.85466
1107,566.924,2.84505
1116,569.97,2.83392
1125,573.009,2.82148
1134,576.055,2.80806
1143,579.1,2.79362
1152,582.14,2.77817
1161,585.174,2.76138
1170,588.226,2.74268
1179,591.265,2.72134
1188,594.302,2.69698
1197,597.347,2.66975
1206,600.387,2.63785
1215,603.427,2.60074
1224,606.468,2.55819
1233,609.509,2.50986
1242,612.536,2.45397
1251,615.568,2.39041
1260,618.582,2.31762
1269,621.597,2.2362
1278,624.613,2.14565
1287,627.614,2.04458
1296,630.631,1.93464
1305,633.618,1.81643
1314,636.616,1.68995
1323,639.624,1.55602
1332,642.624,1.41831
1341,645.627,1.27572
1350,648.622,1.13321
1359,651.638,0.993143
1368,654.658,0.856216
1377,657.666,0.725864
1386,660.685,0.604803
1395,663.706,0.495308
1404,666.738,0.398551
1413,669.771,0.314812
1422,672.816,0.244446
1431,675.847,0.186285
1440,678.874,0.139461
1449,681.897,0.103084
1458,684.91,0.075509
1467,687.926,0.0545276
1476,690.924,0.0395259
1485,693.931,0.0284694
1494,696.929,0.0206332
1503,699.924,0.0153035
1512,702.917,0.0113408
1521,705.906,0.00869795
1530,708.902,0.00705283
1539,711.883,0.00583446
1548,714.876,0.00478235
1557,717.857,0.00442166
1566,720.846,0.00385154
1575,723.834,0.00385791
1584,726.809,0.00358374
1593,729.803,0.00346833
1602,732.785,0.00340886
1611,735.771,0.00338472
1620,738.757,0.00327732
1629,741.745,0.00346873
1638,744.731,0.00309137
1647,747.709,0.00296122
1656,750.695,0.00300882
1665,753.683,0.00282321
1674,756.661,0.00301586
1683,759.644,0.00309854
1692,762.628,0.0029258
1701,765.608,0.00265202
1710,768.602,0.00275389
1719,771.589,0.00255017
1728,774.569,0.00247116
1737,777.553,0.00250617
1746,780.46,0.00232959
1755,782.851,0.00259152
1764,784.799,0.00186844
1773,786.399,0.00192914
1782,787.758,0.00218024
1791,788.902,0.00197706
1800,789.878,0.00176193
1809,790.746,0.00196044
1818,791.465,0.00183092
1827,792.081,0.00194489
1836,792.614,0.00171714
1845,793.073,0.00195576
1854,793.461,0.00176093
1863,793.788,0.00151584
1872,794.075,0.00103983
1881,794.321,0.00125973
1890,794.532,0.0017344
1899,794.712,0.00196995
1908,794.863,0.001841
1917,794.998,0.00180861
1926,795.108,0.0010403
1935,795.206,0.00118041
1944,795.278,0.00119422
1953,795.36,0.00138489
1962,795.41,0.00100141
1971,795.473,0.000613438
1980,795.516,0.000655147
1989,795.553,0.00126014
1998,795.582,0.000394344
2007,795.61,0.000772443
2016,795.633,0.000541833
2025,795.651,0.000416052
2034,795.667,0.000652845
2043,795.677,0.000683187
2052,795.694,0.00081133
2061,795.699,0.000878535
2070,795.708,0.00042216
2079,795.72,0.000978946
2082,795.715,0.000995373