Folder: matl-db/PMMA/Calibration_Data/LCPP

Note: PMMA/Calibration_Data/LCPP/README.md
# Laboratoire Central de la Préfecture de Police (LCPP)

### Experimental Conditions, TGA
Four repeats were performed but only the best three were selected. 
Pleae note: TGA Measurements received from LCPP from tests conducted at 10 and 20 K/min appear to be identical. LCPP has been contacted in an effort to resolve this issue: when possible, the offending dataset will be edited accordingly.

* Heating Rate: 2.5, 5, 10, or 20 K/min
* Temperature program
  - Initial Temperature: 300 K
  - Initial Isotherm: 300 s
  - Maximum Temperature: 800 K
  - Final Isotherm: 300 s
* Sample mass: ~4 mg
* Sample geometry: powdered
* Calibration type: A full calibration is performed every two years. Last calibration carried out in December 2017 using onset temperatures of Indium and Aluminium and verification of calibration on CaCO3. Periodical verification of the equipment: every 6 months or before any extensive use of the equipment.
* Crucible
  - Type: Alumina
  - Volume: 70 µL
  - Diameter: None
  - Mass: ~170 mg
  - Lid: None
  - Note: None
* Carrier Gas
  - Type: Nitrogen
  - Flow rate: 80 ml/min
  - Note: None
* Instrument
  - Type: None [?]
  - Note: None
 
| Test Name | Heating Rate (K/min) |  Initial Sample Mass (mg) | 
| --------- | :----: | :------------------------:|
|LCPP\_STA\_N2\_2.5K\_1 |  2.5  | 3.00723|  
|LCPP\_STA\_N2\_2.5K\_2 |  2.5  | 3.12678|  
|LCPP\_STA\_N2\_2.5K\_3 |  2.5  | 3.18254|  
|LCPP\_STA\_N2\_5K\_1  |  5  | 3.09388|  
|LCPP\_STA\_N2\_5K\_2  |  5  | 3.0349|  
|LCPP\_STA\_N2\_5K\_3  |  5  | 3.06027|  
|LCPP\_STA\_N2\_10K\_1 |  10  | 3.01186|  
|LCPP\_STA\_N2\_10K\_2 |  10  | 2.94796|  
|LCPP\_STA\_N2\_10K\_3 |  10  | 3.15013|  
|LCPP\_STA\_N2\_15K\_1 |  15  | 3.04276|  
|LCPP\_STA\_N2\_15K\_2 |  15  | 3.12389|  
|LCPP\_STA\_N2\_15K\_3 |  15  | 3.06913|  
|LCPP\_STA\_N2\_20K\_1 |  20  | 3.01186|  
|LCPP\_STA\_N2\_20K\_2 |  20  | 2.94796|  
|LCPP\_STA\_N2\_20K\_3 |  20  | 3.15013|  



### Experimental Conditions, Cone calorimeter
For three out of four samples for each heat flux, no mass information is available. Measurements of temperature and HRR for these 6 samples are however made available for estimation of HRR repeatability. A single thermocouple was used to measure temperature at the center of the sample back surface. Prior to testing, samples were wrapped with aluminum foil. Distance between sample side and the conical heater resistance = 25 mm. 

* Extraction flow rate: 24L/s
* Sample holder dimensions:
    - Square pan: 106mm x 106mm x 25mm [?]
    - Retainer frame: None
    - Retaining grid: None
* Backing Insulation: Monolith substrates (3x, each 12 mm thick) [material type/thermal conductivity / thermophysical properties?]
* Thermocouple location: Central on sample back surface
    
###### Test Heating Conditions  
|Test Name | Heat Flux (kW/m2)| Heater Temperature (K) 
|----------|:------:| :---: |
|LCPP\_Cone\_25kW\_1 | 25| 310?  |
|LCPP\_Cone\_25kW\_2 

File: LCPP_Cone_25kW_1.csv
Time,Mass,HRR,Back Surface Temperature
[s],[g],[kW/m2],[K]
0,67.0167,0.656419,303.994
2,67.0167,,304.026
4,67.0167,,304.071
6,67.0167,,304.172
8,67.0167,,304.402
10,67.0167,5.37361,304.769
12,67.0167,,305.15
14,67.0167,,305.69
16,67.0167,,306.415
18,66.7375,,307.25
20,66.73908,8.84904,308.18
22,66.5129,,309.337
24,66.4177,,310.547
26,66.4199,,311.903
28,66.41345,,313.249
30,66.49,3.35835,314.873
32,66.5895,,316.429
34,66.6085,,318.134
36,66.6103,,319.866
38,66.6043,,321.799
40,66.6256,7.2456,323.694
42,66.5292,,325.503
44,66.511,,327.572
46,66.4209,,329.609
48,66.3215,,331.487
50,66.21358,5.94629,333.682
52,66.1979,,335.635
54,66.1897,,337.761
56,66.1211,,339.779
58,66.1303,,341.98
60,66.1953,4.66858,344.11
62,66.3059,,346.102
64,66.40127,,348.35
66,66.3052,,350.542
68,66.4048,,352.464
70,66.4232,1.72363,354.638
72,66.4207,,356.667
74,66.4807,,358.762
76,66.58734,,360.708
78,66.5111,,362.842
80,66.4902,1.2353,364.926
82,66.4191,,366.719
84,66.3414,,368.72
86,66.3055,,370.646
88,66.1345,,372.253
90,65.9081,6.52718,373.842
92,65.8294,,375.323
94,65.72417,,376.721
96,65.7096,,377.708
98,65.6911,,378.772
100,65.6866,2.62081,379.995
102,65.6889,,381.388
104,65.6121,,382.682
106,65.7071,,384.11
108,65.5949,,385.589
110,65.5765,-1.17911,387.172
112,65.5318,,389.028
114,65.5277,,391.388
116,65.5888,,393.655
118,65.5914,,396.16
120,65.5148,188.064,398.503
122,65.5224,,400.669
124,65.4248,,402.987
126,65.3136,,405.246
128,65.2968,,407.223
130,65.0013,346.007,409.308
132,64.7389,,411.225
134,64.0776,,413.264
136,64.1081,,415.127
138,63.6675,,417.081
140,62.6837,374.931,419.037
142,62.4213,,420.823
144,62.2339,,422.7
146,61.9456,,424.665
148,61.7285,,426.392
150,61.43635,400.049,428.307
152,61.1468,,430.072
154,60.74045,,432.001
156,60.1639,,433.759
158,59.2845,,435.728
160,59.12555,412.376,437.499
162,58.83299,,439.382
164,58.626,,441.128
166,58.4668,,443.055
168,58.3078,,444.766
170,58.0265,420.182,446.249
172,57.7142,,447.962
174,57.1699,,449.817
176,56.8331,,451.504
178,56.643,,453.069
180,56.0213,424.391,454.392
182,55.8125,,456.022
184,55.2861,,457.697
186,54.9367,,459.317
188,54.6394,,461.084
190,54.1312,421.225,462.916
192,53.9027,,464.694
194,53.63328,,466.597
196,53.4248,,468.363
198,53.032,,470.285
200,52.2982,444.141,472.134
202,52.0558,,474.195
204,51.8269,,476.304
206,51.2679,,478.294
208,51.1217,,480.169
210,50.9253,434.319,482.242
212,50.6329,,484.209
214,50.35421,,486.337
216,49.8222,,488.242
218,49.2654,,490.347
220,48.8089,455.737,492.498
222,48.433,,494.507
224,48.06549,,496.441
226,47.7391,,498.561
228,47.4352,,500.679
230,46.6612,476.815,502.713
232,46.4114,,504.788
234,46.20959,,506.873
236,45.6663,,508.908
238,45.4383,,511.04
240,44.9427,500.341,513.019
242,44.7247,,515.08
244,44.4381,,517.139
246,43.9315,,518.961
248,43.12089,,520.845
250,42.5236,506.763,522.587
252,42.0735,,524.389
254,41.5353,,526.166
256,41.3455,,527.851
258,41.2054,,529.65
260,40.8675,542.091,531.326
262,40.2652,,533.191
264,39.9276,,534.91
266,39.2089,,536.762
268,38.7772,,538.447
270,38.24562,553.089,540.277
272,37.94727,,542.186
274,37.2939,,543.953
276,36.8126,,545.923
278,36.53194,,547.893
280,36.34,557.556,549.733
282,35.8536,,551.774
284,35.244,,553.668
286,34.84746,,555.741
288,34.1148,,557.701
290,33.8497,585.771,559.846
292,33.1112,,561.971
294,32.8403,,563.967
296,32.46515,,566.264
298,31.4546,,568.619
300,31.246,575.364,570.8
302,30.9673,,573.212
304,30.2768,,575.656
306,29.743,,578.055
308,29.4414,,580.463
310,28.7586,569.141,582.862
312,28.1019,,585.057
314,27.7463,,586.998
316,26.9514,,589.3
318,26.8421,,591.89
320,26.5455,587.324,594.014
322,25.6144,,596.316
324,25.299,,598.605
326,25.034,,600.629
328,24.3319,,602.656
330,24.0166,631.528,604.532
332,23.6401,,606.289
334,23.241,,608.176
336,22.6419,,610.169
338,22.3445,,612.095
340,21.9023,623.52,613.857
342,21.10031,,615.728
344,20.4534,,617.809
346,20.0318,,619.976
348,19.6397,,621.965
350,18.7483,622.236,624.411
352,18.4186,,627.106
354,17.9418,,629.781
356,17.2512,,632.769
358,16.8343,,635.589
360,16.024,637.507,639.002
362,15.7418,,643.173
364,15.0806,,648.478
366,14.4459,,660.703
368,14.1413,,676.471
370,13.8436,638.132,710.32
372,12.96572,,791.645
374,12.2627,,874.809
376,11.9526,,866.964
378,11.4401,,834.399
380,10.6211,632.087,802.062
382,10.3234,,777.51
384,9.687494,,757.723
386,9.247477,,739.618
388,8.928766,,724.442
390,8.45463,601.449,712.356
392,7.906993,,703.225
394,7.442437,,696.448
396,7.027841,,689.772
398,6.541319,,683.262
400,5.989858,527.595,676.318
402,5.822392,,670.202
404,5.536255,,662.484
406,4.881277,,652.143
408,4.628611,,641.039
410,4.324025,509.099,632.771
412,3.933483,,625.176
414,3.327718,,617.467
416,3.118138,,611.354
418,2.559235,,605.821
420,2.417202,338.528,600.898
422,2.15235,,596.371
424,1.914354,,592.587
426,1.602386,,589.094
428,1.488551,,586.139
430,1.313934,147.636,583.312
432,1.184205,,581.526
434,1.019422,,580.271
436,0.986698,,578.432
438,0.898043,,576.964
440,0.816668,47.0534,575.027
442,0.817798,,573.075
444,0.705545,,571.797
446,0.526075,,570.903
448,0.5893,,570.655
450,0.705664,7.72439,570.535
452,0.879692,,570.047
454,0.815673,,570.251
456,0.7094,,570.269
458,0.703805,,570.682
460,0.609664,6.40898,570.921
462,0.593386,,571.011
464,0.696722,,570.755
466,0.706456,,570.726
468,0.816846,,570.206
470,0.815876,2.67599,569.379
472,0.709364,,568.192
474,0.592121,,567.231
476,0.589752,,566.157
478,0.610361,,565.505
480,0.707208,-0.831879,566.139
482,0.70181,,567.3
484,0.592513,,567.17
486,0.683048,,567.427
488,0.592122,,567.578
490,0.612483,-0.893132,567.727
492,0.589877,,568.138
494,0.526877,,568.035
496,0.516136,,567.628
498,0.437463,,568.18
500,0.409746,0.480228,568.521

File: LCPP_Cone_25kW_3.csv
Time,Mass,HRR,Back Surface Temperature 1
[s],[g],[kW/m2],[K]
0,0,3.64157,303.076
2,0,,303.075
4,0,,303.099
6,0,,303.136
8,0,,303.202
10,0,4.80093,303.239
12,0,,303.293
14,0,,303.402
16,0,,303.519
18,0,,303.659
20,0,1.92557,303.843
22,0,,304.119
24,0,,304.318
26,0,,304.863
28,0,,305.436
30,0,0.754063,306.008
32,0,,306.791
34,0,,307.617
36,0,,308.569
38,0,,309.659
40,0,-0.454148,310.676
42,0,,312.017
44,0,,313.373
46,0,,314.673
48,0,,316.231
50,0,-2.01552,317.629
52,0,,319.326
54,0,,320.903
56,0,,322.594
58,0,,324.301
60,0,-2.79977,326
62,0,,327.734
64,0,,329.747
66,0,,331.586
68,0,,333.163
70,0,3.06698,335.105
72,0,,337.112
74,0,,338.828
76,0,,340.806
78,0,,342.894
80,0,8.94567,344.557
82,0,,346.631
84,0,,348.27
86,0,,350.325
88,0,,352.14
90,0,3.05757,354.15
92,0,,355.962
94,0,,358.047
96,0,,359.837
98,0,,361.79
100,0,48.3763,363.459
102,0,,365.442
104,0,,367.192
106,0,,369.137
108,0,,370.92
110,0,257.866,372.818
112,0,,374.551
114,0,,376.383
116,0,,378.131
118,0,,379.767
120,0,339.331,381.235
122,0,,382.803
124,0,,384.081
126,0,,385.713
128,0,,387.2
130,0,383.847,388.872
132,0,,390.599
134,0,,392.648
136,0,,394.794
138,0,,396.954
140,0,393.327,398.92
142,0,,401.123
144,0,,403.075
146,0,,405.044
148,0,,407.143
150,0,395.527,409.225
152,0,,411.27
154,0,,413.129
156,0,,414.976
158,0,,416.901
160,0,395.869,418.773
162,0,,420.477
164,0,,422.324
166,0,,424.155
168,0,,425.838
170,0,420.574,427.621
172,0,,429.179
174,0,,430.898
176,0,,432.584
178,0,,433.803
180,0,421.124,434.9
182,0,,435.842
184,0,,436.923
186,0,,438.178
188,0,,439.326
190,0,425.979,440.632
192,0,,441.874
194,0,,443.336
196,0,,444.631
198,0,,446.053
200,0,427.053,447.141
202,0,,448.211
204,0,,449.412
206,0,,450.467
208,0,,451.614
210,0,437.053,452.934
212,0,,454.248
214,0,,455.612
216,0,,456.954
218,0,,458.479
220,0,447.042,460.119
222,0,,461.73
224,0,,463.541
226,0,,465.32
228,0,,467.038
230,0,452.608,468.998
232,0,,470.957
234,0,,472.895
236,0,,475.001
238,0,,476.957
240,0,481.448,479.062
242,0,,480.954
244,0,,483.149
246,0,,485.259
248,0,,487.286
250,0,505.475,489.431
252,0,,491.502
254,0,,493.796
256,0,,495.791
258,0,,497.948
260,0,495.777,499.997
262,0,,502.251
264,0,,504.42
266,0,,506.364
268,0,,508.473
270,0,522.944,510.355
272,0,,512.286
274,0,,514.185
276,0,,515.959
278,0,,517.84
280,0,527.452,519.674
282,0,,521.325
284,0,,523.177
286,0,,525.052
288,0,,526.739
290,0,563.802,528.546
292,0,,530.217
294,0,,532.063
296,0,,533.738
298,0,,535.499
300,0,565.404,537.283
302,0,,538.968
304,0,,540.646
306,0,,542.427
308,0,,544.259
310,0,577.81,545.92
312,0,,547.777
314,0,,549.639
316,0,,551.342
318,0,,553.248
320,0,570.687,555.05
322,0,,556.992
324,0,,558.865
326,0,,560.643
328,0,,562.596
330,0,592.175,564.411
332,0,,566.373
334,0,,568.331
336,0,,570.161
338,0,,572.159
340,0,593.316,573.983
342,0,,575.947
344,0,,577.704
346,0,,579.764
348,0,,581.661
350,0,620.096,583.614
352,0,,585.594
354,0,,587.77
356,0,,589.777
358,0,,591.861
360,0,643.666,594.093
362,0,,596.272
364,0,,598.589
366,0,,601.265
368,0,,603.708
370,0,638.614,606.533
372,0,,609.408
374,0,,612.522
376,0,,615.598
378,0,,619.188
380,0,642.986,622.776
382,0,,627.194
384,0,,632.164
386,0,,638.439
388,0,,646.005
390,0,617.523,656.749
392,0,,672.301
394,0,,690.82
396,0,,711.389
398,0,,738.037
400,0,600.89,779.173
402,0,,821.969
404,0,,853.756
406,0,,899.641
408,0,,933.232
410,0,553.086,965.294
412,0,,994.755
414,0,,1002.336
416,0,,1033.893
418,0,,1042.728
420,0,499.074,1061.95
422,0,,1086.582
424,0,,1104.112
426,0,,1110.266
428,0,,1125.372
430,0,466.813,1133.742
432,0,,1112.226
434,0,,1023.838
436,0,,953.786
438,0,,840.266
440,0,361.756,776.653
442,0,,720.574
444,0,,677.549
446,0,,636.921
448,0,,601.977
450,0,190.047,573.351
452,0,,546.087
454,0,,524.349
456,0,,503.304
458,0,,484.671
460,0,78.4325,465.211
462,0,,448.462
464,0,,434.866
466,0,,421.665
468,0,,410.062
470,0,10.8981,400.552
472,0,,391.157
474,0,,383.362
476,0,,375.778
478,0,,369.411
480,0,2.83274,363.192
482,0,,357.992
484,0,,352.892
486,0,,348.26
488,0,,344.269
490,0,1.57643,340.34
492,0,,336.924
494,0,,333.972
496,0,,331.04
498,0,,328.57
500,0,3.60057,326.218

File: LCPP_Cone_25kW_4.csv
Time,Mass,HRR,Back Surface Temperature 1
[s],[g],[kW/m2],[K]
0,0,-0.127446,303.042
2,0,,303.103
4,0,,303.146
6,0,,303.205
8,0,,303.326
10,0,0.497068,303.381
12,0,,303.469
14,0,,303.578
16,0,,303.729
18,0,,303.843
20,0,6.27812,304.046
22,0,,304.339
24,0,,304.654
26,0,,305.036
28,0,,305.55
30,0,6.65474,306.149
32,0,,306.817
34,0,,307.619
36,0,,308.435
38,0,,309.398
40,0,1.42918,310.389
42,0,,311.559
44,0,,312.634
46,0,,314.04
48,0,,315.42
50,0,1.93191,316.846
52,0,,318.155
54,0,,319.607
56,0,,321.158
58,0,,322.755
60,0,6.23119,324.39
62,0,,326.071
64,0,,327.694
66,0,,329.405
68,0,,331.073
70,0,4.54321,332.816
72,0,,334.655
74,0,,336.313
76,0,,338.175
78,0,,339.835
80,0,2.50805,341.718
82,0,,343.402
84,0,,345.274
86,0,,347.045
88,0,,348.726
90,0,9.84678,350.511
92,0,,352.203
94,0,,354.023
96,0,,355.935
98,0,,357.419
100,0,8.40506,359.169
102,0,,360.893
104,0,,362.506
106,0,,364.205
108,0,,365.824
110,0,16.3507,367.381
112,0,,368.916
114,0,,370.692
116,0,,371.943
118,0,,373.274
120,0,235.002,374.537
122,0,,375.667
124,0,,376.303
126,0,,376.553
128,0,,376.558
130,0,368.958,376.43
132,0,,376.777
134,0,,377.463
136,0,,378.579
138,0,,379.898
140,0,390.591,381.937
142,0,,384.671
144,0,,387.786
146,0,,390.46
148,0,,393.302
150,0,402.514,395.736
152,0,,398.011
154,0,,400.299
156,0,,402.51
158,0,,404.441
160,0,404.927,406.512
162,0,,408.28
164,0,,410.298
166,0,,411.932
168,0,,413.48
170,0,407.521,414.877
172,0,,415.007
174,0,,414.488
176,0,,414.357
178,0,,414.602
180,0,416.952,415.093
182,0,,415.853
184,0,,416.897
186,0,,418.06
188,0,,419.334
190,0,432.038,420.736
192,0,,422.199
194,0,,423.6
196,0,,425.217
198,0,,426.643
200,0,423.025,428.273
202,0,,429.881
204,0,,431.543
206,0,,433.068
208,0,,434.738
210,0,446.061,436.524
212,0,,438.161
214,0,,439.877
216,0,,441.612
218,0,,443.332
220,0,447.771,445.135
222,0,,446.687
224,0,,448.482
226,0,,450.197
228,0,,452.003
230,0,444.835,453.797
232,0,,455.53
234,0,,457.383
236,0,,459.279
238,0,,460.894
240,0,449.834,462.667
242,0,,464.385
244,0,,466.077
246,0,,467.92
248,0,,469.673
250,0,478.672,471.184
252,0,,473.028
254,0,,474.75
256,0,,476.496
258,0,,478.01
260,0,502.408,479.788
262,0,,481.354
264,0,,482.928
266,0,,484.476
268,0,,486.216
270,0,533.966,487.632
272,0,,489.256
274,0,,490.917
276,0,,492.389
278,0,,493.885
280,0,525.407,495.439
282,0,,496.944
284,0,,498.394
286,0,,499.971
288,0,,501.533
290,0,532.087,503.031
292,0,,504.68
294,0,,506.392
296,0,,508.059
298,0,,509.685
300,0,548.614,511.308
302,0,,512.916
304,0,,514.516
306,0,,516.267
308,0,,518.022
310,0,562.138,519.514
312,0,,520.983
314,0,,522.324
316,0,,523.644
318,0,,525.881
320,0,550.733,529.378
322,0,,534.094
324,0,,539.018
326,0,,546.004
328,0,,552.911
330,0,571.1,558.673
332,0,,564.302
334,0,,569.315
336,0,,573.291
338,0,,577.228
340,0,563.534,580.513
342,0,,583.745
344,0,,586.387
346,0,,589.016
348,0,,591.35
350,0,555.323,593.586
352,0,,595.601
354,0,,597.661
356,0,,599.961
358,0,,602.044
360,0,582.266,603.998
362,0,,606.239
364,0,,608.574
366,0,,613.872
368,0,,619.085
370,0,596.104,623.35
372,0,,627.712
374,0,,632.059
376,0,,636.719
378,0,,642.515
380,0,626.98,648.883
382,0,,657.759
384,0,,670.833
386,0,,688.516
388,0,,703.05
390,0,594.777,718.068
392,0,,748.253
394,0,,797.304
396,0,,841.143
398,0,,868.509
400,0,603.688,889.406
402,0,,905.557
404,0,,917.808
406,0,,927.309
408,0,,935.356
410,0,620.127,942.81
412,0,,951.533
414,0,,962.268
416,0,,960.096
418,0,,917.67
420,0,596.013,876.541
422,0,,839.658
424,0,,814.032
426,0,,791.954
428,0,,774.754
430,0,567.21,761.578
432,0,,749.855
434,0,,740.742
436,0,,731.318
438,0,,722.589
440,0,497.319,714.605
442,0,,707.252
444,0,,701.756
446,0,,696.432
448,0,,684.676
450,0,376.682,638.373
452,0,,589.987
454,0,,555.637
456,0,,527.95
458,0,,506.445
460,0,288.471,488.25
462,0,,474.685
464,0,,461.93
466,0,,450.912
468,0,,440.205
470,0,206.761,430.503
472,0,,421.659
474,0,,414.027
476,0,,406.312
478,0,,399.761
480,0,127.039,393.168
482,0,,387.451
484,0,,381.783
486,0,,376.64
488,0,,372.259
490,0,34.1878,367.823
492,0,,363.666
494,0,,360.078
496,0,,356.413
498,0,,353.244
500,0,13.3853,350.04

File: LCPP_Cone_65kW_1.csv
Time,Mass,HRR,Back Surface Temperature
[s],[g],[kW/m2],[K]
0,72.4584,-0.142574,305.18
1,72.4584,,305.182
2,72.4584,,305.15
3,72.4584,,305.174
4,72.4584,,305.149
5,72.4584,-0.0200449,305.139
6,72.4584,,305.111
7,72.4584,,305.055
8,72.4584,,305.055
9,72.4584,,305.026
10,72.4584,1.33322,305.044
11,72.4584,,305.075
12,72.4584,,305.071
13,72.4584,,305.149
14,72.4584,,305.196
15,72.4584,4.22594,305.257
16,72.4584,,305.372
17,72.4584,,305.439
18,72.2183,,305.609
19,72.1613,,305.763
20,72.2554,8.47821,305.912
21,72.0363,,306.188
22,72.0397,,306.39
23,72.053,,306.67
24,72.0529,,307.007
25,72.0582,5.44824,307.38
26,71.90413,,307.812
27,71.8712,,308.262
28,71.8669,,308.716
29,71.8721,,309.388
30,71.8725,95.226,309.956
31,71.7811,,310.604
32,71.695,,311.448
33,71.7259,,312.164
34,71.6001,,313.141
35,71.4803,416.165,313.958
36,71.3067,,314.853
37,71.0868,,315.826
38,70.4882,,316.94
39,70.43063,,318.004
40,70.3905,602.693,319.054
41,70.1952,,320.333
42,69.6191,,321.47
43,69.3098,,322.584
44,69.1764,,323.788
45,69.0005,700.725,325.193
46,68.7253,,326.415
47,68.428,,327.714
48,68.2183,,329.181
49,67.9984,,330.521
50,67.8082,700.099,331.854
51,67.4439,,333.413
52,66.4885,,334.813
53,66.10279,,336.16
54,66.0523,,337.813
55,66.0604,778.077,339.24
56,65.8178,,340.64
57,65.4322,,342.341
58,64.4833,,343.774
59,64.16842,,345.227
60,64.1625,809.773,346.712
61,64.10395,,348.39
62,63.9067,,349.896
63,63.0509,,351.401
64,62.6575,,352.862
65,62.57447,785.669,354.627
66,62.4165,,356.067
67,62.1378,,357.567
68,61.4087,,359.06
69,61.0115,,360.775
70,60.8941,784.415,362.268
71,60.70513,,363.708
72,60.4223,,365.419
73,59.7336,,366.884
74,59.5862,,368.275
75,59.3999,785.061,369.759
76,59.20269,,371.366
77,58.267,,372.75
78,57.8172,,374.125
79,57.763,,375.636
80,57.7024,825.731,376.998
81,57.4455,,378.247
82,56.7215,,379.702
83,56.1674,,381.058
84,55.9862,,382.357
85,55.8713,777.275,384.073
86,55.7054,,385.551
87,55.2805,,387.067
88,55.0076,,388.971
89,54.7213,,390.477
90,53.8421,763.008,392.101
91,53.6494,,393.657
92,53.6502,,395.416
93,53.41343,,397.031
94,53.1206,,398.779
95,52.6717,818.192,400.368
96,52.4866,,401.934
97,52.2194,,403.701
98,51.3438,,405.089
99,50.7731,,406.839
100,50.4992,802.965,408.425
101,50.3091,,410.029
102,50.1816,,411.78
103,50.09845,,413.431
104,49.7475,,415.239
105,49.3122,807.161,416.834
106,48.44795,,418.464
107,48.2047,,419.954
108,47.76614,,421.892
109,47.27063,,423.398
110,47.0193,793.144,425.004
111,46.9565,,426.913
112,46.7995,,428.43
113,46.2855,,430.142
114,45.4485,,431.695
115,45.3774,873.881,433.2
116,45.215,,435.16
117,44.9277,,436.63
118,44.054,,438.269
119,43.8047,,440.253
120,43.706,841.88,441.836
121,43.3523,,443.598
122,43.1266,,445.534
123,42.7524,,447.248
124,42.0986,,449.072
125,41.4821,872.715,450.911
126,41.2209,,452.69
127,41.0134,,454.33
128,40.8241,,456.224
129,40.5397,,457.976
130,39.8132,813.482,459.645
131,39.5886,,461.378
132,39.3986,,463.529
133,38.88593,,465.229
134,38.0421,,467.143
135,37.5379,936.535,469.268
136,37.3047,,471.1
137,37.1834,,473.104
138,36.9227,,474.885
139,36.2435,,477.202
140,35.9152,994.14,479.212
141,35.6584,,481.116
142,35.1811,,483.188
143,34.842,,485.49
144,34.6393,,487.541
145,33.7022,909.81,489.717
146,33.4013,,492.103
147,33.3151,,494.298
148,33.0533,,496.539
149,32.4825,,499.009
150,32.1213,967.224,501.331
151,31.7684,,503.942
152,31.1241,,505.802
153,30.4087,,508.597
154,30.1852,,510.902
155,29.9237,1060.91,513.273
156,29.48065,,516.178
157,29.2382,,518.465
158,28.9627,,521.324
159,27.6576,,523.682
160,27.21775,1206.41,525.983
161,26.85669,,528.759
162,26.444,,531.643
163,26.063,,534.811
164,25.808,,538.104
165,25.0391,1048.8,540.908
166,25.0527,,544.304
167,25.0039,,548.271
168,24.64747,,552.95
169,23.75277,,557.341
170,22.74,1096.28,562.431
171,22.4975,,566.615
172,22.302,,571.319
173,21.6242,,575.279
174,21.3836,,578.986
175,21.027,1073.19,582.591
176,20.5548,,586.617
177,19.7478,,589.972
178,19.4008,,593.337
179,19.1094,,597.086
180,18.322,1066.38,600.368
181,17.6737,,603.703
182,17.47,,607.09
183,17.0583,,611.322
184,16.3278,,615.715
185,15.7551,1227.37,621.188
186,15.3236,,625.069
187,14.7692,,630.45
188,14.4133,,635.32
189,14.1137,,641.957
190,13.72469,1283.11,649.272
191,13.3447,,658.552
192,12.2178,,672.102
193,11.7291,,684.658
194,11.4926,,699.052
195,10.3955,1544.71,719.696
196,9.997005,,743.335
197,9.714595,,773.233
198,8.45366,,809.475
199,8.230699,,871.036
200,7.765949,1814.99,904.286
201,6.775987,,921.779
202,6.37307,,928.145
203,6.105211,,929.172
204,5.662706,,929.166
205,5.091405,1508.76,928.437
206,4.82732,,924.653
207,4.328774,,920.976
208,3.200353,,917.729
209,2.965678,,913.99
210,2.818134,711.763,909.176
211,2.600803,,904.124
212,2.23134,,897.907
213,1.991859,,892.475
214,1.895113,,886.592
215,1.792811,227.274,880.647
216,1.678764,,875.181
217,1.516626,,869.282
218,1.381805,,864.35
219,0.880901,,859.85
220,0.917043,72.0468,854.511
221,1.045385,,850.188
222,0.97636,,846.166
223,0.946098,,841.431
224,0.949671,,837.255
225,0.952311,26.1015,833.894
226,0.893788,,830.336
227,0.69753,,827.579
228,0.745685,,824.62
229,0.856627,,821.467
230,0.877023,11.5004,818.739
231,0.876044,,816.81
232,0.874961,,814.842
233,0.873881,,812.717
234,0.878506,,810.259
235,0.789187,6.02865,808.361
236,1.005321,,806.482
237,1.239773,,804.927
238,1.279152,,803.885
239,1.281277,,802.981
240,1.284081,3.68612,802.293
241,1.284589,,801.698
242,1.348248,,801.122
243,1.299328,,800.389
244,1.344297,,799.398
245,1.358998,2.43745,797.935
246,1.361399,,796.544
247,1.357077,,795.759
248,1.294055,,795.244
249,1.283674,,794.518
250,1.193272,2.57469,793.706