Folder: matl-db/PMMA/Calibration_Data/NIST (part 2)

File: NIST_DSC_N2_10K_2.csv
Time,Temperature,Heat Flow
[s],[K],[mW/mg]
0,303.152,0.0007999447
71.862,306.152,0.13121
91.1388,309.152,0.20658
106.1658,312.152,0.26225
119.5344,315.152,0.3049
132.1722,318.152,0.33662
144.5928,321.152,0.35872
157.0998,324.152,0.37133
169.9542,327.152,0.376
183.3384,330.152,0.37414
197.3748,333.152,0.36753
212.1252,336.152,0.35906
227.5602,339.152,0.35101
243.564,342.152,0.34246
259.9734,345.152,0.33202
276.6126,348.152,0.32304
293.3508,351.152,0.3177
310.1616,354.152,0.31632
327.0192,357.152,0.31652
343.971,360.152,0.31634
361.0524,363.152,0.31605
378.297,366.152,0.31578
395.7348,369.152,0.31519
413.3628,372.152,0.3145
431.1702,375.152,0.31415
449.118,378.152,0.31432
467.1684,381.152,0.31576
485.2776,384.152,0.31846
503.3934,387.152,0.32267
521.4936,390.152,0.32862
539.5512,393.152,0.3367
557.5638,396.152,0.34599
575.5218,399.152,0.35405
593.4576,402.152,0.361
611.3586,405.152,0.36804
629.259,408.152,0.37332
647.1468,411.152,0.37902
665.0484,414.152,0.38423
682.9536,417.152,0.38952
700.8594,420.152,0.39447
718.779,423.152,0.39851
736.7232,426.152,0.40259
754.686,429.152,0.40738
772.6776,432.152,0.41211
790.701,435.152,0.41784
808.7208,438.152,0.42515
826.7406,441.152,0.43375
844.7658,444.152,0.44375
862.7958,447.152,0.45388
880.8342,450.152,0.46376
898.8792,453.152,0.4731
916.9344,456.152,0.48068
934.9794,459.152,0.48559
953.0214,462.152,0.4869
971.0706,465.152,0.48461
989.1318,468.152,0.47995
1007.19,471.152,0.47503
1025.23,474.152,0.47351
1043.262,477.152,0.47527
1061.3,480.152,0.48067
1079.33,483.152,0.48528
1097.36,486.152,0.48783
1115.39,489.152,0.4852
1133.44,492.152,0.47793
1151.502,495.152,0.46868
1169.57,498.152,0.46194
1187.66,501.152,0.45786
1205.76,504.152,0.45645
1223.862,507.152,0.45703
1241.92,510.152,0.45929
1259.982,513.152,0.46122
1278.04,516.152,0.46385
1296.11,519.152,0.46689
1314.17,522.152,0.47072
1332.21,525.152,0.47528
1350.28,528.152,0.47999
1368.34,531.152,0.4855
1386.4,534.152,0.49162
1404.456,537.152,0.49849
1422.49,540.152,0.50613
1440.53,543.152,0.51708
1458.57,546.152,0.5298
1476.61,549.152,0.54287
1494.65,552.152,0.5568
1512.67,555.152,0.57081
1530.72,558.152,0.58438
1548.786,561.152,0.59783
1566.85,564.152,0.61142
1584.888,567.152,0.62465
1602.93,570.152,0.63719
1620.97,573.152,0.64943
1639.005,576.152,0.66298
1657.03,579.152,0.68037
1675.02,582.152,0.70607
1692.99,585.152,0.74012
1710.97,588.152,0.78016
1728.98,591.152,0.8259
1747.05,594.152,0.8782
1765.17,597.152,0.94099
1783.29,600.152,1.01642
1801.43,603.152,1.1067
1819.57,606.152,1.21574
1837.69,609.152,1.3386
1855.812,612.152,1.48177
1873.92,615.152,1.65601
1892.046,618.152,1.83965
1910.18,621.152,2.03829
1928.28,624.152,2.24787
1946.35,627.152,2.45347
1964.37,630.152,2.6436
1982.37,633.152,2.80172
2000.34,636.152,2.89147
2018.24,639.152,2.93146
2036.08,642.152,2.81096
2053.85,645.152,2.81419
2071.66,648.152,2.67465
2089.47,651.152,2.60653
2107.27,654.152,2.40128
2125.1,657.152,2.18427
2142.94,660.152,1.91989
2160.8,663.152,1.64188
2178.71,666.152,1.36378
2196.67,669.152,1.11743
2214.69,672.152,0.91395
2232.78,675.152,0.73355
2250.91,678.152,0.58069
2269.07,681.152,0.46094
2287.24,684.152,0.36989
2305.39,687.152,0.30293
2323.536,690.152,0.25516
2341.66,693.152,0.22062
2359.75,696.152,0.19668
2377.8,699.152,0.18808
2395.77,702.152,0.20746
2413.78,705.152,0.22095
2431.89,708.152,0.20794
2450.03,711.152,0.19032
2468.2,714.152,0.14109
2486.325,717.152,0.12784
2504.36,720.152,0.12541
2522.364,723.152,0.12512
2540.36,726.152,0.12673
2558.35,729.152,0.12803
2576.34,732.152,0.12826
2594.32,735.152,0.12772
2612.32,738.152,0.12786
2630.3,741.152,0.12777
2648.29,744.152,0.12823
2666.274,747.152,0.1279
2684.27,750.152,0.12796
2702.265,753.152,0.12832
2720.26,756.152,0.12949
2738.26,759.152,0.13122
2756.26,762.152,0.1323
2774.25,765.152,0.13331
2792.232,768.152,0.13399
2810.2,771.152,0.13482
2828.17,774.152,0.13567
2846.14,777.152,0.13605
2864.14,780.152,0.13689
2882.14,783.152,0.13784
2900.16,786.152,0.13841
2918.21,789.152,0.13944
2936.24,792.152,0.13972
2954.28,795.152,0.14035
2972.3,798.152,0.14029
2990.31,801.152,0.14033
3008.32,804.152,0.14031
3026.32,807.152,0.14008
3044.3,810.152,0.13824
3062.26,813.152,0.13723
3080.223,816.152,0.13647
3098.22,819.152,0.13582
3116.22,822.152,0.13472
3134.22,825.152,0.13338
3152.25,828.152,0.13215
3170.26,831.152,0.13024
3188.27,834.152,0.1284
3206.28,837.152,0.12592
3224.31,840.152,0.12318
3242.355,843.152,0.12083
3260.4,846.152,0.11767
3278.46,849.152,0.1144
3296.48,852.152,0.11104
3314.5,855.152,0.10757
3332.499,858.152,0.10384
3350.514,861.152,0.09982523
3368.55,864.152,0.09559076
3386.57,867.152,0.09127518
3404.58,870.152,0.07760376
3422.53,873.152,0.07853508
3440.508,876.152,0.07631301
3458.52,879.152,0.07390379
3476.54,882.152,0.07102101
3494.56,885.152,0.06800547
3512.59,888.152,0.06441189
3530.64,891.152,0.06131395
3548.67,894.152,0.05808449
3566.703,897.152,0.05545765
3584.697,900.152,0.05347149
3602.69,903.152,0.05083015
3620.64,906.152,0.04803835
3638.589,909.152,0.04675064
3656.553,912.152,0.04531452
3674.54,915.152,0.04777988
3692.571,918.152,0.04895371
3710.62,921.152,0.04902403
3728.65,924.152,0.0492973
3746.66,927.152,0.04963516
3764.59,930.152,0.04901296
3782.58,933.152,0.04912193
3800.63,936.152,0.05016427
3818.67,939.152,0.05139987
3836.68,942.152,0.05269862
3854.69,945.152,0.05496144
3872.68,948.152,0.0561186
3890.66,951.152,0.05902596
3908.643,954.152,0.06172277
3926.65,957.152,0.06503745
3944.649,960.152,0.06748068
3962.66,963.152,0.07169491
3980.71,966.152,0.07540756
3998.74,969.152,0.07944134
4016.736,972.152,0.08259349
4034.71,975.152,0.08606048
4052.67,978.152,0.08992604
4070.628,981.152,0.09306701
4088.6,984.152,0.09671221
4106.59,987.152,0.10028
4124.6,990.152,0.10414
4142.63,993.152,0.10749
4160.65,996.152,0.1108
4178.69,999.152,0.11481
4196.71,1002.152,0.11725
4214.74,1005.152,0.1234
4232.76,1008.152,0.12694
4250.76,1011.152,0.13052
4268.71,1014.152,0.1335
4286.67,1017.152,0.13756
4304.61,1020.152,0.14141
4322.54,1023.152,0.14416
4340.51,1026.152,0.14709
4358.49,1029.152,0.14972
4376.52,1032.152,0.15107
4394.53,1035.152,0.1528
4412.55,1038.152,0.1527
4430.559,1041.152,0.15148
4448.58,1044.152,0.15124
4466.583,1047.152,0.15049
4484.59,1050.152,0.14783
4502.61,1053.152,0.14423
4520.6,1056.152,0.14119
4538.56,1059.152,0.14035
4556.5,1062.152,0.13703
4574.45,1065.152,0.1367
4592.38,1068.152,0.13573
4610.33,1071.152,0.13509
4616.37,1072.152,0.13448

File: NIST_DSC_N2_10K_3.csv
Time,Temperature,Heat Flow
[s],[K],[mW/mg]
0,303.136,-0.001471111
72.0462,306.136,0.11312
91.3458,309.136,0.18259
106.3824,312.136,0.2372
119.7414,315.136,0.27859
132.3786,318.136,0.30888
144.7752,321.136,0.32853
157.2534,324.136,0.33848
170.0628,327.136,0.33975
183.3894,330.136,0.33441
197.3616,333.136,0.32455
212.0508,336.136,0.31301
227.4492,339.136,0.30197
243.4164,342.136,0.29098
259.8054,345.136,0.27799
276.435,348.136,0.26604
293.1984,351.136,0.25965
310.0056,354.136,0.25697
326.8656,357.136,0.2564
343.7898,360.136,0.2563
360.8358,363.136,0.25654
378.054,366.136,0.25599
395.4672,369.136,0.25463
413.0958,372.136,0.25376
430.9236,375.136,0.2534
448.9104,378.136,0.25324
467.0076,381.136,0.255
485.16,384.136,0.25811
503.3262,387.136,0.26319
521.4498,390.136,0.27068
539.5236,393.136,0.28074
557.5308,396.136,0.29304
575.5002,399.136,0.30359
593.43,402.136,0.31072
611.3394,405.136,0.31586
629.2248,408.136,0.31895
647.1102,411.136,0.32114
664.9932,414.136,0.32317
682.8906,417.136,0.32471
700.8126,420.136,0.32707
718.7304,423.136,0.32967
736.6764,426.136,0.33301
754.635,429.136,0.33648
772.6104,432.136,0.3409
790.6008,435.136,0.34625
808.611,438.136,0.35352
826.6254,441.136,0.36256
844.6422,444.136,0.37246
862.6716,447.136,0.38245
880.7298,450.136,0.39188
898.7976,453.136,0.40027
916.848,456.136,0.40664
934.9062,459.136,0.40996
952.9686,462.136,0.40963
971.0064,465.136,0.40656
989.0328,468.136,0.40119
1007.05,471.136,0.39556
1025.07,474.136,0.39284
1043.09,477.136,0.39331
1061.13,480.136,0.3952
1079.172,483.136,0.39683
1097.22,486.136,0.39516
1115.29,489.136,0.38846
1133.37,492.136,0.37946
1151.46,495.136,0.37153
1169.51,498.136,0.3664
1187.58,501.136,0.36387
1205.68,504.136,0.36274
1223.77,507.136,0.36289
1241.83,510.136,0.36388
1259.9,513.136,0.3653
1277.979,516.136,0.3669
1296.063,519.136,0.36928
1314.135,522.136,0.37191
1332.21,525.136,0.3751
1350.27,528.136,0.37886
1368.333,531.136,0.38292
1386.37,534.136,0.38804
1404.39,537.136,0.39383
1422.43,540.136,0.3994
1440.48,543.136,0.40752
1458.516,546.136,0.41791
1476.55,549.136,0.42853
1494.57,552.136,0.43966
1512.6,555.136,0.45063
1530.65,558.136,0.46148
1548.72,561.136,0.47263
1566.77,564.136,0.48383
1584.81,567.136,0.4939
1602.85,570.136,0.50303
1620.897,573.136,0.51125
1638.94,576.136,0.52016
1656.96,579.136,0.53041
1674.98,582.136,0.54388
1693.01,585.136,0.56183
1711.04,588.136,0.58616
1729.068,591.136,0.61987
1747.09,594.136,0.66389
1765.119,597.136,0.71811
1783.17,600.136,0.78503
1801.242,603.136,0.86676
1819.34,606.136,0.96616
1837.452,609.136,1.08625
1855.58,612.136,1.22799
1873.72,615.136,1.39335
1891.84,618.136,1.57992
1909.98,621.136,1.78448
1928.09,624.136,2.00028
1946.19,627.136,2.21784
1964.26,630.136,2.42174
1982.28,633.136,2.59395
2000.24,636.136,2.70489
2018.14,639.136,2.7164
2035.99,642.136,2.65683
2053.79,645.136,2.61269
2071.62,648.136,2.65376
2089.461,651.136,2.49023
2107.26,654.136,2.34013
2125.08,657.136,2.10894
2142.915,660.136,1.82401
2160.73,663.136,1.54455
2178.59,666.136,1.24947
2196.49,669.136,0.98496
2214.47,672.136,0.75998
2232.53,675.136,0.56562
2250.64,678.136,0.40504
2268.81,681.136,0.27945
2287.03,684.136,0.18615
2305.25,687.136,0.11743
2323.479,690.136,0.06606271
2341.7,693.136,0.02823055
2359.863,696.136,0.000819896
2377.95,699.136,-0.02087996
2396,702.136,-0.03865025
2413.98,705.136,-0.05103413
2431.96,708.136,-0.05785124
2449.87,711.136,-0.04685213
2467.79,714.136,-0.046675
2485.884,717.136,-0.08567742
2503.94,720.136,-0.08399118
2521.99,723.136,-0.08159257
2540.06,726.136,-0.07964419
2558.12,729.136,-0.07843456
2576.166,732.136,-0.07811353
2594.18,735.136,-0.07815949
2612.196,738.136,-0.0779766
2630.187,741.136,-0.07842405
2648.17,744.136,-0.07987428
2666.166,747.136,-0.0811219
2684.18,750.136,-0.08203832
2702.17,753.136,-0.08325365
2720.16,756.136,-0.0841594
2738.154,759.136,-0.08495854
2756.14,762.136,-0.08586192
2774.106,765.136,-0.08672092
2792.08,768.136,-0.08704633
2810.08,771.136,-0.0878043
2828.09,774.136,-0.08869318
2846.11,777.136,-0.08950873
2864.14,780.136,-0.09044902
2882.18,783.136,-0.09162952
2900.22,786.136,-0.09283022
2918.22,789.136,-0.09416075
2936.205,792.136,-0.09505493
2954.17,795.136,-0.09653702
2972.12,798.136,-0.09792643
2990.07,801.136,-0.09869208
3008.06,804.136,-0.09965993
3026.07,807.136,-0.10003
3044.115,810.136,-0.10055
3062.17,813.136,-0.10135
3080.2,816.136,-0.1027
3098.22,819.136,-0.10409
3116.23,822.136,-0.10568
3134.23,825.136,-0.10702
3152.24,828.136,-0.10761
3170.22,831.136,-0.10849
3188.19,834.136,-0.10986
3206.2,837.136,-0.11048
3224.217,840.136,-0.11114
3242.28,843.136,-0.11181
3260.34,846.136,-0.11234
3278.38,849.136,-0.11359
3296.41,852.136,-0.11362
3314.42,855.136,-0.1144
3332.42,858.136,-0.1155
3350.4,861.136,-0.11611
3368.376,864.136,-0.11752
3386.37,867.136,-0.11867
3404.4,870.136,-0.11939
3422.45,873.136,-0.11996
3440.51,876.136,-0.12038
3458.55,879.136,-0.12185
3476.59,882.136,-0.12294
3494.637,885.136,-0.13186
3512.56,888.136,-0.12872
3530.46,891.136,-0.12603
3548.45,894.136,-0.12699
3566.45,897.136,-0.12786
3584.45,900.136,-0.12856
3602.47,903.136,-0.12909
3620.499,906.136,-0.1297
3638.51,909.136,-0.13035
3656.45,912.136,-0.13146
3674.44,915.136,-0.13295
3692.466,918.136,-0.13416
3710.5,921.136,-0.13461
3728.52,924.136,-0.13664
3746.54,927.136,-0.13782
3764.55,930.136,-0.13843
3782.55,933.136,-0.13909
3800.55,936.136,-0.13914
3818.57,939.136,-0.14019
3836.6,942.136,-0.14157
3854.63,945.136,-0.14268
3872.65,948.136,-0.14426
3890.64,951.136,-0.14504
3908.63,954.136,-0.14653
3926.6,957.136,-0.14781
3944.56,960.136,-0.14818
3962.53,963.136,-0.14925
3980.56,966.136,-0.14933
3998.57,969.136,-0.15009
4016.59,972.136,-0.15166
4034.58,975.136,-0.15215
4052.57,978.136,-0.15372
4070.535,981.136,-0.15523
4088.514,984.136,-0.15494
4106.52,987.136,-0.15486
4124.52,990.136,-0.15475
4142.53,993.136,-0.15594
4160.52,996.136,-0.15622
4178.52,999.136,-0.15643
4196.55,1002.136,-0.1571
4214.559,1005.136,-0.15602
4232.57,1008.136,-0.15681
4250.58,1011.136,-0.15859
4268.58,1014.136,-0.15844
4286.58,1017.136,-0.15956
4304.56,1020.136,-0.16143
4322.56,1023.136,-0.16299
4340.56,1026.136,-0.16368
4358.54,1029.136,-0.16544
4376.5,1032.136,-0.16668
4394.45,1035.136,-0.16821
4412.4,1038.136,-0.17089
4430.4,1041.136,-0.17228
4448.37,1044.136,-0.17238
4466.36,1047.136,-0.17481
4484.33,1050.136,-0.17717
4502.34,1053.136,-0.18027
4520.38,1056.136,-0.18333
4538.379,1059.136,-0.18659
4556.391,1062.136,-0.18672
4574.358,1065.136,-0.18928
4592.33,1068.136,-0.19324
4610.28,1071.136,-0.19568
4616.32,1072.136,-0.19629

File: NIST_DSC_N2_10K_4.csv
Time,Temperature,Heat Flow
[s],[K],[mW/mg]
0,301.925,-0.001045311
77.0814,304.925,0.10858
95.8746,307.925,0.18584
110.3316,310.925,0.25253
123.0258,313.925,0.30664
134.8986,316.925,0.34687
146.445,319.925,0.37442
157.9584,322.925,0.38993
169.6932,325.925,0.39475
181.8324,328.925,0.3912
194.5326,331.925,0.3811
207.9216,334.925,0.36672
222.081,337.925,0.3507
237.003,340.925,0.33429
252.6072,343.925,0.31502
268.7598,346.925,0.29484
285.2742,349.925,0.27962
302.0046,352.925,0.27146
318.8772,355.925,0.26749
335.853,358.925,0.26605
352.9254,361.925,0.26581
370.137,364.925,0.266
387.5154,367.925,0.26646
405.1104,370.925,0.2661
422.91,373.925,0.26528
440.8992,376.925,0.265
459.0306,379.925,0.26571
477.2442,382.925,0.26814
495.5046,385.925,0.27182
513.7578,388.925,0.27785
531.9552,391.925,0.28699
550.0848,394.925,0.29868
568.164,397.925,0.31078
586.1658,400.925,0.32022
604.1232,403.925,0.32527
622.0398,406.925,0.32761
639.948,409.925,0.32944
657.8538,412.925,0.33158
675.7476,415.925,0.33392
693.639,418.925,0.3363
711.5376,421.925,0.33879
729.4398,424.925,0.34164
747.3594,427.925,0.34502
765.2958,430.925,0.34912
783.261,433.925,0.35372
801.2556,436.925,0.35988
819.2682,439.925,0.36757
837.309,442.925,0.37689
855.3654,445.925,0.38637
873.426,448.925,0.39309
891.4794,451.925,0.40063
909.5274,454.925,0.40765
927.57,457.925,0.41175
945.597,460.925,0.41277
963.651,463.925,0.41054
981.7098,466.925,0.4055
999.7872,469.925,0.39942
1017.82,472.925,0.39508
1035.85,475.925,0.39343
1053.86,478.925,0.394
1071.888,481.925,0.39351
1089.93,484.925,0.39022
1107.993,487.925,0.38498
1126.05,490.925,0.37906
1144.13,493.925,0.3749
1162.197,496.925,0.37291
1180.27,499.925,0.37261
1198.34,502.925,0.37324
1216.41,505.925,0.37538
1234.49,508.925,0.3777
1252.58,511.925,0.37907
1270.67,514.925,0.38068
1288.75,517.925,0.38293
1306.809,520.925,0.38553
1324.87,523.925,0.38901
1342.95,526.925,0.39281
1361.01,529.925,0.39675
1379.08,532.925,0.40161
1397.14,535.925,0.40651
1415.2,538.925,0.41293
1433.24,541.925,0.41982
1451.283,544.925,0.42796
1469.32,547.925,0.43645
1487.34,550.925,0.44718
1505.37,553.925,0.45851
1523.406,556.925,0.47051
1541.43,559.925,0.48287
1559.47,562.925,0.49498
1577.49,565.925,0.50693
1595.54,568.925,0.51759
1613.59,571.925,0.52797
1631.65,574.925,0.53829
1649.69,577.925,0.55004
1667.709,580.925,0.56426
1685.74,583.925,0.58294
1703.76,586.925,0.60968
1721.784,589.925,0.64538
1739.82,592.925,0.69007
1757.86,595.925,0.74415
1775.92,598.925,0.80823
1794,601.925,0.88507
1812.1,604.925,0.97799
1830.22,607.925,1.08969
1848.33,610.925,1.2222
1866.432,613.925,1.37704
1884.53,616.925,1.55313
1902.64,619.925,1.75049
1920.74,622.925,1.95519
1938.816,625.925,2.16491
1956.89,628.925,2.36392
1974.93,631.925,2.54518
1992.924,634.925,2.68815
2010.879,637.925,2.75644
2028.77,640.925,2.77629
2046.64,643.925,2.71625
2064.51,646.925,2.7215
2082.366,649.925,2.6191
2100.162,652.925,2.4122
2117.92,655.925,2.15328
2135.69,658.925,1.87522
2153.49,661.925,1.5921
2171.34,664.925,1.32527
2189.28,667.925,1.07896
2207.29,670.925,0.86457
2225.36,673.925,0.6717
2243.49,676.925,0.511
2261.66,679.925,0.38312
2279.85,682.925,0.28409
2298.018,685.925,0.20935
2316.2,688.925,0.15205
2334.35,691.925,0.10962
2352.47,694.925,0.07874025
2370.54,697.925,0.05799683
2388.61,700.925,0.04252028
2406.68,703.925,0.03163154
2424.72,706.925,0.02291766
2442.73,709.925,0.01699658
2460.62,712.925,0.0368869
2478.72,715.925,-0.01782858
2496.813,718.925,-0.01298551
2514.87,721.925,-0.009329762
2532.906,724.925,-0.006014509
2550.92,727.925,-0.003851476
2568.91,730.925,-0.003383141
2586.9,733.925,-0.003488919
2604.89,736.925,-0.004013688
2622.89,739.925,-0.004849335
2640.88,742.925,-0.004760941
2658.88,745.925,-0.005226009
2676.88,748.925,-0.004205242
2694.9,751.925,-0.0031197
2712.91,754.925,-0.00390914
2730.93,757.925,-0.005339628
2748.921,760.925,-0.00636321
2766.9,763.925,-0.007354228
2784.89,766.925,-0.007469592
2802.888,769.925,-0.007938892
2820.88,772.925,-0.008636622
2838.89,775.925,-0.007346851
2856.92,778.925,-0.005352173
2874.92,781.925,-0.003817854
2892.91,784.925,-0.004071732
2910.88,787.925,-0.004349616
2928.876,790.925,-0.005015959
2946.86,793.925,-0.005271841
2964.85,796.925,-0.005717471
2982.84,799.925,-0.006025186
3000.84,802.925,-0.00685656
3018.84,805.925,-0.007263149
3036.849,808.925,-0.007327166
3054.87,811.925,-0.007487216
3072.89,814.925,-0.008474004
3090.88,817.925,-0.008728601
3108.88,820.925,-0.008695096
3126.882,823.925,-0.008682828
3144.9,826.925,-0.008539782
3162.91,829.925,-0.008505151
3180.948,832.925,-0.009011708
3198.98,835.925,-0.008580567
3217.017,838.925,-0.008585253
3235.04,841.925,-0.008808446
3253.071,844.925,-0.008568062
3271.12,847.925,-0.008235903
3289.16,850.925,-0.008146728
3307.18,853.925,-0.008331892
3325.18,856.925,-0.008545387
3343.17,859.925,-0.008611954
3361.194,862.925,-0.008921446
3379.22,865.925,-0.009166318
3397.25,868.925,-0.009348507
3415.25,871.925,-0.009560682
3433.27,874.925,-0.009261254
3451.28,877.925,-0.009163681
3469.31,880.925,-0.009218303
3487.323,883.925,-0.009261984
3505.29,886.925,-0.008703469
3523.13,889.925,0.005482463
3541.12,892.925,0.008523636
3559.16,895.925,0.00106851
3577.19,898.925,-0.002269379
3595.21,901.925,-0.002105448
3613.2,904.925,-0.002471329
3631.18,907.925,-0.003086388
3649.15,910.925,-0.002255666
3667.15,913.925,-0.00222627
3685.17,916.925,-0.001995069
3703.22,919.925,-0.001021159
3721.27,922.925,-0.0004296193
3739.302,925.925,-0.0001924159
3757.29,928.925,-0.0001556123
3775.278,931.925,0.0006573316
3793.23,934.925,0.003553163
3811.2,937.925,0.005998261
3829.239,940.925,0.007227331
3847.269,943.925,0.007166257
3865.31,946.925,0.007654586
3883.362,949.925,0.008542538
3901.36,952.925,0.008364921
3919.374,955.925,0.008906022
3937.38,958.925,0.009121242
3955.36,961.925,0.009518556
3973.32,964.925,0.01052703
3991.33,967.925,0.01081797
4009.31,970.925,0.01207277
4027.28,973.925,0.01213565
4045.24,976.925,0.01284235
4063.2,979.925,0.01381399
4081.18,982.925,0.01483907
4099.2,985.925,0.01603442
4117.23,988.925,0.01812085
4135.27,991.925,0.02034525
4153.32,994.925,0.02203057
4171.37,997.925,0.02243957
4189.38,1000.925,0.02334735
4207.36,1003.925,0.02499741
4225.37,1006.925,0.02698151
4243.34,1009.925,0.02875013
4261.31,1012.925,0.02915381
4279.29,1015.925,0.03090447
4297.287,1018.925,0.03204198
4315.25,1021.925,0.03161593
4333.23,1024.925,0.03324262
4351.2,1027.925,0.03426644
4369.18,1030.925,0.03421954
4387.19,1033.925,0.03488681
4405.25,1036.925,0.03473633
4423.25,1039.925,0.03386576
4441.236,1042.925,0.0348686
4459.203,1045.925,0.03551163
4477.17,1048.925,0.03602113
4495.15,1051.925,0.03683452
4513.137,1054.925,0.03836545
4531.11,1057.925,0.03939488
4549.101,1060.925,0.03966091
4567.11,1063.925,0.04067542
4585.083,1066.925,0.04250005
4603.029,1069.925,0.0423502
4615.06,1071.925,0.04142606