Folder: matl-db/PMMA/Calibration_Data/NIST (part 4)

File: NIST_TGA_N2_10K_2.csv
Time,Temperature,Mass
[s],[K],[mg]
0,303.152,5.86703
71.862,306.152,5.86184
91.1388,309.152,5.85701
106.1658,312.152,5.85557
119.5344,315.152,5.85468
132.1722,318.152,5.85412
144.5928,321.152,5.85341
157.0998,324.152,5.855
169.9542,327.152,5.8563
183.3384,330.152,5.85582
197.3748,333.152,5.85676
212.1252,336.152,5.85742
227.5602,339.152,5.8581
243.564,342.152,5.85877
259.9734,345.152,5.8581
276.6126,348.152,5.85874
293.3508,351.152,5.8591
310.1616,354.152,5.86078
327.0192,357.152,5.86066
343.971,360.152,5.85861
361.0524,363.152,5.859
378.297,366.152,5.85959
395.7348,369.152,5.85798
413.3628,372.152,5.8553
431.1702,375.152,5.85664
449.118,378.152,5.8553
467.1684,381.152,5.85598
485.2776,384.152,5.8553
503.3934,387.152,5.85263
521.4936,390.152,5.8523
539.5512,393.152,5.85274
557.5638,396.152,5.85547
575.5218,399.152,5.85488
593.4576,402.152,5.85407
611.3586,405.152,5.85408
629.259,408.152,5.85139
647.1468,411.152,5.8514
665.0484,414.152,5.84872
682.9536,417.152,5.84872
700.8594,420.152,5.84604
718.779,423.152,5.84333
736.7232,426.152,5.84202
754.686,429.152,5.83934
772.6776,432.152,5.8395
790.701,435.152,5.83598
808.7208,438.152,5.83186
826.7406,441.152,5.82993
844.7658,444.152,5.82516
862.7958,447.152,5.82114
880.8342,450.152,5.81578
898.8792,453.152,5.80963
916.9344,456.152,5.80105
934.9794,459.152,5.79422
953.0214,462.152,5.78347
971.0706,465.152,5.77458
989.1318,468.152,5.76555
1007.19,471.152,5.75587
1025.23,474.152,5.74952
1043.262,477.152,5.74076
1061.3,480.152,5.73467
1079.33,483.152,5.72715
1097.36,486.152,5.72048
1115.39,489.152,5.71219
1133.44,492.152,5.7057
1151.502,495.152,5.70343
1169.57,498.152,5.70169
1187.66,501.152,5.69901
1205.76,504.152,5.69767
1223.862,507.152,5.69633
1241.92,510.152,5.69432
1259.982,513.152,5.69332
1278.04,516.152,5.69231
1296.11,519.152,5.69063
1314.17,522.152,5.68796
1332.21,525.152,5.68562
1350.28,528.152,5.68428
1368.34,531.152,5.68126
1386.4,534.152,5.67724
1404.456,537.152,5.6738
1422.49,540.152,5.66919
1440.53,543.152,5.66484
1458.57,546.152,5.65742
1476.61,549.152,5.65011
1494.65,552.152,5.64156
1512.67,555.152,5.63384
1530.72,558.152,5.62271
1548.786,561.152,5.60822
1566.85,564.152,5.59571
1584.888,567.152,5.57993
1602.93,570.152,5.56401
1620.97,573.152,5.54665
1639.005,576.152,5.52506
1657.03,579.152,5.50583
1675.02,582.152,5.48212
1692.99,585.152,5.45628
1710.97,588.152,5.42886
1728.98,591.152,5.39522
1747.05,594.152,5.35897
1765.17,597.152,5.31269
1783.29,600.152,5.25749
1801.43,603.152,5.19661
1819.57,606.152,5.11743
1837.69,609.152,5.02645
1855.812,612.152,4.91549
1873.92,615.152,4.78587
1892.046,618.152,4.63107
1910.18,621.152,4.45612
1928.28,624.152,4.25066
1946.35,627.152,4.02138
1964.37,630.152,3.76886
1982.37,633.152,3.49038
2000.34,636.152,3.19852
2018.24,639.152,2.89327
2036.08,642.152,2.58853
2053.85,645.152,2.28157
2071.66,648.152,1.98609
2089.47,651.152,1.70019
2107.27,654.152,1.42108
2125.1,657.152,1.17034
2142.94,660.152,0.944578
2160.8,663.152,0.752018
2178.71,666.152,0.59095
2196.67,669.152,0.458511
2214.69,672.152,0.351222
2232.78,675.152,0.268817
2250.91,678.152,0.204311
2269.07,681.152,0.157312
2287.24,684.152,0.122215
2305.39,687.152,0.0968912
2323.536,690.152,0.0801535
2341.66,693.152,0.067704
2359.75,696.152,0.05786183
2377.8,699.152,0.0525077
2395.77,702.152,0.0471443
2413.78,705.152,0.044469
2431.89,708.152,0.0424539
2450.03,711.152,0.0421279
2468.2,714.152,0.0417849
2486.325,717.152,0.041103
2504.36,720.152,0.0425225
2522.364,723.152,0.0421279
2540.36,726.152,0.0418435
2558.35,729.152,0.0421279
2576.34,732.152,0.040118
2594.32,735.152,0.041422
2612.32,738.152,0.0421279
2630.3,741.152,0.04245797
2648.29,744.152,0.0441377
2666.274,747.152,0.0414589
2684.27,750.152,0.0424562
2702.265,753.152,0.0411189
2720.26,756.152,0.041456
2738.26,759.152,0.0414577
2756.26,762.152,0.0414736
2774.25,765.152,0.0433192
2792.232,768.152,0.0411177
2810.2,771.152,0.0414472
2828.17,774.152,0.0404481
2846.14,777.152,0.04245797
2864.14,780.152,0.04245797
2882.14,783.152,0.0411177
2900.16,786.152,0.0417878
2918.21,789.152,0.0426444
2936.24,792.152,0.0421179
2954.28,795.152,0.0421156
2972.3,798.152,0.0434582
2990.31,801.152,0.0421179
3008.32,804.152,0.0411183
3026.32,807.152,0.0434582
3044.3,810.152,0.0421179
3062.26,813.152,0.04244683
3080.223,816.152,0.0417796
3098.22,819.152,0.0420241
3116.22,822.152,0.04115228
3134.22,825.152,0.0431181
3152.25,828.152,0.042448
3170.26,831.152,0.042448
3188.27,834.152,0.0431176
3206.28,837.152,0.0431146
3224.31,840.152,0.0431205
3242.355,843.152,0.0431111
3260.4,846.152,0.0414478
3278.46,849.152,0.0431293
3296.48,852.152,0.0427922
3314.5,855.152,0.0429118
3332.499,858.152,0.04100336
3350.514,861.152,0.0423477
3368.55,864.152,0.0430085
3386.57,867.152,0.0428408
3404.58,870.152,0.0430009
3422.53,873.152,0.0443505
3440.508,876.152,0.0430079
3458.52,879.152,0.0430079
3476.54,882.152,0.04469
3494.56,885.152,0.0433544
3512.59,888.152,0.043348
3530.64,891.152,0.0440193
3548.67,894.152,0.0450277
3566.703,897.152,0.043688
3584.697,900.152,0.0436869
3602.69,903.152,0.0438938
3620.64,906.152,0.0436728
3638.589,909.152,0.0426778
3656.553,912.152,0.040284
3674.54,915.152,0.0457008
3692.571,918.152,0.0450277
3710.62,921.152,0.0439888
3728.65,924.152,0.0420077
3746.66,927.152,0.0433996
3764.59,930.152,0.0446167
3782.58,933.152,0.0446871
3800.63,936.152,0.0430179
3818.67,939.152,0.0430179
3836.68,942.152,0.0443412
3854.69,945.152,0.0421742
3872.68,948.152,0.0428484
3890.66,951.152,0.04370034
3908.643,954.152,0.0461053
3926.65,957.152,0.0434676
3944.649,960.152,0.0434682
3962.66,963.152,0.04434996
3980.71,966.152,0.0445012
3998.74,969.152,0.0460344
4016.736,972.152,0.045947
4034.71,975.152,0.04392841
4052.67,978.152,0.0446877
4070.628,981.152,0.0446953
4088.6,984.152,0.0436077
4106.59,987.152,0.0433474
4124.6,990.152,0.0456979
4142.63,993.152,0.04535781
4160.65,996.152,0.0456979
4178.69,999.152,0.0456979
4196.71,1002.152,0.0446877
4214.74,1005.152,0.0447703
4232.76,1008.152,0.0456967
4250.76,1011.152,0.0436816
4268.71,1014.152,0.0450142
4286.67,1017.152,0.0439231
4304.61,1020.152,0.04390789
4322.54,1023.152,0.0435678
4340.51,1026.152,0.0462279
4358.49,1029.152,0.0455736
4376.52,1032.152,0.0490861
4394.53,1035.152,0.04335794
4412.55,1038.152,0.0457717
4430.559,1041.152,0.0463668
4448.58,1044.152,0.0473676
4466.583,1047.152,0.04462728
4484.59,1050.152,0.0473676
4502.61,1053.152,0.0471994
4520.6,1056.152,0.04769656
4538.56,1059.152,0.0476432
4556.5,1062.152,0.0476977
4574.45,1065.152,0.0483679
4592.38,1068.152,0.048379
4610.33,1071.152,0.0507178
4616.37,1072.152,0.0493781

File: NIST_TGA_N2_10K_3.csv
Time,Temperature,Mass
[s],[K],[mg]
0,303.136,6.10978
72.0462,306.136,6.0945
91.3458,309.136,6.09661
106.3824,312.136,6.09687
119.7414,315.136,6.09604
132.3786,318.136,6.09294
144.7752,321.136,6.09374
157.2534,324.136,6.09801
170.0628,327.136,6.09848
183.3894,330.136,6.09818
197.3616,333.136,6.10012
212.0508,336.136,6.10083
227.4492,339.136,6.10118
243.4164,342.136,6.10051
259.8054,345.136,6.09917
276.435,348.136,6.10051
293.1984,351.136,6.09783
310.0056,354.136,6.10051
326.8656,357.136,6.10055
343.7898,360.136,6.09783
360.8358,363.136,6.09749
378.054,366.136,6.09516
395.4672,369.136,6.09772
413.0958,372.136,6.09604
430.9236,375.136,6.09506
448.9104,378.136,6.0937
467.0076,381.136,6.09436
485.16,384.136,6.09271
503.3262,387.136,6.09371
521.4498,390.136,6.09031
539.5236,393.136,6.09315
557.5308,396.136,6.09115
575.5002,399.136,6.09113
593.43,402.136,6.091144
611.3394,405.136,6.08879
629.2248,408.136,6.0872
647.1102,411.136,6.08508
664.9932,414.136,6.08244
682.8906,417.136,6.08209
700.8126,420.136,6.0821
718.7304,423.136,6.07808
736.6764,426.136,6.07674
754.635,429.136,6.0754
772.6104,432.136,6.07138
790.6008,435.136,6.06804
808.611,438.136,6.06803
826.6254,441.136,6.06358
844.6422,444.136,6.05997
862.6716,447.136,6.05195
880.7298,450.136,6.04559
898.7976,453.136,6.03911
916.848,456.136,6.0326
934.9062,459.136,6.02173
952.9686,462.136,6.01284
971.0064,465.136,6.00263
989.0328,468.136,5.99236
1007.05,471.136,5.98326
1025.07,474.136,5.97394
1043.09,477.136,5.96762
1061.13,480.136,5.96134
1079.172,483.136,5.95111
1097.22,486.136,5.94244
1115.29,489.136,5.93849
1133.37,492.136,5.93239
1151.46,495.136,5.93038
1169.51,498.136,5.92671
1187.58,501.136,5.92369
1205.68,504.136,5.92193
1223.77,507.136,5.922
1241.83,510.136,5.919
1259.9,513.136,5.91903
1277.979,516.136,5.91665
1296.063,519.136,5.91263
1314.135,522.136,5.91219
1332.21,525.136,5.91084
1350.27,528.136,5.90817
1368.333,531.136,5.90549
1386.37,534.136,5.9015
1404.39,537.136,5.89744
1422.43,540.136,5.89341
1440.48,543.136,5.88791
1458.516,546.136,5.87858
1476.55,549.136,5.87262
1494.57,552.136,5.86231
1512.6,555.136,5.8538
1530.65,558.136,5.84531
1548.72,561.136,5.83317
1566.77,564.136,5.81587
1584.81,567.136,5.80306
1602.85,570.136,5.78684
1620.897,573.136,5.76878
1638.94,576.136,5.75269
1656.96,579.136,5.73093
1674.98,582.136,5.71007
1693.01,585.136,5.68743
1711.04,588.136,5.6622
1729.068,591.136,5.63199
1747.09,594.136,5.59411
1765.119,597.136,5.5552
1783.17,600.136,5.50806
1801.242,603.136,5.44626
1819.34,606.136,5.3733
1837.452,609.136,5.28414
1855.58,612.136,5.17917
1873.72,615.136,5.05385
1891.84,618.136,4.90217
1909.98,621.136,4.72447
1928.09,624.136,4.52362
1946.19,627.136,4.29433
1964.26,630.136,4.03358
1982.28,633.136,3.74756
2000.24,636.136,3.44432
2018.14,639.136,3.12629
2035.99,642.136,2.80884
2053.79,645.136,2.48936
2071.62,648.136,2.17595
2089.461,651.136,1.86473
2107.26,654.136,1.57001
2125.08,657.136,1.2974
2142.915,660.136,1.0524
2160.73,663.136,0.841267
2178.59,666.136,0.665223
2196.49,669.136,0.5206254
2214.47,672.136,0.403769
2232.53,675.136,0.313692
2250.64,678.136,0.240961
2268.81,681.136,0.190551
2287.03,684.136,0.154498
2305.25,687.136,0.12082
2323.479,690.136,0.102584
2341.7,693.136,0.0881252
2359.863,696.136,0.0753764
2377.95,699.136,0.0660401
2396,702.136,0.0626301
2413.98,705.136,0.056561
2431.96,708.136,0.0531846
2449.87,711.136,0.0545758
2467.79,714.136,0.049216
2485.884,717.136,0.0508822
2503.94,720.136,0.051225
2521.99,723.136,0.0511738
2540.06,726.136,0.0502156
2558.12,729.136,0.0512689
2576.166,732.136,0.0505456
2594.18,735.136,0.05093897
2612.196,738.136,0.0499095
2630.187,741.136,0.0498759
2648.17,744.136,0.0497631
2666.166,747.136,0.0485354
2684.18,750.136,0.0488952
2702.17,753.136,0.049546
2720.16,756.136,0.0484841
2738.154,759.136,0.0502016
2756.14,762.136,0.048536
2774.106,765.136,0.0498759
2792.08,768.136,0.0492117
2810.08,771.136,0.0505462
2828.09,774.136,0.0492563
2846.11,777.136,0.0492062
2864.14,780.136,0.0492062
2882.18,783.136,0.049216
2900.22,786.136,0.0505322
2918.22,789.136,0.0478657
2936.205,792.136,0.0502144
2954.17,795.136,0.04953864
2972.12,798.136,0.0492062
2990.07,801.136,0.0492008
3008.06,804.136,0.0488757
3026.07,807.136,0.0498857
3044.115,810.136,0.0499454
3062.17,813.136,0.0500314
3080.2,816.136,0.0487659
3098.22,819.136,0.0474259
3116.23,822.136,0.0487665
3134.23,825.136,0.0487659
3152.24,828.136,0.0494356
3170.22,831.136,0.0474241
3188.19,834.136,0.0494356
3206.2,837.136,0.0494441
3224.217,840.136,0.0491007
3242.28,843.136,0.0467557
3260.34,846.136,0.0477571
3278.38,849.136,0.0470759
3296.41,852.136,0.0497655
3314.42,855.136,0.0490959
3332.42,858.136,0.0477559
3350.4,861.136,0.0474259
3368.376,864.136,0.0487659
3386.37,867.136,0.0491532
3404.4,870.136,0.0480956
3422.45,873.136,0.0474259
3440.51,876.136,0.0487671
3458.55,879.136,0.0487659
3476.59,882.136,0.0501089
3494.637,885.136,0.0501058
3512.56,888.136,0.0487659
3530.46,891.136,0.0480956
3548.45,894.136,0.0487659
3566.45,897.136,0.046036
3584.45,900.136,0.0447271
3602.47,903.136,0.0474314
3620.499,906.136,0.0501058
3638.51,909.136,0.0497631
3656.45,912.136,0.04837617
3674.44,915.136,0.049768
3692.466,918.136,0.0501058
3710.5,921.136,0.04709599
3728.52,924.136,0.0472643
3746.54,927.136,0.0465117
3764.55,930.136,0.0487677
3782.55,933.136,0.0489037
3800.55,936.136,0.0487525
3818.57,939.136,0.0466294
3836.6,942.136,0.0492191
3854.63,945.136,0.0478657
3872.65,948.136,0.0478657
3890.64,951.136,0.0465257
3908.63,954.136,0.0451858
3926.6,957.136,0.0489141
3944.56,960.136,0.0488757
3962.53,963.136,0.0476577
3980.56,966.136,0.045209
3998.57,969.136,0.0465361
4016.59,972.136,0.0468319
4034.58,975.136,0.044746
4052.57,978.136,0.0485311
4070.535,981.136,0.0486561
4088.514,984.136,0.04831579
4106.52,987.136,0.0486579
4124.52,990.136,0.0486561
4142.53,993.136,0.0473156
4160.52,996.136,0.0483255
4178.52,999.136,0.0476175
4196.55,1002.136,0.0499961
4214.559,1005.136,0.0476486
4232.57,1008.136,0.0463159
4250.58,1011.136,0.0483286
4268.58,1014.136,0.0469856
4286.58,1017.136,0.04697645
4304.56,1020.136,0.0488373
4322.56,1023.136,0.0486543
4340.56,1026.136,0.0489958
4358.54,1029.136,0.0489958
4376.5,1032.136,0.0489983
4394.45,1035.136,0.047751
4412.4,1038.136,0.0440758
4430.4,1041.136,0.0454133
4448.37,1044.136,0.0480926
4466.36,1047.136,0.0467557
4484.33,1050.136,0.0487519
4502.34,1053.136,0.0447454
4520.38,1056.136,0.0477559
4538.379,1059.136,0.046416
4556.391,1062.136,0.04575726
4574.358,1065.136,0.0467557
4592.33,1068.136,0.0454157
4610.28,1071.136,0.0467557
4616.32,1072.136,0.0481078

File: NIST_TGA_N2_10K_4.csv
Time,Temperature,Mass
[s],[K],[mg]
0,301.925,6.34042
77.0814,304.925,6.33327
95.8746,307.925,6.33812
110.3316,310.925,6.34349
123.0258,313.925,6.34902
134.8986,316.925,6.35312
146.445,319.925,6.35593
157.9584,322.925,6.35808
169.6932,325.925,6.36117
181.8324,328.925,6.36264
194.5326,331.925,6.36264
207.9216,334.925,6.3613
222.081,337.925,6.36164
237.003,340.925,6.3613
252.6072,343.925,6.35895
268.7598,346.925,6.35627
285.2742,349.925,6.35461
302.0046,352.925,6.35426
318.8772,355.925,6.3524
335.853,358.925,6.35091
352.9254,361.925,6.35225
370.137,364.925,6.35225
387.5154,367.925,6.35091
405.1104,370.925,6.3495
422.91,373.925,6.35091
440.8992,376.925,6.34991
459.0306,379.925,6.34821
477.2442,382.925,6.34817
495.5046,385.925,6.3469
513.7578,388.925,6.34824
531.9552,391.925,6.34652
550.0848,394.925,6.34676
568.164,397.925,6.34557
586.1658,400.925,6.34422
604.1232,403.925,6.34422
622.0398,406.925,6.34288
639.948,409.925,6.34152
657.8538,412.925,6.34087
675.7476,415.925,6.33942
693.639,418.925,6.33741
711.5376,421.925,6.33607
729.4398,424.925,6.33425
747.3594,427.925,6.33238
765.2958,430.925,6.32831
783.261,433.925,6.32568
801.2556,436.925,6.32378
819.2682,439.925,6.32
837.309,442.925,6.31485
855.3654,445.925,6.31062
873.426,448.925,6.30603
891.4794,451.925,6.29854
909.5274,454.925,6.28986
927.57,457.925,6.28024
945.597,460.925,6.27098
963.651,463.925,6.26076
981.7098,466.925,6.25154
999.7872,469.925,6.24031
1017.82,472.925,6.23296
1035.85,475.925,6.22467
1053.86,478.925,6.2155
1071.888,481.925,6.20908
1089.93,484.925,6.2021
1107.993,487.925,6.19709
1126.05,490.925,6.19575
1144.13,493.925,6.19039
1162.197,496.925,6.18771
1180.27,499.925,6.18838
1198.34,502.925,6.18704
1216.41,505.925,6.18439
1234.49,508.925,6.18235
1252.58,511.925,6.18235
1270.67,514.925,6.18235
1288.75,517.925,6.17833
1306.809,520.925,6.17732
1324.87,523.925,6.17595
1342.95,526.925,6.17299
1361.01,529.925,6.17092
1379.08,532.925,6.1659
1397.14,535.925,6.16359
1415.2,538.925,6.15824
1433.24,541.925,6.1515
1451.283,544.925,6.1489
1469.32,547.925,6.14055
1487.34,550.925,6.13226
1505.37,553.925,6.12396
1523.406,556.925,6.11211
1541.43,559.925,6.0977
1559.47,562.925,6.08438
1577.49,565.925,6.06958
1595.54,568.925,6.05136
1613.59,571.925,6.03195
1631.65,574.925,6.01314
1649.69,577.925,5.99116
1667.709,580.925,5.96937
1685.74,583.925,5.94285
1703.76,586.925,5.91369
1721.784,589.925,5.88177
1739.82,592.925,5.84477
1757.86,595.925,5.8009
1775.92,598.925,5.74823
1794,601.925,5.68646
1812.1,604.925,5.61055
1830.22,607.925,5.52379
1848.33,610.925,5.41282
1866.432,613.925,5.28791
1884.53,616.925,5.13759
1902.64,619.925,4.96317
1920.74,622.925,4.76003
1938.816,625.925,4.53001
1956.89,628.925,4.27165
1974.93,631.925,3.9877
1992.924,634.925,3.68169
2010.879,637.925,3.35847
2028.77,640.925,3.03016
2046.64,643.925,2.70098
2064.51,646.925,2.36107
2082.366,649.925,2.02643
2100.162,652.925,1.70668
2117.92,655.925,1.41962
2135.69,658.925,1.16104
2153.49,661.925,0.9421
2171.34,664.925,0.752692
2189.28,667.925,0.596633
2207.29,670.925,0.46928
2225.36,673.925,0.368623
2243.49,676.925,0.288838
2261.66,679.925,0.230739
2279.85,682.925,0.18792
2298.018,685.925,0.155695
2316.2,688.925,0.13282
2334.35,691.925,0.117341
2352.47,694.925,0.104419
2370.54,697.925,0.0942886
2388.61,700.925,0.0881699
2406.68,703.925,0.0851619
2424.72,706.925,0.0812538
2442.73,709.925,0.0798122
2460.62,712.925,0.07746292
2478.72,715.925,0.0794999
2496.813,718.925,0.0781147
2514.87,721.925,0.0788038
2532.906,724.925,0.0791091
2550.92,727.925,0.0791034
2568.91,730.925,0.0784707
2586.9,733.925,0.0791427
2604.89,736.925,0.0786885
2622.89,739.925,0.0778031
2640.88,742.925,0.0781331
2658.88,745.925,0.0781331
2676.88,748.925,0.0771329
2694.9,751.925,0.0771982
2712.91,754.925,0.077145
2730.93,757.925,0.0778031
2748.921,760.925,0.0778069
2766.9,763.925,0.07714432
2784.89,766.925,0.0781331
2802.888,769.925,0.0781312
2820.88,772.925,0.0788836
2838.89,775.925,0.0777929
2856.92,778.925,0.0791326
2874.92,781.925,0.0778031
2892.91,784.925,0.0791326
2910.88,787.925,0.0791345
2928.876,790.925,0.0774914
2946.86,793.925,0.0784732
2964.85,796.925,0.0791351
2982.84,799.925,0.0794727
3000.84,802.925,0.0794733
3018.84,805.925,0.0798109
3036.849,808.925,0.0794797
3054.87,811.925,0.0791326
3072.89,814.925,0.0777967
3090.88,817.925,0.0784726
3108.88,820.925,0.0799439
3126.882,823.925,0.081136
3144.9,826.925,0.0798078
3162.91,829.925,0.0790908
3180.948,832.925,0.081796
3198.98,835.925,0.0791427
3217.017,838.925,0.0778031
3235.04,841.925,0.081143
3253.071,844.925,0.0791326
3271.12,847.925,0.0794727
3289.16,850.925,0.078522
3307.18,853.925,0.07813369
3325.18,856.925,0.0788045
3343.17,859.925,0.0801428
3361.194,862.925,0.0801428
3379.22,865.925,0.0804811
3397.25,868.925,0.0791427
3415.25,871.925,0.0804728
3433.27,874.925,0.080813
3451.28,877.925,0.0790692
3469.31,880.925,0.0797875
3487.323,883.925,0.0794727
3505.29,886.925,0.07847
3523.13,889.925,0.0784586
3541.12,892.925,0.0794727
3559.16,895.925,0.081516
3577.19,898.925,0.080813
3595.21,901.925,0.0798128
3613.2,904.925,0.0778031
3631.18,907.925,0.0798128
3649.15,910.925,0.0784707
3667.15,913.925,0.0794879
3685.17,916.925,0.0794676
3703.22,919.925,0.0781331
3721.27,922.925,0.0778031
3739.302,925.925,0.079144
3757.29,928.925,0.0798128
3775.278,931.925,0.08069516
3793.23,934.925,0.077131
3811.2,937.925,0.0788032
3829.239,940.925,0.0798046
3847.269,943.925,0.0784624
3865.31,946.925,0.0798021
3883.362,949.925,0.0788045
3901.36,952.925,0.0794727
3919.374,955.925,0.0806819
3937.38,958.925,0.0804728
3955.36,961.925,0.0791421
3973.32,964.925,0.0788032
3991.33,967.925,0.0798914
4009.31,970.925,0.0801428
4027.28,973.925,0.0788026
4045.24,976.925,0.0791427
4063.2,979.925,0.0791427
4081.18,982.925,0.0788026
4099.2,985.925,0.0798027
4117.23,988.925,0.0801428
4135.27,991.925,0.0794727
4153.32,994.925,0.0808339
4171.37,997.925,0.0778107
4189.38,1000.925,0.079474
4207.36,1003.925,0.0781331
4225.37,1006.925,0.0781331
4243.34,1009.925,0.0781426
4261.31,1012.925,0.0781166
4279.29,1015.925,0.0781046
4297.287,1018.925,0.0781426
4315.25,1021.925,0.0781432
4333.23,1024.925,0.0784257
4351.2,1027.925,0.0767928
4369.18,1030.925,0.0771228
4387.19,1033.925,0.0777929
4405.25,1036.925,0.0764526
4423.25,1039.925,0.0782129
4441.236,1042.925,0.0777929
4459.203,1045.925,0.07746292
4477.17,1048.925,0.0764526
4495.15,1051.925,0.0777929
4513.137,1054.925,0.0781432
4531.11,1057.925,0.0761226
4549.101,1060.925,0.0753423
4567.11,1063.925,0.07667497
4585.083,1066.925,0.0780228
4603.029,1069.925,0.0780228
4615.06,1071.925,0.0793625