Folder: matl-db/PMMA/Calibration_Data/NIST (part 5)

File: NIST_TGA_N2_10K_5.csv
Time,Temperature,Mass
[s],[K],[mg]
0,303.147,5.56025
72.0282,306.147,5.56078
91.3362,309.147,5.5598
106.3812,312.147,5.55941
119.739,315.147,5.56028
132.369,318.147,5.55989
144.7686,321.147,5.5605
157.254,324.147,5.56159
170.073,327.147,5.56049
183.3948,330.147,5.56161
197.3772,333.147,5.56026
212.0556,336.147,5.56327
227.4396,339.147,5.56193
243.3954,342.147,5.56324
259.7664,345.147,5.55925
276.3972,348.147,5.56059
293.1492,351.147,5.55958
309.9648,354.147,5.56059
326.8332,357.147,5.55925
343.7856,360.147,5.55925
360.8694,363.147,5.55922
378.1206,366.147,5.55875
395.5734,369.147,5.55791
413.2188,372.147,5.55791
431.0346,375.147,5.55768
448.9944,378.147,5.55519
467.0418,381.147,5.55255
485.1852,384.147,5.55344
503.3502,387.147,5.55344
521.481,390.147,5.55115
539.5656,393.147,5.55108
557.5854,396.147,5.54995
575.5728,399.147,5.5501
593.5068,402.147,5.55247
611.4234,405.147,5.55244
629.3214,408.147,5.55255
647.1936,411.147,5.5497
665.0796,414.147,5.54853
682.9824,417.147,5.54853
700.9044,420.147,5.54686
718.8132,423.147,5.54686
736.7508,426.147,5.54318
754.6956,429.147,5.5405
772.6578,432.147,5.53689
790.6542,435.147,5.5348
808.6482,438.147,5.53077
826.6692,441.147,5.52808
844.6968,444.147,5.52391
862.7484,447.147,5.51999
880.8102,450.147,5.51459
898.8666,453.147,5.50918
916.9086,456.147,5.50096
934.9512,459.147,5.49167
952.9878,462.147,5.48194
971.0202,465.147,5.47147
989.0502,468.147,5.46389
1007.09,471.147,5.45711
1025.136,474.147,5.44775
1043.19,477.147,5.43971
1061.24,480.147,5.43293
1079.292,483.147,5.42662
1097.337,486.147,5.41981
1115.4,489.147,5.41278
1133.448,492.147,5.40743
1151.51,495.147,5.40374
1169.556,498.147,5.39972
1187.63,501.147,5.40039
1205.71,504.147,5.39771
1223.81,507.147,5.39771
1241.9,510.147,5.39503
1259.991,513.147,5.39267
1278.08,516.147,5.39369
1296.168,519.147,5.39057
1314.26,522.147,5.38966
1332.321,525.147,5.38729
1350.37,528.147,5.38532
1368.39,531.147,5.3816
1386.41,534.147,5.37895
1404.42,537.147,5.37501
1422.444,540.147,5.36987
1440.48,543.147,5.36422
1458.52,546.147,5.35882
1476.58,549.147,5.35216
1494.65,552.147,5.34413
1512.72,555.147,5.33575
1530.8,558.147,5.32438
1548.86,561.147,5.31188
1566.89,564.147,5.29798
1584.92,567.147,5.28261
1602.94,570.147,5.26694
1620.97,573.147,5.25074
1639,576.147,5.23248
1657.02,579.147,5.21223
1675.04,582.147,5.19179
1693.04,585.147,5.16814
1711.04,588.147,5.13962
1729.05,591.147,5.10921
1747.08,594.147,5.07154
1765.15,597.147,5.03125
1783.24,600.147,4.97968
1801.353,603.147,4.91766
1819.5,606.147,4.84183
1837.638,609.147,4.75286
1855.77,612.147,4.6467
1873.914,615.147,4.52424
1892.046,618.147,4.37463
1910.16,621.147,4.20413
1928.24,624.147,4.00934
1946.31,627.147,3.79067
1964.34,630.147,3.54785
1982.33,633.147,3.28677
2000.283,636.147,3.006
2018.18,639.147,2.71603
2036.03,642.147,2.42468
2053.872,645.147,2.13489
2071.704,648.147,1.84602
2089.527,651.147,1.57224
2107.33,654.147,1.31278
2125.13,657.147,1.07851
2142.95,660.147,0.870843
2160.81,663.147,0.692207
2178.71,666.147,0.545589
2196.675,669.147,0.424832
2214.72,672.147,0.326696
2232.82,675.147,0.25075
2250.94,678.147,0.193025
2269.1,681.147,0.149204
2287.29,684.147,0.119744
2305.46,687.147,0.0972155
2323.587,690.147,0.081623
2341.683,693.147,0.0701016
2359.77,696.147,0.0608937
2377.86,699.147,0.0555133
2395.95,702.147,0.0514928
2413.98,705.147,0.05046256
2431.97,708.147,0.04647604
2450.01,711.147,0.0444661
2468.14,714.147,0.0465928
2486.25,717.147,0.0468057
2504.29,720.147,0.04458842
2522.3,723.147,0.0438006
2540.301,726.147,0.0454669
2558.271,729.147,0.0454658
2576.24,732.147,0.0454658
2594.2,735.147,0.0454647
2612.14,738.147,0.0427419
2630.11,741.147,0.041779
2648.09,744.147,0.0431267
2666.1,747.147,0.04452
2684.13,750.147,0.0459039
2702.157,753.147,0.0442459
2720.19,756.147,0.0445762
2738.232,759.147,0.0431801
2756.26,762.147,0.0438261
2774.26,765.147,0.0443916
2792.26,768.147,0.0438623
2810.24,771.147,0.0461747
2828.19,774.147,0.0459161
2846.181,777.147,0.0462331
2864.17,780.147,0.0432362
2882.15,783.147,0.0460279
2900.12,786.147,0.0446957
2918.1,789.147,0.0460279
2936.121,792.147,0.04475244
2954.13,795.147,0.04469684
2972.15,798.147,0.0446874
2990.17,801.147,0.04603124
3008.16,804.147,0.0436732
3026.17,807.147,0.043686
3044.166,810.147,0.045041
3062.16,813.147,0.04335966
3080.151,816.147,0.0460296
3098.15,819.147,0.0470259
3116.187,822.147,0.045686
3134.22,825.147,0.0463526
3152.25,828.147,0.0477832
3170.29,831.147,0.045686
3188.337,834.147,0.0453457
3206.36,837.147,0.0466962
3224.38,840.147,0.0453557
3242.38,843.147,0.0446868
3260.39,846.147,0.0446863
3278.44,849.147,0.0446863
3296.5,852.147,0.04469684
3314.52,855.147,0.04566428
3332.54,858.147,0.0456493
3350.56,861.147,0.0466879
3368.6,864.147,0.0480456
3386.64,867.147,0.0453563
3404.66,870.147,0.0454096
3422.72,873.147,0.0480362
3440.75,876.147,0.0466918
3458.77,879.147,0.0477704
3476.76,882.147,0.0470259
3494.73,885.147,0.0476959
3512.73,888.147,0.0463615
3530.59,891.147,0.0460262
3548.57,894.147,0.04600622
3566.58,897.147,0.0483842
3584.58,900.147,0.0470259
3602.6,903.147,0.0463559
3620.63,906.147,0.04653998
3638.64,909.147,0.0471166
3656.631,912.147,0.0474757
3674.616,915.147,0.0474757
3692.55,918.147,0.0463031
3710.51,921.147,0.0474757
3728.52,924.147,0.0468057
3746.55,927.147,0.046183
3764.604,930.147,0.0466623
3782.66,933.147,0.0461358
3800.66,936.147,0.0448853
3818.65,939.147,0.0468052
3836.652,942.147,0.0470743
3854.65,945.147,0.0474746
3872.64,948.147,0.04747684
3890.628,951.147,0.04657612
3908.619,954.147,0.0468864
3926.61,957.147,0.0469158
3944.64,960.147,0.0472444
3962.66,963.147,0.0485872
3980.66,966.147,0.0478699
3998.67,969.147,0.0482658
4016.619,972.147,0.0482919
4034.57,975.147,0.0496597
4052.56,978.147,0.045582
4070.54,981.147,0.0499355
4088.51,984.147,0.049266
4106.48,987.147,0.0482658
4124.47,990.147,0.0472494
4142.48,993.147,0.0456776
4160.52,996.147,0.0469258
4178.55,999.147,0.0469247
4196.61,1002.147,0.0467696
4214.67,1005.147,0.0457104
4232.69,1008.147,0.04445776
4250.7,1011.147,0.0482558
4268.73,1014.147,0.0469158
4286.7,1017.147,0.0469158
4304.65,1020.147,0.0463598
4322.58,1023.147,0.0459273
4340.56,1026.147,0.0480312
4358.56,1029.147,0.0479122
4376.54,1032.147,0.0471366
4394.53,1035.147,0.0452245
4412.53,1038.147,0.0489313
4430.538,1041.147,0.04625086
4448.553,1044.147,0.0475897
4466.54,1047.147,0.0464227
4484.48,1050.147,0.045259
4502.43,1053.147,0.0465778
4520.4,1056.147,0.0482558
4538.38,1059.147,0.0482558
4556.38,1062.147,0.0469286
4574.379,1065.147,0.0489258
4592.38,1068.147,0.04858606
4610.39,1071.147,0.046585
4616.397,1072.147,0.0479166