Folder: matl-db/PMMA/Calibration_Data/NIST (part 3)

File: NIST_DSC_N2_10K_5.csv
Time,Temperature,Heat Flow
[s],[K],[mW/mg]
0,303.147,0.00258562
72.0282,306.147,0.15367
91.3362,309.147,0.24543
106.3812,312.147,0.31323
119.739,315.147,0.36385
132.369,318.147,0.40116
144.7686,321.147,0.42618
157.254,324.147,0.44136
170.073,327.147,0.447
183.3948,330.147,0.44634
197.3772,333.147,0.44111
212.0556,336.147,0.43373
227.4396,339.147,0.42707
243.3954,342.147,0.41903
259.7664,345.147,0.40921
276.3972,348.147,0.40021
293.1492,351.147,0.39571
309.9648,354.147,0.39665
326.8332,357.147,0.39828
343.7856,360.147,0.39951
360.8694,363.147,0.40103
378.1206,366.147,0.40065
395.5734,369.147,0.40141
413.2188,372.147,0.40158
431.0346,375.147,0.40246
448.9944,378.147,0.40448
467.0418,381.147,0.40831
485.1852,384.147,0.41209
503.3502,387.147,0.41717
521.481,390.147,0.42553
539.5656,393.147,0.43719
557.5854,396.147,0.45052
575.5728,399.147,0.46276
593.5068,402.147,0.47088
611.4234,405.147,0.47617
629.3214,408.147,0.47989
647.1936,411.147,0.48296
665.0796,414.147,0.48515
682.9824,417.147,0.48765
700.9044,420.147,0.49
718.8132,423.147,0.4929
736.7508,426.147,0.49594
754.6956,429.147,0.4999
772.6578,432.147,0.50469
790.6542,435.147,0.51057
808.6482,438.147,0.51777
826.6692,441.147,0.52571
844.6968,444.147,0.53448
862.7484,447.147,0.54471
880.8102,450.147,0.55473
898.8666,453.147,0.56386
916.9086,456.147,0.57066
934.9512,459.147,0.57467
952.9878,462.147,0.57454
971.0202,465.147,0.57082
989.0502,468.147,0.56518
1007.09,471.147,0.55936
1025.136,474.147,0.55649
1043.19,477.147,0.55745
1061.24,480.147,0.56063
1079.292,483.147,0.56353
1097.337,486.147,0.56372
1115.4,489.147,0.55921
1133.448,492.147,0.55041
1151.51,495.147,0.54182
1169.556,498.147,0.53612
1187.63,501.147,0.53271
1205.71,504.147,0.53163
1223.81,507.147,0.53155
1241.9,510.147,0.5329
1259.991,513.147,0.5346
1278.08,516.147,0.53699
1296.168,519.147,0.5395
1314.26,522.147,0.54265
1332.321,525.147,0.54729
1350.37,528.147,0.5527
1368.39,531.147,0.55845
1386.41,534.147,0.56531
1404.42,537.147,0.57265
1422.444,540.147,0.58123
1440.48,543.147,0.59065
1458.52,546.147,0.60135
1476.58,549.147,0.61224
1494.65,552.147,0.62409
1512.72,555.147,0.6371
1530.8,558.147,0.65031
1548.86,561.147,0.66399
1566.89,564.147,0.67797
1584.92,567.147,0.69108
1602.94,570.147,0.70329
1620.97,573.147,0.71428
1639,576.147,0.72612
1657.02,579.147,0.74026
1675.04,582.147,0.7597
1693.04,585.147,0.78656
1711.04,588.147,0.82186
1729.05,591.147,0.8647
1747.08,594.147,0.91602
1765.15,597.147,0.97675
1783.24,600.147,1.04968
1801.353,603.147,1.13701
1819.5,606.147,1.24167
1837.638,609.147,1.36577
1855.77,612.147,1.5098
1873.914,615.147,1.67355
1892.046,618.147,1.85475
1910.16,621.147,2.05024
1928.24,624.147,2.25187
1946.31,627.147,2.45098
1964.34,630.147,2.63516
1982.33,633.147,2.78673
2000.283,636.147,2.88801
2018.18,639.147,2.90111
2036.03,642.147,2.87914
2053.872,645.147,2.83869
2071.704,648.147,2.80956
2089.527,651.147,2.65853
2107.33,654.147,2.47086
2125.13,657.147,2.19247
2142.95,660.147,1.91303
2160.81,663.147,1.64883
2178.71,666.147,1.36674
2196.675,669.147,1.13444
2214.72,672.147,0.93136
2232.82,675.147,0.75402
2250.94,678.147,0.60967
2269.1,681.147,0.49439
2287.29,684.147,0.40606
2305.46,687.147,0.34219
2323.587,690.147,0.29577
2341.683,693.147,0.26282
2359.77,696.147,0.23937
2377.86,699.147,0.22274
2395.95,702.147,0.21041
2413.98,705.147,0.21644
2431.97,708.147,0.23426
2450.01,711.147,0.22619
2468.14,714.147,0.17252
2486.25,717.147,0.17497
2504.29,720.147,0.18345
2522.3,723.147,0.1913
2540.301,726.147,0.19562
2558.271,729.147,0.19783
2576.24,732.147,0.20086
2594.2,735.147,0.20148
2612.14,738.147,0.20215
2630.11,741.147,0.20203
2648.09,744.147,0.20292
2666.1,747.147,0.20487
2684.13,750.147,0.20692
2702.157,753.147,0.20987
2720.19,756.147,0.21177
2738.232,759.147,0.21348
2756.26,762.147,0.2153
2774.26,765.147,0.21666
2792.26,768.147,0.21751
2810.24,771.147,0.21736
2828.19,774.147,0.21645
2846.181,777.147,0.21568
2864.17,780.147,0.21613
2882.15,783.147,0.21583
2900.12,786.147,0.21689
2918.1,789.147,0.21795
2936.121,792.147,0.21954
2954.13,795.147,0.22116
2972.15,798.147,0.22231
2990.17,801.147,0.2236
3008.16,804.147,0.22446
3026.17,807.147,0.22611
3044.166,810.147,0.2278
3062.16,813.147,0.22957
3080.151,816.147,0.23141
3098.15,819.147,0.23326
3116.187,822.147,0.23387
3134.22,825.147,0.23482
3152.25,828.147,0.23583
3170.29,831.147,0.23799
3188.337,834.147,0.23992
3206.36,837.147,0.24173
3224.38,840.147,0.24365
3242.38,843.147,0.24523
3260.39,846.147,0.24701
3278.44,849.147,0.2503
3296.5,852.147,0.2525
3314.52,855.147,0.25615
3332.54,858.147,0.25903
3350.56,861.147,0.26081
3368.6,864.147,0.26264
3386.64,867.147,0.2653
3404.66,870.147,0.26686
3422.72,873.147,0.26925
3440.75,876.147,0.27202
3458.77,879.147,0.27311
3476.76,882.147,0.27265
3494.73,885.147,0.2627
3512.73,888.147,0.26249
3530.59,891.147,0.27668
3548.57,894.147,0.28033
3566.58,897.147,0.2827
3584.58,900.147,0.28612
3602.6,903.147,0.28907
3620.63,906.147,0.29203
3638.64,909.147,0.29572
3656.631,912.147,0.2988
3674.616,915.147,0.3023
3692.55,918.147,0.30445
3710.51,921.147,0.30749
3728.52,924.147,0.31059
3746.55,927.147,0.31312
3764.604,930.147,0.31709
3782.66,933.147,0.31987
3800.66,936.147,0.32638
3818.65,939.147,0.32948
3836.652,942.147,0.33245
3854.65,945.147,0.33566
3872.64,948.147,0.33827
3890.628,951.147,0.34181
3908.619,954.147,0.34382
3926.61,957.147,0.34717
3944.64,960.147,0.35021
3962.66,963.147,0.35266
3980.66,966.147,0.35598
3998.67,969.147,0.35808
4016.619,972.147,0.36031
4034.57,975.147,0.36338
4052.56,978.147,0.36692
4070.54,981.147,0.36902
4088.51,984.147,0.3716
4106.48,987.147,0.3751
4124.47,990.147,0.37846
4142.48,993.147,0.38172
4160.52,996.147,0.38387
4178.55,999.147,0.38709
4196.61,1002.147,0.39075
4214.67,1005.147,0.39698
4232.69,1008.147,0.4005
4250.7,1011.147,0.40374
4268.73,1014.147,0.40899
4286.7,1017.147,0.41304
4304.65,1020.147,0.41843
4322.58,1023.147,0.42338
4340.56,1026.147,0.4282
4358.56,1029.147,0.43316
4376.54,1032.147,0.43754
4394.53,1035.147,0.44081
4412.53,1038.147,0.44506
4430.538,1041.147,0.45109
4448.553,1044.147,0.4551
4466.54,1047.147,0.4591
4484.48,1050.147,0.46125
4502.43,1053.147,0.46522
4520.4,1056.147,0.46887
4538.38,1059.147,0.47227
4556.38,1062.147,0.47694
4574.379,1065.147,0.48011
4592.38,1068.147,0.4822
4610.39,1071.147,0.48728
4616.397,1072.147,0.48803

File: NIST_MCC_N2_60K_1.csv
Time,Temperature,HRR
[s],[K],[W/g]
0.000,373.798,0.000
1.500,375.039,-0.091
3.000,376.314,-0.006
4.500,377.636,0.037
6.000,378.968,-0.096
7.500,380.324,-0.139
9.000,381.634,-0.216
10.500,383.071,-0.285
12.000,384.488,-0.200
13.500,385.919,-0.096
15.000,387.348,-0.216
16.500,388.79,0.083
18.000,390.256,0.174
19.500,391.737,0.437
21.000,393.248,0.394
22.500,394.751,0.316
24.000,396.264,0.582
25.500,397.818,0.419
27.000,399.365,0.547
28.500,400.876,0.728
30.000,402.445,0.878
31.500,404.027,0.883
33.000,405.638,1.162
34.500,407.27,1.275
36.000,408.82,1.376
37.500,410.417,1.597
39.000,412.04,1.817
40.500,413.644,1.849
42.000,415.3,2.059
43.500,416.975,2.113
45.000,418.571,2.406
46.500,420.183,2.576
48.000,421.818,2.560
49.500,423.471,2.964
51.000,425.106,3.360
52.500,426.723,3.512
54.000,428.363,3.880
55.500,430.046,4.270
57.000,431.676,4.698
58.500,433.328,5.023
60.000,434.971,5.658
61.500,436.623,6.233
63.000,438.24,7.047
64.500,439.882,7.689
66.000,441.537,8.762
67.500,443.156,9.552
69.000,444.787,10.422
70.500,446.459,11.477
72.000,448.108,12.530
73.500,449.746,13.567
75.000,451.363,14.665
76.500,452.975,15.599
78.000,454.588,16.470
79.500,456.189,17.234
81.000,457.819,18.021
82.500,459.444,18.385
84.000,461.054,19.038
85.500,462.64,19.305
87.000,464.273,19.371
88.500,465.854,19.233
90.000,467.449,19.104
91.500,469.056,18.724
93.000,470.638,18.096
94.500,472.203,17.762
96.000,473.78,17.041
97.500,475.4,16.574
99.000,476.962,16.078
100.500,478.535,15.763
102.000,480.149,15.364
103.500,481.686,15.290
105.000,483.273,15.203
106.500,484.867,15.360
108.000,486.424,15.635
109.500,487.949,15.651
111.000,489.577,15.571
112.500,491.148,15.585
114.000,492.656,15.633
115.500,494.215,14.946
117.000,495.735,14.372
118.500,497.291,13.519
120.000,498.784,12.389
121.500,500.334,11.049
123.000,501.853,9.622
124.500,503.35,8.234
126.000,504.896,6.759
127.500,506.426,5.586
129.000,507.955,4.579
130.500,509.427,3.871
132.000,510.917,3.297
133.500,512.385,2.548
135.000,513.898,2.385
136.500,515.369,2.270
138.000,516.886,2.053
139.500,518.344,2.051
141.000,519.845,2.047
142.500,521.353,2.243
144.000,522.844,2.138
145.500,524.297,2.099
147.000,525.792,2.432
148.500,527.281,2.415
150.000,528.731,2.608
151.500,530.227,2.828
153.000,531.72,3.019
154.500,533.214,3.118
156.000,534.674,3.402
157.500,536.14,3.774
159.000,537.601,3.978
160.500,539.063,4.474
162.000,540.518,4.807
163.500,542.015,5.136
165.000,543.508,5.604
166.500,544.971,6.254
168.000,546.48,6.552
169.500,547.884,7.062
171.000,549.337,7.663
172.500,550.823,8.177
174.000,552.366,9.075
175.500,553.809,9.776
177.000,555.254,10.691
178.500,556.708,11.791
180.000,558.219,12.615
181.500,559.667,13.821
183.000,561.125,15.329
184.500,562.611,16.212
186.000,564.123,17.337
187.500,565.535,18.672
189.000,567.002,19.670
190.500,568.5,20.930
192.000,569.962,21.999
193.500,571.392,23.421
195.000,572.939,24.509
196.500,574.377,25.606
198.000,575.883,26.760
199.500,577.343,27.695
201.000,578.809,28.358
202.500,580.235,29.249
204.000,581.755,30.013
205.500,583.229,30.858
207.000,584.713,31.793
208.500,586.184,32.809
210.000,587.656,33.800
211.500,589.136,35.093
213.000,590.612,36.230
214.500,592.116,38.058
216.000,593.551,39.849
217.500,595.059,42.071
219.000,596.537,44.494
220.500,598.057,47.252
222.000,599.527,50.332
223.500,601.034,53.933
225.000,602.478,57.676
226.500,604.054,62.131
228.000,605.501,66.649
229.500,606.963,71.737
231.000,608.497,77.384
232.500,609.917,83.280
234.000,611.478,89.357
235.500,613.009,96.139
237.000,614.531,103.188
238.500,616.005,111.133
240.000,617.5,118.852
241.500,618.991,127.309
243.000,620.457,136.095
244.500,621.969,145.022
246.000,623.477,154.123
247.500,624.962,163.471
249.000,626.441,172.946
250.500,627.909,182.594
252.000,629.433,191.893
253.500,630.905,201.284
255.000,632.389,210.605
256.500,633.823,220.466
258.000,635.29,229.674
259.500,636.754,238.965
261.000,638.277,248.106
262.500,639.718,257.561
264.000,641.203,267.507
265.500,642.65,277.502
267.000,644.16,288.003
268.500,645.608,297.966
270.000,647.074,306.740
271.500,648.532,314.797
273.000,650.025,321.438
274.500,651.536,327.303
276.000,653.006,333.966
277.500,654.505,338.745
279.000,655.947,340.285
280.500,657.429,341.498
282.000,658.897,341.688
283.500,660.387,339.562
285.000,661.894,335.694
286.500,663.355,329.634
288.000,664.895,321.935
289.500,666.4,314.440
291.000,667.876,305.861
292.500,669.388,295.444
294.000,670.919,284.641
295.500,672.438,272.968
297.000,673.943,260.975
298.500,675.442,248.625
300.000,676.994,236.391
301.500,678.577,224.221
303.000,680.109,211.704
304.500,681.676,199.192
306.000,683.236,185.750
307.500,684.792,171.345
309.000,686.366,157.456
310.500,687.931,143.842
312.000,689.508,130.844
313.500,691.082,118.342
315.000,692.612,106.931
316.500,694.255,96.273
318.000,695.811,86.562
319.500,697.379,77.487
321.000,698.933,69.121
322.500,700.473,61.500
324.000,702.08,54.486
325.500,703.623,48.136
327.000,705.182,42.502
328.500,706.744,37.371
330.000,708.275,33.001
331.500,709.811,29.007
333.000,711.38,25.260
334.500,712.864,21.965
336.000,714.475,19.049
337.500,715.998,16.608
339.000,717.55,14.435
340.500,719.05,12.383
342.000,720.569,10.698
343.500,722.057,9.156
345.000,723.598,7.324
346.500,725.103,5.535
348.000,726.612,4.058
349.500,728.081,2.756
351.000,729.602,1.880
352.500,731.058,1.154
354.000,732.531,0.585
355.500,734.029,0.407
357.000,735.545,0.108
358.500,736.998,0.074
360.000,738.417,0.076
361.500,739.974,0.072
363.000,741.403,0.121
364.500,742.881,-0.026
366.000,744.326,-0.053
367.500,745.813,-0.115
369.000,747.27,-0.165
370.500,748.729,-0.102
372.000,750.201,-0.034
373.500,751.699,-0.284
375.000,753.105,-0.131
376.500,754.565,-0.232
378.000,756.004,-0.091
379.500,757.458,0.005
381.000,758.905,0.035
382.500,760.375,0.043
384.000,761.821,-0.085
385.500,763.315,-0.183
387.000,764.772,-0.169
388.500,766.266,-0.261
390.000,767.727,-0.159
391.500,769.2,-0.009
393.000,770.652,-0.058
394.500,772.144,-0.109
396.000,773.629,-0.129
397.500,775.129,-0.223
399.000,776.598,-0.171
400.500,778.082,-0.141
402.000,779.546,-0.056
403.500,781.019,-0.038
405.000,782.507,-0.127
406.500,783.982,-0.093
408.000,785.439,-0.218
409.500,786.924,-0.046
411.000,788.437,-0.140
412.500,789.883,-0.171
414.000,791.357,-0.266
415.500,792.875,-0.317
417.000,794.369,-0.141
418.500,795.841,-0.126
420.000,797.335,-0.051
421.500,798.842,-0.121
423.000,800.375,-0.128
424.500,801.871,-0.038
426.000,803.382,0.048
427.500,804.878,-0.242
429.000,806.391,-0.047
430.500,807.903,-0.159
432.000,809.416,0.037
433.500,810.947,0.206
435.000,812.408,0.018
436.500,813.959,0.114
438.000,815.488,0.081
439.500,817.017,-0.090
441.000,818.518,0.090
442.500,820.057,0.168
444.000,821.567,0.047
445.500,823.066,0.009
447.000,824.564,0.000

File: NIST_MCC_N2_60K_2.csv
Time,Temperature,HRR
[s],[K],[W/g]
0.000,363.069,0.000
2.000,364.362,-0.125
4.000,365.629,-0.182
6.000,366.965,-0.249
8.000,368.359,-0.154
10.000,369.776,-0.230
12.000,371.266,-0.351
14.000,372.768,0.001
16.000,374.33,-0.068
18.000,375.933,0.022
20.000,377.539,0.142
22.000,379.252,0.284
24.000,380.949,0.028
26.000,382.673,0.407
28.000,384.472,0.270
30.000,386.286,0.334
32.000,388.141,0.309
34.000,390.005,0.587
36.000,391.866,0.591
38.000,393.813,0.770
40.000,395.707,0.925
42.000,397.675,1.117
44.000,399.695,1.130
46.000,401.712,1.331
48.000,403.772,1.508
50.000,405.862,1.927
52.000,407.923,1.749
54.000,409.998,2.145
56.000,412.098,2.575
58.000,414.23,2.501
60.000,416.399,2.797
62.000,418.505,3.094
64.000,420.688,3.351
66.000,422.843,3.621
68.000,424.975,4.219
70.000,427.14,4.412
72.000,429.308,4.760
74.000,431.488,5.269
76.000,433.648,5.937
78.000,435.825,7.025
80.000,437.998,7.898
82.000,440.177,8.519
84.000,442.372,9.850
86.000,444.552,11.308
88.000,446.774,12.581
90.000,448.94,13.712
92.000,451.118,15.055
94.000,453.256,16.109
96.000,455.435,16.825
98.000,457.623,17.500
100.000,459.77,18.159
102.000,461.956,18.672
104.000,464.1,18.671
106.000,466.232,18.401
108.000,468.381,17.970
110.000,470.484,17.670
112.000,472.586,16.948
114.000,474.725,16.420
116.000,476.853,16.169
118.000,478.999,15.870
120.000,481.075,15.601
122.000,483.184,15.566
124.000,485.295,15.429
126.000,487.366,15.515
128.000,489.5,15.561
130.000,491.556,15.109
132.000,493.659,14.228
134.000,495.737,13.409
136.000,497.764,11.905
138.000,499.818,10.302
140.000,501.858,8.485
142.000,503.907,7.013
144.000,505.924,5.612
146.000,507.988,4.270
148.000,509.957,3.542
150.000,511.98,2.959
152.000,514.026,2.524
154.000,515.959,2.208
156.000,517.979,2.028
158.000,519.983,1.912
160.000,521.976,2.246
162.000,523.935,2.424
164.000,525.911,2.502
166.000,527.899,3.010
168.000,529.864,3.129
170.000,531.901,3.322
172.000,533.874,3.392
174.000,535.819,3.706
176.000,537.815,3.988
178.000,539.737,4.813
180.000,541.726,5.257
182.000,543.662,5.675
184.000,545.591,6.527
186.000,547.589,7.374
188.000,549.57,8.288
190.000,551.499,9.355
192.000,553.512,10.408
194.000,555.411,11.529
196.000,557.383,12.907
198.000,559.344,14.359
200.000,561.292,15.884
202.000,563.24,17.461
204.000,565.177,19.057
206.000,567.145,20.636
208.000,569.133,22.404
210.000,571.075,23.701
212.000,573.052,25.054
214.000,575.037,26.354
216.000,576.994,27.382
218.000,578.956,29.147
220.000,580.931,30.443
222.000,582.944,31.524
224.000,584.881,32.737
226.000,586.871,34.348
228.000,588.836,36.030
230.000,590.797,38.024
232.000,592.786,40.512
234.000,594.742,43.222
236.000,596.758,46.796
238.000,598.746,50.442
240.000,600.732,55.138
242.000,602.736,60.234
244.000,604.713,66.202
246.000,606.713,72.602
248.000,608.677,79.882
250.000,610.678,87.945
252.000,612.721,96.590
254.000,614.715,106.097
256.000,616.723,116.413
258.000,618.749,127.463
260.000,620.701,138.800
262.000,622.709,151.019
264.000,624.736,163.831
266.000,626.678,176.742
268.000,628.66,189.838
270.000,630.66,202.746
272.000,632.659,215.682
274.000,634.566,228.515
276.000,636.553,240.755
278.000,638.526,252.701
280.000,640.49,264.980
282.000,642.427,276.200
284.000,644.421,288.427
286.000,646.397,300.642
288.000,648.355,311.849
290.000,650.328,323.066
292.000,652.313,331.480
294.000,654.365,336.470
296.000,656.322,343.723
298.000,658.243,344.642
300.000,660.214,342.068
302.000,662.187,338.444
304.000,664.192,330.675
306.000,666.203,322.476
308.000,668.191,309.663
310.000,670.196,294.474
312.000,672.198,277.407
314.000,674.184,259.651
316.000,676.221,241.324
318.000,678.258,223.792
320.000,680.309,206.657
322.000,682.308,188.780
324.000,684.445,169.308
326.000,686.512,149.822
328.000,688.591,132.323
330.000,690.684,116.405
332.000,692.76,101.934
334.000,694.85,88.778
336.000,696.931,77.108
338.000,698.995,66.560
340.000,701.027,57.154
342.000,703.106,48.833
344.000,705.161,41.533
346.000,707.19,35.141
348.000,709.243,29.836
350.000,711.248,25.426
352.000,713.308,21.436
354.000,715.405,17.795
356.000,717.402,14.883
358.000,719.403,12.596
360.000,721.398,10.499
362.000,723.405,8.352
364.000,725.413,5.910
366.000,727.386,3.783
368.000,729.359,2.697
370.000,731.346,1.808
372.000,733.323,1.185
374.000,735.339,0.933
376.000,737.282,0.534
378.000,739.252,0.322
380.000,741.193,0.375
382.000,743.19,0.600
384.000,745.134,0.047
386.000,747.074,0.047
388.000,749.057,-0.092
390.000,750.957,-0.078
392.000,752.923,-0.088
394.000,754.862,-0.094
396.000,756.839,-0.318
398.000,758.778,-0.353
400.000,760.705,-0.707
402.000,762.716,-0.554
404.000,764.674,-0.496
406.000,766.628,-0.614
408.000,768.587,-0.414
410.000,770.576,-0.430
412.000,772.525,-0.493
414.000,774.529,-0.548
416.000,776.519,-0.440
418.000,778.479,-0.814
420.000,780.424,-0.364
422.000,782.417,-0.474
424.000,784.407,-0.330
426.000,786.367,-0.457
428.000,788.327,-0.481
430.000,790.327,-0.556
432.000,792.313,-0.484
434.000,794.312,-0.631
436.000,796.281,-0.587
438.000,798.289,-0.846
440.000,800.293,-0.857
442.000,802.291,-0.549
444.000,804.324,-0.754
446.000,806.305,-0.546
448.000,808.339,-0.671
450.000,810.339,-0.424
452.000,812.328,-0.788
454.000,814.397,-0.845
456.000,816.415,-0.865
458.000,818.435,-0.985
460.000,820.444,-0.864
462.000,822.416,-0.574
464.000,824.456,-0.447
466.000,826.463,-0.664
468.000,828.467,-0.482
470.000,830.499,-0.714
472.000,832.478,-0.784
474.000,834.472,-0.691
476.000,836.486,-0.665
478.000,838.479,-0.478
480.000,840.485,-0.482
482.000,842.5,-0.645
484.000,844.488,-0.585
486.000,846.496,-0.591
488.000,848.495,-0.761
490.000,850.472,-0.822
492.000,852.47,-0.872
494.000,854.559,-0.875
496.000,856.547,-0.660
498.000,858.494,-0.526
500.000,860.514,-0.306
502.000,862.535,-0.255
504.000,864.508,-0.316
506.000,866.558,-0.313
508.000,868.52,-0.417
510.000,870.51,-0.348
512.000,872.532,-0.330
514.000,874.593,-0.047
515.500,876.092,0.000

File: NIST_TGA_N2_10K_1.csv
Time,Temperature,Mass
[s],[K],[mg]
0,303.147,4.99457
72.054,306.147,4.98862
91.3692,309.147,4.98871
106.4256,312.147,4.99047
119.7894,315.147,4.99398
132.4218,318.147,4.99391
144.8148,321.147,4.997
157.2972,324.147,4.99756
170.1138,327.147,4.99961
183.4434,330.147,4.99948
197.4132,333.147,5.00082
212.0958,336.147,4.99948
227.4702,339.147,5.00082
243.423,342.147,4.99948
259.8042,345.147,4.99948
276.4308,348.147,5.00048
293.199,351.147,5.00048
310.0296,354.147,5.00149
326.9184,357.147,5.00047
343.8792,360.147,5.00183
360.9438,363.147,5.00006
378.1668,366.147,5.00038
395.5698,369.147,5.00038
413.178,372.147,5.00039
430.9932,375.147,4.99904
448.9692,378.147,4.99837
467.0628,381.147,4.99904
485.199,384.147,4.99895
503.3676,387.147,4.99904
521.5104,390.147,4.99636
539.5872,393.147,4.99635
557.6046,396.147,4.99637
575.5554,399.147,4.99496
593.4966,402.147,4.99489
611.4018,405.147,4.99367
629.2914,408.147,4.99414
647.1792,411.147,4.99164
665.0646,414.147,4.99166
682.9476,417.147,4.98898
700.8462,420.147,4.98764
718.7604,423.147,4.98764
736.7148,426.147,4.98631
754.6884,429.147,4.98497
772.6818,432.147,4.98225
790.6794,435.147,4.98061
808.6722,438.147,4.97742
826.6734,441.147,4.97521
844.7082,444.147,4.97384
862.7508,447.147,4.97046
880.8102,450.147,4.9651
898.8684,453.147,4.95974
916.9158,456.147,4.95565
934.9542,459.147,4.94891
952.9998,462.147,4.93931
971.0262,465.147,4.92968
989.0586,468.147,4.92039
1007.088,471.147,4.91343
1025.12,474.147,4.90691
1043.16,477.147,4.89879
1061.24,480.147,4.89342
1079.319,483.147,4.88789
1097.39,486.147,4.87981
1115.46,489.147,4.87407
1133.51,492.147,4.86742
1151.57,495.147,4.86208
1169.63,498.147,4.85836
1187.703,501.147,4.85972
1205.77,504.147,4.85705
1223.83,507.147,4.8557
1241.883,510.147,4.85335
1259.943,513.147,4.85343
1278.006,516.147,4.85168
1296.07,519.147,4.85167
1314.123,522.147,4.84896
1332.19,525.147,4.84899
1350.25,528.147,4.84531
1368.31,531.147,4.84397
1386.37,534.147,4.841
1404.43,537.147,4.83661
1422.49,540.147,4.83392
1440.54,543.147,4.82889
1458.6,546.147,4.82488
1476.65,549.147,4.81919
1494.69,552.147,4.81248
1512.73,555.147,4.8036
1530.76,558.147,4.79484
1548.76,561.147,4.78697
1566.75,564.147,4.77429
1584.75,567.147,4.75926
1602.79,570.147,4.74628
1620.84,573.147,4.73144
1638.909,576.147,4.71508
1656.96,579.147,4.69762
1674.987,582.147,4.67916
1693.02,585.147,4.65436
1711.04,588.147,4.63303
1729.062,591.147,4.60408
1747.08,594.147,4.57078
1765.1,597.147,4.5323
1783.15,600.147,4.48635
1801.25,603.147,4.43105
1819.39,606.147,4.36379
1837.52,609.147,4.28284
1855.67,612.147,4.18813
1873.82,615.147,4.07726
1891.96,618.147,3.9425
1910.1,621.147,3.78883
1928.19,624.147,3.6137
1946.25,627.147,3.41588
1964.27,630.147,3.19462
1982.235,633.147,2.95769
2000.16,636.147,2.70075
2018.04,639.147,2.43992
2035.88,642.147,2.17009
2053.7,645.147,1.91064
2071.515,648.147,1.6466
2089.34,651.147,1.40032
2107.18,654.147,1.16667
2125.02,657.147,0.960903
2142.87,660.147,0.778733
2160.78,663.147,0.621085
2178.72,666.147,0.495246
2196.73,669.147,0.388068
2214.77,672.147,0.306822
2232.87,675.147,0.237364
2251.01,678.147,0.188795
2269.176,681.147,0.151981
2287.35,684.147,0.123377
2305.512,687.147,0.101263
2323.638,690.147,0.0882345
2341.74,693.147,0.0784516
2359.81,696.147,0.0707723
2377.84,699.147,0.066026
2395.82,702.147,0.0624102
2413.85,705.147,0.0597306
2431.93,708.147,0.0583903
2450.04,711.147,0.0573903
2468.21,714.147,0.05731993
2486.319,717.147,0.0600604
2504.36,720.147,0.0587301
2522.36,723.147,0.0580604
2540.35,726.147,0.0590604
2558.33,729.147,0.0593983
2576.328,732.147,0.0607416
2594.31,735.147,0.060796
2612.29,738.147,0.0594003
2630.27,741.147,0.0577306
2648.27,744.147,0.0577306
2666.26,747.147,0.057058
2684.262,750.147,0.0587181
2702.277,753.147,0.0600699
2720.298,756.147,0.0590704
2738.337,759.147,0.0590704
2756.33,762.147,0.0600819
2774.313,765.147,0.0590599
2792.3,768.147,0.0573953
2810.29,771.147,0.0560515
2828.28,774.147,0.0587291
2846.27,777.147,0.0594003
2864.26,780.147,0.0594003
2882.238,783.147,0.0603848
2900.229,786.147,0.0583134
2918.25,789.147,0.0583888
2936.26,792.147,0.0597301
2954.28,795.147,0.0600929
2972.271,798.147,0.0600704
2990.24,801.147,0.0580604
3008.19,804.147,0.05772412
3026.142,807.147,0.0604102
3044.13,810.147,0.0584302
3062.11,813.147,0.0567291
3080.11,816.147,0.0587306
3098.13,819.147,0.0594003
3116.17,822.147,0.0580604
3134.199,825.147,0.0560644
3152.26,828.147,0.056048
3170.3,831.147,0.0560689
3188.34,834.147,0.0587231
3206.37,837.147,0.0594003
3224.376,840.147,0.0573903
3242.4,843.147,0.0575031
3260.43,846.147,0.0585006
3278.45,849.147,0.0601802
3296.451,852.147,0.0597411
3314.44,855.147,0.05951054
3332.43,858.147,0.0598404
3350.46,861.147,0.0608504
3368.496,864.147,0.0608583
3386.5,867.147,0.0608504
3404.45,870.147,0.0601802
3422.475,873.147,0.0598928
3440.52,876.147,0.0601812
3458.574,879.147,0.0588404
3476.62,882.147,0.0594851
3494.66,885.147,0.0598089
3512.69,888.147,0.0601802
3530.71,891.147,0.0601802
3548.7,894.147,0.0591752
3566.67,897.147,0.0608504
3584.65,900.147,0.0621962
3602.56,903.147,0.0618504
3620.5,906.147,0.0578299
3638.54,909.147,0.05917122
3656.559,912.147,0.0618364
3674.59,915.147,0.06191572
3692.57,918.147,0.0618533
3710.56,921.147,0.0577775
3728.571,924.147,0.0591702
3746.55,927.147,0.0611787
3764.55,930.147,0.0623718
3782.57,933.147,0.0618494
3800.58,936.147,0.0609397
3818.61,939.147,0.0618224
3836.637,942.147,0.0626253
3854.63,945.147,0.0625235
3872.59,948.147,0.0625375
3890.6,951.147,0.0627221
3908.59,954.147,0.06152
3926.57,957.147,0.06224007
3944.58,960.147,0.0631822
3962.583,963.147,0.0631747
3980.59,966.147,0.0632006
3998.58,969.147,0.062532
4016.55,972.147,0.0638573
4034.55,975.147,0.0638703
4052.59,978.147,0.0645215
4070.62,981.147,0.0613015
4088.63,984.147,0.0638703
4106.6,987.147,0.0639756
4124.56,990.147,0.0638603
4142.54,993.147,0.0629921
4160.5,996.147,0.0638938
4166.53,997.147,0.065531