Folder: matl-db/PMMA/Calibration_Data/NIST

Note: PMMA/README.md
# Poly(methyl methacrylate), PMMA

This folder holds measurement data, calibrated material property datasets, and results of numerical simulations related to the pyrolysis of case black PMMA. The specific material of interest is a nominally 6 mm (0.236 inch) thick, black, cast PMMA manufactured by Evonik under the tradename: ACRYLITE cast black 9H01 GT. Note: the identification of any commercial product or trade name does not imply endorsement or recommendation by the National Institute of Standards and Technology, NIST (or any other contributing institution).

|Folder Name| Description|
|---|---|
|Calibration_Data| Experimental measurements (e.g., TGA, DSC, Cone Calorimeter) used for pyrolysis model calibration (i.e., material property determination)|
|Calibration_Results|Results of numerical simulations demonstrating the ability of proposed material property sets to accurately *reproduce* relevant model calibration data|
|Computational_Results|Model predictions of sample decomposition in response to idealized zero- and one-dimensional heating scenarios (used for model to model comparison)|
|Material_Properties|Pyrolysis models (i.e., material property sets) organized in a standard .json format|
|Validation_Data|Experimental Measurements (sample mass loss and back surface temperature rise during anaerobic gasification of PMMA under external thermal radiation) for Pyrolysis Model Validation |
|Validation_Results|Results of numerical simulations demonstrating the ability of proposed material property sets to *predict* measured material decomposition behavior (used for model validation)|

File: NIST_Cone_25kW_1.csv
Time,Mass,HRR
[s],[g],[kW/m2]
0,154.469,-0.55203
3,154.563,-0.541368
6,154.61,0.109556
9,154.684,0.980472
12,154.854,1.048585
15,154.642,0.834373
18,154.924,0.510337
21,154.855,-2.354841
24,154.672,-0.542516
27,154.74,-1.434644
30,154.952,-0.333682
33,154.712,-0.251793
36,154.78,1.103895
39,154.93,-0.883153
42,154.602,-1.899572
45,155.008,1.03206
48,154.878,-2.640001
51,154.82,-0.068504
54,154.67,-0.234629
57,154.871,-1.146841
60,154.674,-0.789248
63,154.902,-1.96342
66,154.744,-1.362888
69,154.762,-0.809146
72,154.795,-0.677217
75,154.776,-0.670119
78,154.63,0.448648
81,154.766,-1.141037
84,155.006,-0.873577
87,154.617,-0.780647
90,154.672,0.124806
93,154.849,-3.230504
96,154.813,-3.992947
99,154.634,-3.867577
102,154.574,-2.388224
105,154.776,-1.266243
108,154.807,-0.142156
111,154.562,1.941822
114,154.493,29.7825
117,154.472,99.1259
120,154.18,169.396
123,153.787,232.662
126,153.527,272.424
129,152.946,316.667
132,152.633,366.233
135,152.224,380.512
138,151.668,404.188
141,151.241,407.751
144,150.646,417.529
147,150.272,417.95
150,149.797,424.071
153,149.029,422.478
156,148.631,431.977
159,148.218,436.072
162,147.405,430.457
165,147.086,435.779
168,146.444,436.48
171,145.959,432.414
174,145.467,429.421
177,144.761,435.192
180,144.538,443.842
183,143.691,449.16
186,143.318,445.567
189,142.695,448.518
192,142.162,450.448
195,141.441,452.896
198,140.901,458.322
201,140.334,462.986
204,139.936,465.177
207,139.33,477.205
210,138.701,474.903
213,138.262,481.479
216,137.458,488.284
219,136.973,493.424
222,136.341,499.795
225,135.63,512.15
228,135.04,506.281
231,134.257,514.001
234,133.7,519.815
237,133.009,519.963
240,132.402,534.921
243,131.711,539.995
246,131.296,553.12
249,130.403,548.158
252,129.576,557.946
255,128.938,562.878
258,128.267,570.431
261,127.523,584.12
264,126.773,581.242
267,125.943,588.044
270,125.333,594.24
273,124.628,601.113
276,123.923,607.689
279,123.223,609.173
282,122.416,609.168
285,121.688,603.44
288,120.756,620.767
291,120.322,622.306
294,119.435,616.446
297,118.555,624.611
300,117.789,625.771
303,117.08,626.645
306,116.345,632.462
309,115.594,643.4
312,114.576,641.708
315,113.999,651.401
318,113.129,656.254
321,112.249,651.883
324,111.596,664.026
327,110.74,649.079
330,109.798,652.951
333,109.081,663.458
336,108.154,665.955
339,107.419,689.59
342,106.709,680.508
345,105.742,693.03
348,104.944,694.737
351,104.097,685.898
354,103.019,702.146
357,102.382,695.621
360,101.438,705.842
363,100.674,709.158
366,99.8509,705.665
369,98.8998,710.725
372,98.0967,700.347
375,97.2227,690.285
378,96.3437,671.325
381,95.5937,661.689
384,94.6996,654.713
387,93.8687,654.547
390,93.3228,633.522
393,92.355,626.905
396,91.5431,603.178
399,90.8561,608.21
402,90.0937,616.008
405,89.2823,573.222
408,88.7924,518.729
411,88.4096,485.929
414,87.6832,439.844
417,87.3376,363.909
420,86.7641,302.084
423,86.643,263.322
426,86.2472,165.574
429,86.1912,121.564
432,85.9497,71.4121
435,86.1414,40.5164
438,85.9963,9.965688
441,86.0421,0.790968
444,85.9806,-5.04446
447,86.1679,-5.300482
450,85.9699,-2.469567
453,85.9127,-2.392389
456,85.9357,-1.272422
459,85.9791,-2.052912
462,86.1412,-1.40023
465,85.8966,-1.845134
468,86.0791,-1.828704
471,85.9837,-1.60485
474,85.9202,-1.216724
477,86.1054,-0.703771
480,86.0011,-0.86343
483,85.9885,-0.867209
486,85.8715,-1.339412
489,85.8449,1.723263
492,86.058,-0.640874
495,85.9982,0.240419
498,86.0954,-0.640687
501,86.0046,-3.548235
504,86.0638,-2.399661
507,85.8541,-13.6336
510,86.0546,-2.77527
513,85.9825,0.068591
516,85.8947,0.927051
519,86.1656,-0.390215
522,86.0283,-0.050669
525,85.8135,-0.027387
528,86.0253,-0.923104
531,86.0155,-1.748386
534,86.1341,-1.149104
537,85.9446,-2.487662
540,86.0421,-4.077169
543,85.9702,-3.969027
546,86.2093,-1.409898
549,86.0155,0.461826
552,86.0831,1.037942
555,86.1157,-3.112369
558,85.7558,-3.027231
561,86.0724,-0.88142
564,86.0668,-1.636193
567,86.0617,-2.459656
570,85.9104,-0.070985
573,85.948,-0.449065
576,86.0063,-1.204197
579,85.8092,0.113938
582,86.0632,0.373521
585,85.9503,-0.593357
588,85.8903,-2.393957
591,85.9045,-0.416445
594,86.021,-0.271747
597,85.8681,-0.186844
600,86.0111,0.491866

File: NIST_Cone_25kW_2.csv
Time,Mass,HRR
[s],[g],[kW/m2]
0,154.993,-0.510215
3,155.119,0.907264
6,155.457,-0.247574
9,155.444,0.128808
12,155.308,-0.031361
15,155.557,-0.666456
18,155.228,-1.089795
21,155.254,-0.934505
24,155.234,-0.279543
27,155.289,0.410656
30,155.443,-0.140611
33,155.359,-0.5097
36,155.337,-0.528455
39,155.397,-0.993118
42,155.336,-0.383444
45,155.472,0.620615
48,155.272,1.550968
51,155.386,0.922937
54,155.231,1.166218
57,155.352,0.130161
60,155.255,0.582064
63,155.453,0.274015
66,155.212,1.169108
69,155.098,1.604375
72,155.436,0.217363
75,155.248,1.177825
78,155.132,0.658677
81,155.387,0.052596
84,155.358,-0.590223
87,155.151,0.423833
90,155.202,0.179408
93,155.352,1.244057
96,155.29,0.726629
99,155.324,-0.32527
102,155.167,1.459691
105,155.224,2.211068
108,155.129,5.596291
111,155.081,51.5596
114,154.987,116.562
117,154.47,177.236
120,154.283,225.515
123,154.159,257.309
126,153.571,327.281
129,153.202,356.224
132,152.639,377.792
135,152.242,396.093
138,151.863,408.088
141,151.239,425.141
144,150.712,414.557
147,150.235,418.634
150,149.733,418.924
153,149.253,427.622
156,148.646,423.404
159,148.206,423.762
162,147.571,426.278
165,147.193,433.729
168,146.634,434.079
171,146.12,429.94
174,145.611,428.809
177,144.942,437.14
180,144.439,440.382
183,143.881,437.923
186,143.355,452.253
189,142.811,450.989
192,142.227,452.635
195,141.468,465.981
198,141.108,464.281
201,140.445,471.9
204,139.877,475.691
207,139.381,473.319
210,138.727,496.841
213,138.11,490.887
216,137.568,494.584
219,136.815,501.019
222,136.336,519.379
225,135.587,518.045
228,134.949,511.02
231,134.438,525.912
234,133.616,533.209
237,133.219,535.979
240,132.353,546.623
243,131.62,548.627
246,131.069,546.864
249,130.295,552.061
252,129.637,565.31
255,128.977,572.318
258,128.245,582.335
261,127.607,579.179
264,126.726,593.193
267,126.076,597.668
270,125.26,594.998
273,124.608,605.3336
276,123.889,607.855
279,123.328,610.555
282,122.389,622.248
285,121.424,610.334
288,120.583,612.976
291,120.062,612.228
294,119.358,605.458
297,118.401,623.678
300,117.774,631.677
303,117.216,617.081
306,116.322,630.175
309,115.536,643.875
312,114.671,639.933
315,113.846,646.55
318,113.066,645.054
321,112.369,646.5995
324,111.708,656.416
327,110.617,649.25
330,109.8,649.198
333,109.081,652.137
336,108.483,651.234
339,107.424,654.424
342,106.744,668.419
345,105.801,683.141
348,104.972,692.725
351,104.199,713.544
354,103.184,706.015
357,102.368,694.653
360,101.476,695.455
363,100.731,704.514
366,99.8059,705.703
369,98.9161,707.745
372,98.0201,718.257
375,97.3807,709.942
378,96.2732,709.224
381,95.5025,690.783
384,94.7417,679.496
387,93.7067,653.504
390,93.2036,630.164
393,92.4231,621.724
396,91.6512,610.477
399,90.9554,606.51
402,89.995,592.862
405,89.3176,575.141
408,88.7964,552.533
411,88.0447,500.002
414,87.5109,462.061
417,87.1168,369.779
420,86.7176,291.387
423,86.4692,232.48
426,86.3693,191.705
429,86.0546,151.609
432,85.9365,93.9031
435,85.8311,58.62855
438,85.8276,27.8339
441,85.9762,11.5044
444,85.9994,0.254516
447,85.786,-2.823761
450,85.8023,-2.505534
453,85.8087,-1.43777
456,85.9764,-0.189459
459,85.9543,0.10691
462,85.8993,1.165028
465,85.7339,1.244035
468,85.99,0.865289
471,85.8347,1.293887
474,85.7427,0.416004
477,85.8573,0.208811
480,86.0578,-0.717371
483,86.0147,1.050368
486,85.9557,-0.827151
489,85.8351,1.665973
492,85.9095,-0.573165
495,85.727,-0.11841
498,85.7997,0.46263
501,85.8355,0.087469
504,85.8033,-1.622386
507,85.9618,-2.108449
510,85.9994,2.531994
513,85.9503,0.624221
516,85.8474,0.306587
519,85.9168,-0.308453
522,85.8825,0.738126
525,85.9352,0.404338
528,85.8236,2.101232
531,85.9118,0.859273
534,85.8842,-1.348879
537,86.0661,0.804842
540,85.7828,0.78456
543,85.8372,0.967197
546,85.8497,0.416724
549,85.8884,1.150921
552,85.8547,2.746534
555,85.825,5.957042
558,85.8518,2.293431
561,85.8033,0.421954
564,85.8297,1.822919
567,85.9074,1.624176
570,85.8382,2.098709
573,85.9766,1.719624
576,85.7998,1.265472
579,85.7699,1.444538
582,85.9009,0.297707
585,85.8725,-1.303099
588,85.8023,-1.717098
591,86.0586,0.333463
594,85.9175,0.985533
597,85.9495,-1.569245
600,85.9043,0.766382

File: NIST_Cone_25kW_3.csv
Time,Mass,HRR
[s],[g],[kW/m2]
0,160.569,2.088128
3,160.628,2.418713
6,160.693,1.172552
9,160.685,0.39606
12,160.821,-0.24532
15,160.784,-0.251545
18,160.558,1.266802
21,160.956,0.784348
24,161.033,-0.58965
27,160.903,-2.024904
30,160.846,-0.124717
33,160.681,1.483866
36,161.08,-0.870424
39,160.971,-0.341798
42,160.722,0.079798
45,160.675,-0.400038
48,160.937,-2.299528
51,160.797,-0.481062
54,160.763,-0.370262
57,160.797,-0.458864
60,160.886,-0.133143
63,160.915,-0.317679
66,160.686,0.598518
69,161.018,1.082834
72,160.841,2.60582
75,160.517,1.003103
78,160.721,-0.893903
81,160.678,1.654359
84,160.847,0.524922
87,161.024,-0.090507
90,160.724,2.5319
93,160.821,1.673732
96,160.669,-0.550454
99,160.727,-1.290204
102,160.67,0.426694
105,160.546,-0.590169
108,160.522,9.599345
111,160.467,50.1929
114,160.258,139.82
117,159.844,178.883
120,159.682,236.781
123,159.354,307.854
126,159.088,335.379
129,158.532,374.376
132,157.988,384.189
135,157.383,399.509
138,157.036,391.065
141,156.446,401.037
144,156.004,403.196
147,155.446,401.584
150,155.119,408.709
153,154.517,411.112
156,154.147,419.948
159,153.466,419.364
162,152.797,416.543
165,152.508,424.317
168,152.117,425.116
171,151.446,433.415
174,150.98,429.269
177,150.427,428.144
180,149.936,442.6
183,149.132,444.848
186,148.689,426.624
189,148.059,446.25
192,147.598,436.792
195,146.95,448.405
198,146.558,448.804
201,145.884,447.71
204,145.349,462.724
207,144.908,464.088
210,144.283,465.139
213,143.683,472.186
216,142.841,474.394
219,142.398,475.263
222,141.964,488.36
225,141.316,482.138
228,140.671,490.753
231,140.116,494.547
234,139.386,495.866
237,138.768,510.718
240,138.174,513.381
243,137.431,509.861
246,136.85,514.629
249,136.376,526.927
252,135.465,530.298
255,134.843,535.907
258,134.332,535.437
261,133.528,544.732
264,132.85,552.315
267,132.276,563.062
270,131.561,550.913
273,130.901,555.429
276,130.186,564.362
279,129.387,572.997
282,128.628,568.515
285,127.987,574.33
288,127.157,592.255
291,126.592,588.814
294,125.79,592.16
297,125.108,602.496
300,124.423,613.469
303,123.521,609.115
306,122.894,599.714
309,121.995,595.241
312,121.179,606.677
315,120.507,619.589
318,119.742,618.088
321,118.976,622.711
324,118.076,626.238
327,117.31,622.023
330,116.781,628.312
333,115.87,620.737
336,114.989,652.874
339,114.182,660.053
342,113.31,648.418
345,112.61,663.442
348,111.798,671.812
351,111.093,670.727
354,110.121,676.473
357,109.408,679.732
360,108.679,682.599
363,107.473,694.386
366,106.738,699.865
369,105.95,705.282
372,105.002,683.958
375,104.176,699.488
378,103.303,685.76
381,102.466,708.646
384,101.525,720.646
387,100.583,710.597
390,99.6389,705.125
393,98.9092,711.452
396,98.1038,706.131
399,97.1652,702.887
402,96.2849,696.727
405,95.4059,673.34
408,94.6472,652.64
411,93.8303,634.164
414,93.0075,626.379
417,92.461,619.473
420,91.6332,591.745
423,90.8335,590.649
426,90.2303,577.079
429,89.5323,535.222
432,88.9918,502.57
435,88.3671,450.682
438,87.9701,373.428
441,87.4975,298.114
444,87.131,240.802
447,86.9242,183.932
450,86.8197,122.893
453,86.6382,83.9969
456,86.6739,52.2276
459,86.5989,14.79
462,86.6815,-0.277904
465,86.7709,2.771044
468,86.6263,-2.711742
471,86.5999,-2.927059
474,86.6583,-0.97201
477,86.7239,-1.051076
480,86.5811,-2.627834
483,86.6365,-1.847568
486,86.6639,-2.821883
489,86.5874,-0.017419
492,86.7107,0.324472
495,86.5872,0.466434
498,86.7479,0.193794
501,86.6135,-1.284459
504,86.5754,1.162678
507,86.7281,-3.367719
510,86.716,-0.095898
513,86.6394,-1.777693
516,86.7617,-0.153802
519,86.7402,-0.781411
522,86.6445,1.350366
525,86.5228,0.185744
528,86.9242,-0.278955
531,86.6077,0.871779
534,86.5991,1.172069
537,86.5717,-0.537654
540,86.7003,-0.357078
543,86.6639,1.60733
546,86.7459,0.749904
549,86.51,0.496715
552,86.7185,0.278265
555,86.5251,-0.84823
558,86.593,0.753883
561,86.6764,9.863171
564,86.7091,-2.789882
567,86.5372,-0.985044
570,86.6434,0.385933
573,86.7645,0.472627
576,86.5612,1.171332
579,86.6992,0.424646
582,86.6396,-0.744747
585,86.6215,0.244545
588,86.5865,0.52325
591,86.606,0.286516
594,86.698,-1.790149
597,86.6921,-1.567578
600,86.8427,0.661885

File: NIST_DSC_N2_10K_1.csv
Time,Temperature,Heat Flow
[s],[K],[mW/mg]
0,303.147,0.003923031
72.054,306.147,0.13411
91.3692,309.147,0.21848
106.4256,312.147,0.28764
119.7894,315.147,0.344
132.4218,318.147,0.38708
144.8148,321.147,0.41738
157.2972,324.147,0.43621
170.1138,327.147,0.44472
183.4434,330.147,0.4452
197.4132,333.147,0.4403
212.0958,336.147,0.43267
227.4702,339.147,0.4244
243.423,342.147,0.41563
259.8042,345.147,0.40439
276.4308,348.147,0.39438
293.199,351.147,0.39004
310.0296,354.147,0.39015
326.9184,357.147,0.39166
343.8792,360.147,0.39403
360.9438,363.147,0.39589
378.1668,366.147,0.39715
395.5698,369.147,0.39776
413.178,372.147,0.39799
430.9932,375.147,0.39814
448.9692,378.147,0.39867
467.0628,381.147,0.40091
485.199,384.147,0.40448
503.3676,387.147,0.4102
521.5104,390.147,0.41873
539.5872,393.147,0.42978
557.6046,396.147,0.44354
575.5554,399.147,0.45556
593.4966,402.147,0.46354
611.4018,405.147,0.46848
629.2914,408.147,0.47167
647.1792,411.147,0.47496
665.0646,414.147,0.47785
682.9476,417.147,0.48085
700.8462,420.147,0.4836
718.7604,423.147,0.48567
736.7148,426.147,0.48869
754.6884,429.147,0.49214
772.6818,432.147,0.49671
790.6794,435.147,0.50313
808.6722,438.147,0.51034
826.6734,441.147,0.51926
844.7082,444.147,0.52807
862.7508,447.147,0.53718
880.8102,450.147,0.54732
898.8684,453.147,0.55668
916.9158,456.147,0.56319
934.9542,459.147,0.56726
952.9998,462.147,0.56773
971.0262,465.147,0.56474
989.0586,468.147,0.55918
1007.088,471.147,0.55329
1025.12,474.147,0.55047
1043.16,477.147,0.55082
1061.24,480.147,0.55373
1079.319,483.147,0.55873
1097.39,486.147,0.56249
1115.46,489.147,0.56241
1133.51,492.147,0.55758
1151.57,495.147,0.54915
1169.63,498.147,0.53932
1187.703,501.147,0.53214
1205.77,504.147,0.52831
1223.83,507.147,0.52736
1241.883,510.147,0.52725
1259.943,513.147,0.52827
1278.006,516.147,0.53001
1296.07,519.147,0.53225
1314.123,522.147,0.53493
1332.19,525.147,0.5381
1350.25,528.147,0.54254
1368.31,531.147,0.54707
1386.37,534.147,0.55204
1404.43,537.147,0.55752
1422.49,540.147,0.56364
1440.54,543.147,0.57097
1458.6,546.147,0.57879
1476.65,549.147,0.5883
1494.69,552.147,0.59863
1512.73,555.147,0.61116
1530.76,558.147,0.62406
1548.76,561.147,0.63829
1566.75,564.147,0.65557
1584.75,567.147,0.67243
1602.79,570.147,0.68753
1620.84,573.147,0.70034
1638.909,576.147,0.7129
1656.96,579.147,0.72721
1674.987,582.147,0.74371
1693.02,585.147,0.76632
1711.04,588.147,0.79884
1729.062,591.147,0.84332
1747.08,594.147,0.90023
1765.1,597.147,0.96659
1783.15,600.147,1.04334
1801.25,603.147,1.13446
1819.39,606.147,1.24251
1837.52,609.147,1.36989
1855.67,612.147,1.51784
1873.82,615.147,1.68664
1891.96,618.147,1.87356
1910.1,621.147,2.07389
1928.19,624.147,2.28029
1946.25,627.147,2.48343
1964.27,630.147,2.67133
1982.235,633.147,2.82712
2000.16,636.147,2.93542
2018.04,639.147,2.96872
2035.88,642.147,2.95167
2053.7,645.147,2.88561
2071.515,648.147,2.82
2089.34,651.147,2.66115
2107.18,654.147,2.42469
2125.02,657.147,2.1504
2142.87,660.147,1.85577
2160.78,663.147,1.58226
2178.72,666.147,1.31863
2196.73,669.147,1.08859
2214.77,672.147,0.89221
2232.87,675.147,0.72324
2251.01,678.147,0.58313
2269.176,681.147,0.47092
2287.35,684.147,0.38593
2305.512,687.147,0.32247
2323.638,690.147,0.27635
2341.74,693.147,0.24436
2359.81,696.147,0.22368
2377.84,699.147,0.21709
2395.82,702.147,0.23407
2413.85,705.147,0.24559
2431.93,708.147,0.24001
2450.04,711.147,0.21822
2468.21,714.147,0.17107
2486.319,717.147,0.16611
2504.36,720.147,0.16529
2522.36,723.147,0.16671
2540.35,726.147,0.16767
2558.33,729.147,0.1682
2576.328,732.147,0.16861
2594.31,735.147,0.16957
2612.29,738.147,0.17091
2630.27,741.147,0.17244
2648.27,744.147,0.1736
2666.26,747.147,0.17559
2684.262,750.147,0.18082
2702.277,753.147,0.18382
2720.298,756.147,0.18611
2738.337,759.147,0.18757
2756.33,762.147,0.18868
2774.313,765.147,0.18943
2792.3,768.147,0.19057
2810.29,771.147,0.19168
2828.28,774.147,0.19259
2846.27,777.147,0.1934
2864.26,780.147,0.19403
2882.238,783.147,0.19545
2900.229,786.147,0.19675
2918.25,789.147,0.19818
2936.26,792.147,0.20022
2954.28,795.147,0.20173
2972.271,798.147,0.20333
2990.24,801.147,0.20503
3008.19,804.147,0.20612
3026.142,807.147,0.20799
3044.13,810.147,0.20932
3062.11,813.147,0.21028
3080.11,816.147,0.21019
3098.13,819.147,0.21179
3116.17,822.147,0.21314
3134.199,825.147,0.21538
3152.26,828.147,0.21771
3170.3,831.147,0.22059
3188.34,834.147,0.22345
3206.37,837.147,0.22623
3224.376,840.147,0.22777
3242.4,843.147,0.22862
3260.43,846.147,0.23074
3278.45,849.147,0.23265
3296.451,852.147,0.23532
3314.44,855.147,0.23782
3332.43,858.147,0.24099
3350.46,861.147,0.2436
3368.496,864.147,0.24642
3386.5,867.147,0.25716
3404.45,870.147,0.26803
3422.475,873.147,0.27159
3440.52,876.147,0.27473
3458.574,879.147,0.27805
3476.62,882.147,0.28117
3494.66,885.147,0.26659
3512.69,888.147,0.26969
3530.71,891.147,0.27228
3548.7,894.147,0.27589
3566.67,897.147,0.27837
3584.65,900.147,0.28192
3602.56,903.147,0.28586
3620.5,906.147,0.28733
3638.54,909.147,0.28979
3656.559,912.147,0.29228
3674.59,915.147,0.29544
3692.57,918.147,0.29791
3710.56,921.147,0.303
3728.571,924.147,0.30638
3746.55,927.147,0.30934
3764.55,930.147,0.31294
3782.57,933.147,0.31591
3800.58,936.147,0.31911
3818.61,939.147,0.32108
3836.637,942.147,0.32349
3854.63,945.147,0.32551
3872.59,948.147,0.3272
3890.6,951.147,0.33014
3908.59,954.147,0.33236
3926.57,957.147,0.33479
3944.58,960.147,0.3373
3962.583,963.147,0.33956
3980.59,966.147,0.34187
3998.58,969.147,0.34469
4016.55,972.147,0.34681
4034.55,975.147,0.34948
4052.59,978.147,0.35121
4070.62,981.147,0.35459
4088.63,984.147,0.35774
4106.6,987.147,0.36028
4124.56,990.147,0.36325
4142.54,993.147,0.36516
4160.5,996.147,0.36789
4166.53,997.147,0.36842