Folder: matl-db/PMMA/Calibration_Data/Sandia (part 4)

File: Sandia_TGA_Ar_50K_1.csv
Time,Temperature,Mass,
[s],[K],[mg],
1200.1,306.872,5.37E+00,
1303.65,308.572,5.37E+00,
1323.87,310.272,5.36E+00,
1337.42,311.972,5.36E+00,
1347.96,313.672,5.36E+00,
1356.75,315.372,5.36E+00,
1364.37,317.072,5.36E+00,
1371.15,318.772,5.36E+00,
1377.303,320.472,5.36E+00,
1382.94,322.172,5.35E+00,
1388.18,323.872,5.35E+00,
1393.1,325.572,5.36E+00,
1397.74,327.272,5.35E+00,
1402.13,328.972,5.35E+00,
1406.31,330.672,5.35E+00,
1410.32,332.372,5.35E+00,
1414.15,334.072,5.35E+00,
1417.85,335.772,5.35E+00,
1421.41,337.472,5.35E+00,
1424.87,339.172,5.35E+00,
1428.21,340.872,5.35E+00,
1431.462,342.572,5.35E+00,
1434.64,344.272,5.35E+00,
1437.74,345.972,5.35E+00,
1440.76,347.672,5.35E+00,
1443.7,349.372,5.35E+00,
1446.59,351.072,5.35E+00,
1449.43,352.772,5.35E+00,
1452.21,354.472,5.35E+00,
1454.93,356.172,5.35E+00,
1457.607,357.872,5.35E+00,
1460.235,359.572,5.35E+00,
1462.809,361.272,5.34E+00,
1465.34,362.972,5.35E+00,
1467.837,364.672,5.34E+00,
1470.29,366.372,5.34E+00,
1472.697,368.072,5.34E+00,
1475.085,369.772,5.34E+00,
1477.43,371.472,5.34E+00,
1479.75,373.172,5.34E+00,
1482.05,374.872,5.34E+00,
1484.31,376.572,5.34E+00,
1486.55,378.272,5.34E+00,
1488.765,379.972,5.34E+00,
1490.961,381.672,5.34E+00,
1493.14,383.372,5.34E+00,
1495.3,385.072,5.34E+00,
1497.435,386.772,5.34E+00,
1499.55,388.472,5.34E+00,
1501.65,390.172,5.34E+00,
1503.73,391.872,5.34E+00,
1505.79,393.572,5.34E+00,
1507.83,395.272,5.34E+00,
1509.86,396.972,5.34E+00,
1511.87,398.672,5.34E+00,
1513.86,400.372,5.34E+00,
1515.83,402.072,5.34E+00,
1517.78,403.772,5.34E+00,
1519.72,405.472,5.33E+00,
1521.64,407.172,5.33E+00,
1523.54,408.872,5.33E+00,
1525.44,410.572,5.33E+00,
1527.31,412.272,5.33E+00,
1529.18,413.972,5.33E+00,
1531.029,415.672,5.33E+00,
1532.86,417.372,5.33E+00,
1534.69,419.072,5.33E+00,
1536.5,420.772,5.32E+00,
1538.31,422.472,5.32E+00,
1540.1,424.172,5.32E+00,
1541.88,425.872,5.32E+00,
1543.65,427.572,5.32E+00,
1545.41,429.272,5.31E+00,
1547.16,430.972,5.31E+00,
1548.9,432.672,5.31E+00,
1550.64,434.372,5.31E+00,
1552.36,436.072,5.30E+00,
1554.08,437.772,5.30E+00,
1555.79,439.472,5.30E+00,
1557.49,441.172,5.29E+00,
1559.18,442.872,5.29E+00,
1560.87,444.572,5.28E+00,
1562.544,446.272,5.2719,
1564.21,447.972,5.2652,
1565.88,449.672,5.25619,
1567.53,451.372,5.24787,
1569.18,453.072,5.23662,
1570.82,454.772,5.22471,
1572.441,456.472,5.21323,
1574.07,458.172,5.20315,
1575.68,459.872,5.19699,
1577.28,461.572,5.18904,
1578.88,463.272,5.1821,
1580.481,464.972,5.17705,
1582.071,466.672,5.17022,
1583.652,468.372,5.16538,
1585.23,470.072,5.15999,
1586.79,471.772,5.1549,
1588.359,473.472,5.14901,
1589.92,475.172,5.14294,
1591.47,476.872,5.13622,
1593.02,478.572,5.13239,
1594.56,480.272,5.12575,
1596.102,481.972,5.119,
1597.64,483.672,5.1151,
1599.16,485.372,5.10842,
1600.69,487.072,5.10102,
1602.21,488.772,5.0973,
1603.72,490.472,5.08989,
1605.23,492.172,5.0846,
1606.74,493.872,5.08112,
1608.25,495.572,5.07562,
1609.75,497.272,5.07202,
1611.24,498.972,5.06856,
1612.731,500.672,5.06492,
1614.22,502.372,5.06312,
1615.7,504.072,5.061,
1617.18,505.772,5.05985,
1618.659,507.472,5.05801,
1620.129,509.172,5.05501,
1621.59,510.872,5.05492,
1623.06,512.572,5.05399,
1624.52,514.272,5.05307,
1625.97,515.972,5.05103,
1627.43,517.672,5.04969,
1628.88,519.372,5.04997,
1630.32,521.072,5.04801,
1631.76,522.772,5.04891,
1633.2,524.472,5.04701,
1634.64,526.172,5.04427,
1636.07,527.872,5.04408,
1637.51,529.572,5.04298,
1638.93,531.272,5.04088,
1640.36,532.972,5.03782,
1641.78,534.672,5.03685,
1643.2,536.372,5.03621,
1644.61,538.072,5.03179,
1646.03,539.772,5.02968,
1647.438,541.472,5.02748,
1648.85,543.172,5.0232,
1650.25,544.872,5.01782,
1651.66,546.572,5.01431,
1653.06,548.272,5.00909,
1654.47,549.972,5.00424,
1655.862,551.672,4.99932,
1657.26,553.372,4.99423,
1658.658,555.072,4.98732,
1660.053,556.772,4.97698,
1661.45,558.472,4.96631,
1662.837,560.172,4.95773,
1664.226,561.872,4.94767,
1665.61,563.572,4.93785,
1667,565.272,4.9276,
1668.38,566.972,4.9191,
1669.77,568.672,4.90965,
1671.15,570.372,4.89955,
1672.53,572.072,4.88866,
1673.91,573.772,4.87888,
1675.29,575.472,4.86609,
1676.66,577.172,4.85527,
1678.04,578.872,4.84264,
1679.41,580.572,4.83303,
1680.79,582.272,4.82104,
1682.16,583.972,4.80845,
1683.53,585.672,4.79571,
1684.9,587.372,4.78101,
1686.27,589.072,4.76631,
1687.64,590.772,4.75064,
1689,592.472,4.73449,
1690.37,594.172,4.71791,
1691.74,595.872,4.69935,
1693.1,597.572,4.67993,
1694.47,599.272,4.65847,
1695.83,600.972,4.63544,
1697.2,602.672,4.60965,
1698.56,604.372,4.58291,
1699.93,606.072,4.5544,
1701.29,607.772,4.52515,
1702.65,609.472,4.491,
1704.02,611.172,4.46047,
1705.38,612.872,4.42506,
1706.75,614.572,4.38248,
1708.11,616.272,4.34166,
1709.475,617.972,4.29679,
1710.84,619.672,4.24876,
1712.21,621.372,4.19589,
1713.58,623.072,4.08468,
1714.944,624.772,3.92097,
1716.312,626.472,3.85132,
1717.683,628.172,3.77802,
1719.05,629.872,3.7049,
1720.43,631.572,3.62464,
1721.8,633.272,3.54455,
1723.17,634.972,3.45852,
1724.55,636.672,3.37156,
1725.93,638.372,3.27879,
1727.31,640.072,3.19441,
1728.69,641.772,3.09979,
1730.07,643.472,3.0013,
1731.453,645.172,2.90149,
1732.83,646.872,2.79191,
1734.22,648.572,2.68631,
1735.61,650.272,2.58081,
1737,651.972,2.47197,
1738.392,653.672,2.36211,
1739.78,655.372,2.25557,
1741.18,657.072,2.14696,
1742.58,658.772,2.04297,
1743.98,660.472,1.9303,
1745.379,662.172,1.82531,
1746.783,663.872,1.71668,
1748.19,665.572,1.60569,
1749.6,667.272,1.49998,
1751.01,668.972,1.4058,
1752.43,670.672,1.30397,
1753.84,672.372,1.20264,
1755.26,674.072,1.10555,
1756.68,675.772,1.013,
1758.11,677.472,0.91833,
1759.54,679.172,0.83123,
1760.97,680.872,0.74943,
1762.401,682.572,0.66839,
1763.838,684.272,0.59636,
1765.278,685.972,0.52908,
1766.72,687.672,0.46693,
1768.16,689.372,0.4123,
1769.61,691.072,0.36375,
1771.05,692.772,0.32216,
1772.5,694.472,0.28012,
1773.95,696.172,0.24572,
1775.4,697.872,0.22208,
1776.85,699.572,0.19282,
1778.31,701.272,0.16875,
1779.77,702.972,0.14879,
1781.22,704.672,0.13549,
1782.687,706.372,0.12815,
1784.15,708.072,0.11928,
1785.62,709.772,0.11078,
1787.09,711.472,0.10204,
1788.57,713.172,0.09172,
1790.05,714.872,0.08221,
1791.53,716.572,0.07186,
1793.007,718.272,0.06592,
1794.5,719.972,0.06001,
1795.99,721.672,0.05718,
1797.48,723.372,0.05302,
1798.98,725.072,0.05098,
1800.48,726.772,0.04896,
1801.98,728.472,0.04621,
1803.49,730.172,0.04409,
1805,731.872,0.04179,
1806.52,733.572,0.04092,
1808.034,735.272,0.0422,
1809.56,736.972,0.0409,
1811.08,738.672,0.04,
1812.62,740.372,0.04,
1814.15,742.072,0.04004,
1815.69,743.772,0.04,
1817.24,745.472,0.04099,
1818.78,747.172,0.03998,
1820.33,748.872,0.03912,
1821.89,750.572,0.04099,
1823.445,752.272,0.04015,
1825.01,753.972,0.04094,
1826.58,755.672,0.039,
1828.15,757.372,0.04095,
1829.73,759.072,0.03899,
1831.32,760.772,0.03897,
1832.901,762.472,0.039,
1834.5,764.172,0.03902,
1836.09,765.872,0.04003,
1837.69,767.572,0.04005,
1839.29,769.272,0.03897,
1840.9,770.972,0.039,
1842.513,772.672,0.039,
1844.127,774.372,0.03794,
1845.75,776.072,0.04,
1847.373,777.772,0.04016,
1849,779.472,0.04001,
1850.64,781.172,0.04,
1852.27,782.872,0.04019,
1853.91,784.572,0.04103,
1855.56,786.272,0.03994,
1857.21,787.972,0.03999,
1858.86,789.672,0.03995,
1860.52,791.372,0.04092,
1862.18,793.072,0.04159,
1863.85,794.772,0.04097,
1865.52,796.472,0.04201,
1867.2,798.172,0.041,
1868.87,799.872,0.04107,
1870.55,801.572,0.041,
1872.24,803.272,0.04119,
1873.929,804.972,0.041,
1875.621,806.672,0.04194,
1877.32,808.372,0.04091,
1879.02,810.072,0.03928,
1880.73,811.772,0.04004,
1882.44,813.472,0.03999,
1883.93,814.872,0.03999,

File: Sandia_TGA_Ar_50K_2.csv
Time,Temperature,Mass,
[s],[K],[mg],
1200.1,306.94,4.84E+00,
1303.854,308.64,4.84E+00,
1323.927,310.34,4.84E+00,
1337.325,312.04,4.84E+00,
1347.76,313.74,4.84E+00,
1356.46,315.44,4.84E+00,
1364.02,317.14,4.84E+00,
1370.71,318.84,4.84E+00,
1376.754,320.54,4.84E+00,
1382.33,322.24,4.84E+00,
1387.48,323.94,4.84E+00,
1392.34,325.64,4.84E+00,
1396.91,327.34,4.84E+00,
1401.24,329.04,4.84E+00,
1405.36,330.74,4.84E+00,
1409.31,332.44,4.84E+00,
1413.087,334.14,4.83E+00,
1416.72,335.84,4.84E+00,
1420.23,337.54,4.84E+00,
1423.626,339.24,4.84E+00,
1426.902,340.94,4.84E+00,
1430.1,342.64,4.84E+00,
1433.217,344.34,4.83E+00,
1436.26,346.04,4.83E+00,
1439.232,347.74,4.83E+00,
1442.14,349.44,4.83E+00,
1444.98,351.14,4.83E+00,
1447.77,352.84,4.83E+00,
1450.488,354.54,4.84E+00,
1453.16,356.24,4.84E+00,
1455.79,357.94,4.84E+00,
1458.37,359.64,4.84E+00,
1460.9,361.34,4.83E+00,
1463.39,363.04,4.83E+00,
1465.845,364.74,4.83E+00,
1468.26,366.44,4.83E+00,
1470.636,368.14,4.83E+00,
1472.98,369.84,4.83E+00,
1475.29,371.54,4.83E+00,
1477.57,373.24,4.83E+00,
1479.82,374.94,4.83E+00,
1482.06,376.64,4.83E+00,
1484.26,378.34,4.83E+00,
1486.44,380.04,4.83E+00,
1488.61,381.74,4.83E+00,
1490.75,383.44,4.83E+00,
1492.88,385.14,4.83E+00,
1494.98,386.84,4.83E+00,
1497.069,388.54,4.83E+00,
1499.14,390.24,4.83E+00,
1501.19,391.94,4.83E+00,
1503.23,393.64,4.83E+00,
1505.25,395.34,4.83E+00,
1507.24,397.04,4.83E+00,
1509.23,398.74,4.82E+00,
1511.19,400.44,4.82E+00,
1513.15,402.14,4.82E+00,
1515.081,403.84,4.82E+00,
1517.004,405.54,4.82E+00,
1518.9,407.24,4.82E+00,
1520.79,408.94,4.82E+00,
1522.66,410.64,4.82E+00,
1524.525,412.34,4.82E+00,
1526.37,414.04,4.82E+00,
1528.2,415.74,4.82E+00,
1530.03,417.44,4.81E+00,
1531.842,419.14,4.81E+00,
1533.64,420.84,4.81E+00,
1535.43,422.54,4.81E+00,
1537.212,424.24,4.81E+00,
1538.98,425.94,4.80E+00,
1540.74,427.64,4.80E+00,
1542.5,429.34,4.80E+00,
1544.24,431.04,4.80E+00,
1545.98,432.74,4.79E+00,
1547.7,434.44,4.79E+00,
1549.42,436.14,4.79E+00,
1551.13,437.84,4.79E+00,
1552.84,439.54,4.78E+00,
1554.54,441.24,4.78E+00,
1556.229,442.94,4.77E+00,
1557.912,444.64,4.77E+00,
1559.59,446.34,4.76E+00,
1561.257,448.04,4.76E+00,
1562.92,449.74,4.75E+00,
1564.575,451.44,4.74E+00,
1566.222,453.14,4.73436,
1567.86,454.84,4.72713,
1569.49,456.54,4.72002,
1571.12,458.24,4.71298,
1572.73,459.94,4.70591,
1574.35,461.64,4.69891,
1575.951,463.34,4.69289,
1577.55,465.04,4.68591,
1579.14,466.74,4.68016,
1580.73,468.44,4.67392,
1582.31,470.14,4.66799,
1583.89,471.84,4.66303,
1585.458,473.54,4.65705,
1587.02,475.24,4.65325,
1588.59,476.94,4.64712,
1590.15,478.64,4.64086,
1591.7,480.34,4.635,
1593.246,482.04,4.63048,
1594.79,483.74,4.62509,
1596.33,485.44,4.6189,
1597.87,487.14,4.61502,
1599.4,488.84,4.60891,
1600.93,490.54,4.60287,
1602.46,492.24,4.60013,
1603.98,493.94,4.59566,
1605.49,495.64,4.59101,
1607,497.34,4.58691,
1608.52,499.04,4.5829,
1610.02,500.74,4.58003,
1611.52,502.44,4.57688,
1613.02,504.14,4.57513,
1614.52,505.84,4.57386,
1616.01,507.54,4.57093,
1617.5,509.24,4.571,
1618.98,510.94,4.5679,
1620.46,512.64,4.56708,
1621.93,514.34,4.56706,
1623.41,516.04,4.56599,
1624.878,517.74,4.56499,
1626.34,519.44,4.56324,
1627.8,521.14,4.56313,
1629.27,522.84,4.56204,
1630.73,524.54,4.561,
1632.18,526.24,4.56103,
1633.63,527.94,4.55785,
1635.08,529.64,4.55809,
1636.53,531.34,4.55776,
1637.97,533.04,4.55498,
1639.42,534.74,4.55338,
1640.85,536.44,4.55119,
1642.29,538.14,4.54899,
1643.73,539.84,4.54687,
1645.16,541.54,4.5438,
1646.59,543.24,4.54198,
1648.01,544.94,4.54012,
1649.44,546.64,4.53526,
1650.86,548.34,4.53199,
1652.28,550.04,4.5261,
1653.7,551.74,4.52099,
1655.12,553.44,4.51589,
1656.54,555.14,4.51085,
1657.95,556.84,4.50617,
1659.37,558.54,4.49846,
1660.78,560.24,4.49058,
1662.19,561.94,4.48198,
1663.6,563.64,4.47087,
1665.01,565.34,4.46244,
1666.42,567.04,4.45179,
1667.82,568.74,4.44374,
1669.22,570.44,4.43435,
1670.62,572.14,4.42543,
1672.02,573.84,4.41571,
1673.43,575.54,4.40667,
1674.82,577.24,4.39564,
1676.22,578.94,4.38692,
1677.62,580.64,4.37485,
1679.01,582.34,4.36502,
1680.4,584.04,4.35394,
1681.8,585.74,4.34415,
1683.19,587.44,4.33055,
1684.58,589.14,4.31703,
1685.97,590.84,4.30424,
1687.36,592.54,4.29044,
1688.75,594.24,4.27635,
1690.13,595.94,4.26147,
1691.52,597.64,4.24364,
1692.91,599.34,4.22689,
1694.3,601.04,4.20804,
1695.68,602.74,4.18726,
1697.07,604.44,4.16446,
1698.46,606.14,4.14142,
1699.842,607.84,4.11572,
1701.23,609.54,4.09007,
1702.62,611.24,4.06076,
1704.003,612.94,4.02778,
1705.39,614.64,3.99761,
1706.77,616.34,3.96328,
1708.16,618.04,3.92555,
1709.55,619.74,3.88547,
1710.936,621.44,3.84476,
1712.33,623.14,3.79829,
1713.714,624.84,3.74857,
1715.11,626.54,3.69877,
1716.498,628.24,3.64605,
1717.89,629.94,3.43334,
1719.28,631.64,3.36492,
1720.68,633.34,3.29775,
1722.07,635.04,3.23089,
1723.46,636.74,3.15324,
1724.86,638.44,3.07288,
1726.26,640.14,2.99749,
1727.661,641.84,2.91123,
1729.06,643.54,2.82887,
1730.47,645.24,2.75427,
1731.873,646.94,2.66541,
1733.28,648.64,2.57056,
1734.69,650.34,2.47188,
1736.1,652.04,2.37707,
1737.51,653.74,2.27409,
1738.93,655.44,2.16988,
1740.34,657.14,2.07594,
1741.758,658.84,1.98182,
1743.17,660.54,1.88538,
1744.6,662.24,1.79171,
1746.02,663.94,1.69276,
1747.45,665.64,1.59443,
1748.87,667.34,1.49394,
1750.31,669.04,1.39262,
1751.74,670.74,1.29232,
1753.17,672.44,1.20571,
1754.6,674.14,1.11514,
1756.04,675.84,1.02435,
1757.48,677.54,0.93805,
1758.927,679.24,0.85755,
1760.37,680.94,0.77683,
1761.82,682.64,0.70317,
1763.27,684.34,0.62675,
1764.72,686.04,0.55738,
1766.18,687.74,0.49658,
1767.64,689.44,0.44309,
1769.09,691.14,0.39824,
1770.55,692.84,0.35371,
1772.01,694.54,0.31694,
1773.48,696.24,0.27962,
1774.94,697.94,0.25311,
1776.402,699.64,0.22839,
1777.87,701.34,0.20738,
1779.34,703.04,0.19173,
1780.82,704.74,0.17884,
1782.29,706.44,0.16806,
1783.77,708.14,0.16052,
1785.25,709.84,0.15029,
1786.728,711.54,0.13878,
1788.21,713.24,0.12749,
1789.7,714.94,0.118,
1791.19,716.64,0.11033,
1792.68,718.34,0.10509,
1794.18,720.04,0.09787,
1795.68,721.74,0.09505,
1797.18,723.44,0.09032,
1798.68,725.14,0.08804,
1800.19,726.84,0.084,
1801.7,728.54,0.083,
1803.21,730.24,0.07992,
1804.73,731.94,0.07803,
1806.25,733.64,0.07601,
1807.77,735.34,0.07504,
1809.303,737.04,0.076,
1810.83,738.74,0.07393,
1812.37,740.44,0.07499,
1813.91,742.14,0.074,
1815.447,743.84,0.07403,
1816.99,745.54,0.07501,
1818.54,747.24,0.07407,
1820.09,748.94,0.07401,
1821.65,750.64,0.07332,
1823.21,752.34,0.07342,
1824.77,754.04,0.07508,
1826.34,755.74,0.07404,
1827.91,757.44,0.07506,
1829.48,759.14,0.07399,
1831.07,760.84,0.07297,
1832.649,762.54,0.07398,
1834.24,764.24,0.07394,
1835.83,765.94,0.07298,
1837.42,767.64,0.07386,
1839.02,769.34,0.07203,
1840.62,771.04,0.07299,
1842.23,772.74,0.07201,
1843.85,774.44,0.07298,
1845.46,776.14,0.073,
1847.08,777.84,0.072,
1848.705,779.54,0.07298,
1850.34,781.24,0.07202,
1851.966,782.94,0.07324,
1853.6,784.64,0.07238,
1855.245,786.34,0.07301,
1856.889,788.04,0.072,
1858.53,789.74,0.073,
1860.18,791.44,0.07205,
1861.84,793.14,0.07401,
1863.5,794.84,0.07398,
1865.169,796.54,0.07311,
1866.84,798.24,0.07227,
1868.52,799.94,0.0721,
1870.19,801.64,0.073,
1871.874,803.34,0.072,
1873.56,805.04,0.07299,
1875.25,806.74,0.07323,
1876.95,808.44,0.07317,
1878.642,810.14,0.07199,
1880.35,811.84,0.073,
1882.05,813.54,0.07199,
1883.77,815.24,0.073,
1883.9,815.34,0.073,

File: Sandia_TGA_Ar_50K_3.csv
Time,Temperature,Mass,
[s],[K],[mg],
1200.1,306.944,4.68E+00,
1303.16,308.644,4.67E+00,
1323.43,310.344,4.66E+00,
1336.947,312.044,4.66E+00,
1347.47,313.744,4.66E+00,
1356.21,315.444,4.65E+00,
1363.758,317.144,4.65E+00,
1370.49,318.844,4.65E+00,
1376.56,320.544,4.65E+00,
1382.16,322.244,4.65E+00,
1387.35,323.944,4.65E+00,
1392.23,325.644,4.65E+00,
1396.818,327.344,4.65E+00,
1401.17,329.044,4.65E+00,
1405.28,330.744,4.65E+00,
1409.25,332.444,4.65E+00,
1413.05,334.144,4.65E+00,
1416.69,335.844,4.65E+00,
1420.23,337.544,4.65E+00,
1423.64,339.244,4.65E+00,
1426.93,340.944,4.65E+00,
1430.157,342.644,4.64E+00,
1433.3,344.344,4.64E+00,
1436.37,346.044,4.64E+00,
1439.36,347.744,4.65E+00,
1442.28,349.444,4.64E+00,
1445.14,351.144,4.64E+00,
1447.94,352.844,4.64E+00,
1450.695,354.544,4.65E+00,
1453.39,356.244,4.64E+00,
1456.04,357.944,4.64E+00,
1458.64,359.644,4.64E+00,
1461.19,361.344,4.64E+00,
1463.71,363.044,4.64E+00,
1466.18,364.744,4.64E+00,
1468.6,366.444,4.64E+00,
1471,368.144,4.64E+00,
1473.36,369.844,4.64E+00,
1475.7,371.544,4.64E+00,
1478,373.244,4.64E+00,
1480.27,374.944,4.64E+00,
1482.52,376.644,4.64E+00,
1484.74,378.344,4.64E+00,
1486.947,380.044,4.64E+00,
1489.13,381.744,4.64E+00,
1491.3,383.444,4.64E+00,
1493.44,385.144,4.64E+00,
1495.57,386.844,4.64E+00,
1497.67,388.544,4.64E+00,
1499.75,390.244,4.64E+00,
1501.82,391.944,4.64E+00,
1503.88,393.644,4.64E+00,
1505.91,395.344,4.64E+00,
1507.929,397.044,4.64E+00,
1509.93,398.744,4.63E+00,
1511.91,400.444,4.63E+00,
1513.87,402.144,4.63E+00,
1515.82,403.844,4.63E+00,
1517.75,405.544,4.63E+00,
1519.67,407.244,4.63E+00,
1521.58,408.944,4.63E+00,
1523.47,410.644,4.63E+00,
1525.341,412.344,4.63E+00,
1527.207,414.044,4.63E+00,
1529.05,415.744,4.63E+00,
1530.89,417.444,4.62E+00,
1532.71,419.144,4.62E+00,
1534.53,420.844,4.62E+00,
1536.33,422.544,4.62E+00,
1538.118,424.244,4.62E+00,
1539.9,425.944,4.62E+00,
1541.67,427.644,4.62E+00,
1543.428,429.344,4.62E+00,
1545.19,431.044,4.62E+00,
1546.93,432.744,4.61E+00,
1548.669,434.444,4.61E+00,
1550.4,436.144,4.61E+00,
1552.12,437.844,4.61E+00,
1553.83,439.544,4.61E+00,
1555.53,441.244,4.61E+00,
1557.23,442.944,4.60E+00,
1558.93,444.644,4.60E+00,
1560.61,446.344,4.60E+00,
1562.28,448.044,4.60E+00,
1563.951,449.744,4.59E+00,
1565.61,451.444,4.59E+00,
1567.26,453.144,4.59E+00,
1568.91,454.844,4.58199,
1570.54,456.544,4.57764,
1572.171,458.244,4.57139,
1573.79,459.944,4.56608,
1575.41,461.644,4.55979,
1577.02,463.344,4.55473,
1578.62,465.044,4.54835,
1580.22,466.744,4.54283,
1581.81,468.444,4.53693,
1583.391,470.144,4.53212,
1584.97,471.844,4.52636,
1586.544,473.544,4.52164,
1588.11,475.244,4.51594,
1589.67,476.944,4.51107,
1591.24,478.644,4.50456,
1592.79,480.344,4.50055,
1594.341,482.044,4.49467,
1595.88,483.744,4.48802,
1597.43,485.444,4.48311,
1598.961,487.144,4.47581,
1600.494,488.844,4.47002,
1602.02,490.544,4.46254,
1603.55,492.244,4.45476,
1605.06,493.944,4.44506,
1606.58,495.644,4.43567,
1608.09,497.344,4.42601,
1609.6,499.044,4.4215,
1611.1,500.744,4.417,
1612.6,502.444,4.4129,
1614.1,504.144,4.409,
1615.59,505.844,4.40551,
1617.08,507.544,4.4032,
1618.56,509.244,4.40072,
1620.04,510.944,4.39795,
1621.52,512.644,4.39703,
1623,514.344,4.39503,
1624.47,516.044,4.39386,
1625.94,517.744,4.39193,
1627.401,519.444,4.3915,
1628.862,521.144,4.39003,
1630.317,522.844,4.38891,
1631.77,524.544,4.38962,
1633.22,526.244,4.38701,
1634.67,527.944,4.38498,
1636.12,529.644,4.38593,
1637.56,531.344,4.38438,
1639,533.044,4.38261,
1640.44,534.744,4.37957,
1641.87,536.444,4.37821,
1643.307,538.144,4.37601,
1644.74,539.844,4.37389,
1646.16,541.544,4.37315,
1647.58,543.244,4.37036,
1649.01,544.944,4.3672,
1650.43,546.644,4.36299,
1651.84,548.344,4.35899,
1653.26,550.044,4.35332,
1654.67,551.744,4.35002,
1656.08,553.444,4.34504,
1657.491,555.144,4.34004,
1658.9,556.844,4.33303,
1660.3,558.544,4.32801,
1661.7,560.244,4.32001,
1663.107,561.944,4.30994,
1664.51,563.644,4.30091,
1665.91,565.344,4.29095,
1667.3,567.044,4.27901,
1668.7,568.744,4.272,
1670.09,570.444,4.26304,
1671.483,572.144,4.25309,
1672.88,573.844,4.24397,
1674.27,575.544,4.23537,
1675.66,577.244,4.22614,
1677.05,578.944,4.21527,
1678.44,580.644,4.20376,
1679.823,582.344,4.19367,
1681.209,584.044,4.18294,
1682.59,585.744,4.17164,
1683.98,587.444,4.16118,
1685.36,589.144,4.14842,
1686.738,590.844,4.13567,
1688.12,592.544,4.12169,
1689.504,594.244,4.10796,
1690.884,595.944,4.0912,
1692.27,597.644,4.0733,
1693.65,599.344,4.05684,
1695.027,601.044,4.0374,
1696.41,602.744,4.01751,
1697.787,604.444,3.99528,
1699.17,606.144,3.97158,
1700.544,607.844,3.94703,
1701.92,609.544,3.92061,
1703.31,611.244,3.89085,
1704.69,612.944,3.8604,
1706.064,614.644,3.82683,
1707.45,616.344,3.7908,
1708.83,618.044,3.7597,
1710.207,619.744,3.7204,
1711.59,621.444,3.67715,
1712.97,623.144,3.63238,
1714.353,624.844,3.58807,
1715.74,626.544,3.53698,
1717.12,628.244,3.48533,
1718.5,629.944,3.43134,
1719.89,631.644,3.2185,
1721.28,633.344,3.15207,
1722.66,635.044,3.08337,
1724.05,636.744,3.01367,
1725.44,638.444,2.9427,
1726.833,640.144,2.86645,
1728.23,641.844,2.7884,
1729.62,643.544,2.70308,
1731.02,645.244,2.61995,
1732.41,646.944,2.54269,
1733.811,648.644,2.45748,
1735.21,650.344,2.36364,
1736.61,652.044,2.2738,
1738.02,653.744,2.18335,
1739.42,655.444,2.09159,
1740.828,657.144,1.9969,
1742.24,658.844,1.90659,
1743.648,660.544,1.81682,
1745.06,662.244,1.72536,
1746.48,663.944,1.63772,
1747.89,665.644,1.54536,
1749.315,667.344,1.44802,
1750.74,669.044,1.35449,
1752.16,670.744,1.26153,
1753.59,672.444,1.1639,
1755.02,674.144,1.06056,
1756.44,675.844,0.98868,
1757.877,677.544,0.9033,
1759.31,679.244,0.81437,
1760.74,680.944,0.73596,
1762.18,682.644,0.66232,
1763.62,684.344,0.59426,
1765.07,686.044,0.52197,
1766.517,687.744,0.45508,
1767.97,689.444,0.39776,
1769.41,691.144,0.3458,
1770.86,692.844,0.30328,
1772.31,694.544,0.2624,
1773.77,696.244,0.22791,
1775.22,697.944,0.19822,
1776.68,699.644,0.16948,
1778.14,701.344,0.14742,
1779.6,703.044,0.13092,
1781.055,704.744,0.12117,
1782.52,706.444,0.1119,
1783.99,708.144,0.10465,
1785.46,709.844,0.09633,
1786.93,711.544,0.08685,
1788.4,713.244,0.07764,
1789.87,714.944,0.06923,
1791.35,716.644,0.06101,
1792.82,718.344,0.05588,
1794.3,720.044,0.05,
1795.78,721.744,0.04766,
1797.264,723.444,0.04314,
1798.75,725.144,0.04211,
1800.24,726.844,0.03793,
1801.73,728.544,0.03599,
1803.23,730.244,0.03383,
1804.73,731.944,0.03286,
1806.237,733.644,0.03309,
1807.75,735.344,0.03194,
1809.27,737.044,0.032,
1810.79,738.744,0.03112,
1812.32,740.444,0.03101,
1813.85,742.144,0.03002,
1815.38,743.844,0.03102,
1816.92,745.544,0.03095,
1818.46,747.244,0.03015,
1820.01,748.944,0.03003,
1821.56,750.644,0.0309,
1823.11,752.344,0.03,
1824.67,754.044,0.032,
1826.229,755.744,0.03004,
1827.79,757.444,0.03093,
1829.37,759.144,0.03196,
1830.94,760.844,0.02999,
1832.52,762.544,0.031,
1834.09,764.244,0.031,
1835.68,765.944,0.03103,
1837.26,767.644,0.03006,
1838.85,769.344,0.03109,
1840.45,771.044,0.02945,
1842.05,772.744,0.03,
1843.66,774.444,0.03102,
1845.27,776.144,0.031,
1846.88,777.844,0.031,
1848.5,779.544,0.03101,
1850.12,781.244,0.03092,
1851.75,782.944,0.03046,
1853.38,784.644,0.031,
1855.01,786.344,0.03097,
1856.65,788.044,0.031,
1858.296,789.744,0.031,
1859.94,791.444,0.02999,
1861.6,793.144,0.03195,
1863.25,794.844,0.03042,
1864.91,796.544,0.03009,
1866.58,798.244,0.032,
1868.25,799.944,0.03005,
1869.927,801.644,0.031,
1871.61,803.344,0.02999,
1873.287,805.044,0.03203,
1874.97,806.744,0.03195,
1876.66,808.444,0.03102,
1878.36,810.144,0.03001,
1880.06,811.844,0.031,
1881.76,813.544,0.03147,
1883.466,815.244,0.03099,
1883.91,815.644,0.031,