Folder: matl-db/PMMA/Calibration_Data/Sandia (part 3)

File: Sandia_TGA_Ar_1K_1.csv
Time,Temperature,Mass
[s],[K],[mg]
1202.3,307.031,4.929
1624.67,309.031,4.93
1795.12,311.031,4.933
1941.42,313.031,4.931
2077.69,315.031,4.9289
2208.444,317.031,4.932
2336.56,319.031,4.932
2462.42,321.031,4.931
2586.9,323.031,4.931
2710.36,325.031,4.9332
2832.762,327.031,4.9313
2954.07,329.031,4.929
3074.97,331.031,4.9295
3195.462,333.031,4.9315
3314.99,335.031,4.93
3434.24,337.031,4.927
3553.38,339.031,4.9289
3671.52,341.031,4.926
3789.06,343.031,4.925
3905.72,345.031,4.9252
4021.98,347.031,4.9271
4137.885,349.031,4.925
4253.73,351.031,4.924
4369.66,353.031,4.922
4484.69,355.031,4.921
4600.04,357.031,4.9225
4714.95,359.031,4.922
4828.7,361.031,4.918
4942.32,363.031,4.919
5055.82,365.031,4.918
5169.02,367.031,4.917
5281.962,369.031,4.916
5394.98,371.031,4.914
5508.32,373.031,4.913
5621.292,375.031,4.915
5734.08,377.031,4.913
5846.331,379.031,4.912
5958.87,381.031,4.91103
6071.52,383.031,4.91001
6184.035,385.031,4.907
6296.41,387.031,4.90811
6408.08,389.031,4.907
6520.047,391.031,4.908
6631.446,393.031,4.907
6742.32,395.031,4.90537
6852.99,397.031,4.905
6963.79,399.031,4.90302
7074.696,401.031,4.901
7185.71,403.031,4.9
7296.4,405.031,4.899
7407.11,407.031,4.896
7518,409.031,4.889
7628.331,411.031,4.8891
7738.098,413.031,4.887
7848.11,415.031,4.883
7958.286,417.031,4.882
8068.14,419.031,4.876
8177.71,421.031,4.873
8287.24,423.031,4.867
8396.44,425.031,4.86
8506.41,427.031,4.8539
8616.25,429.031,4.847
8726.63,431.031,4.8401
8837.37,433.031,4.831
8948.25,435.031,4.82
9058.93,437.031,4.8089
9169.83,439.031,4.803
9280.82,441.031,4.793
9391.59,443.031,4.78604
9502.53,445.031,4.78001
9613.42,447.031,4.77199
9724.56,449.031,4.765
9835,451.031,4.762
9945.53,453.031,4.757
10056.7,455.031,4.754
10167.3,457.031,4.74778
10278,459.031,4.74599
10388.5,461.031,4.74538
10498.812,463.031,4.74198
10608.6,465.031,4.738
10717.797,467.031,4.739
10827.1,469.031,4.737
10936.527,471.031,4.737
11046,473.031,4.736
11155.2,475.031,4.736
11263.3,477.031,4.734
11371.5,479.031,4.73
11480.5,481.031,4.73
11589.8,483.031,4.73223
11699,485.031,4.734
11808.576,487.031,4.73
11918.511,489.031,4.73
12028.851,491.031,4.73
12139.6,493.031,4.727
12250.1,495.031,4.725
12359.5,497.031,4.722
12468.8,499.031,4.72016
12577.8,501.031,4.7159
12687.4,503.031,4.71199
12798.3,505.031,4.71
12909,507.031,4.70602
13019.2,509.031,4.701
13129.3,511.031,4.692
13239.3,513.031,4.68709
13350.3,515.031,4.68197
13460.6,517.031,4.675
13570.4,519.031,4.669
13681.8,521.031,4.662
13794.8,523.031,4.655
13908.6,525.031,4.64489
14022.438,527.031,4.6362
14136.2,529.031,4.62502
14249.9,531.031,4.6152
14364,533.031,4.60199
14477.7,535.031,4.58987
14591.1,537.031,4.57801
14704.707,539.031,4.562
14819,541.031,4.54855
14933.6,543.031,4.53407
15048.2,545.031,4.51995
15163,547.031,4.50304
15278.1,549.031,4.48601
15393.1,551.031,4.46901
15507.7,553.031,4.45099
15622.3,555.031,4.4344
15737.4,557.031,4.41479
15852.6,559.031,4.39543
15967.8,561.031,4.37647
16083.8,563.031,4.35566
16199.8,565.031,4.33402
16315.1,567.031,4.312
16429.7,569.031,4.28789
16544.769,571.031,4.26088
16660.5,573.031,4.23502
16776.222,575.031,4.2058
16892.7,577.031,4.17294
17008.9,579.031,4.13892
17125.2,581.031,4.10108
17241.8,583.031,4.05686
17358.5,585.031,4.00827
17475.1,587.031,3.95466
17591.4,589.031,3.8955
17707.4,591.031,3.82697
17823.3,593.031,3.74993
17938.9,595.031,3.66453
18055.1,597.031,3.56805
18170.5,599.031,3.46075
18285.9,601.031,3.34176
18401.259,603.031,3.20917
18517,605.031,3.06697
18633.663,607.031,2.91476
18749.9,609.031,2.75479
18865.6,611.031,2.59501
18980.1,613.031,2.43325
19096.9,615.031,2.25857
19212.8,617.031,2.08187
19328.7,619.031,1.91057
19445,621.031,1.73962
19562,623.031,1.56138
19678.8,625.031,1.39686
19795.4,627.031,1.23639
19912.4,629.031,1.08129
20029.6,631.031,0.94253
20146.3,633.031,0.81597
20264.1,635.031,0.70078
20382.6,637.031,0.59618
20499.6,639.031,0.50192
20616.4,641.031,0.42451
20734.7,643.031,0.35442
20855.5,645.031,0.29833
20975,647.031,0.24755
21093.2,649.031,0.20915
21211,651.031,0.17401
21329.5,653.031,0.14638
21447.9,655.031,0.12333
21565.8,657.031,0.10511
21684.2,659.031,0.08702
21802.2,661.031,0.07006
21920.724,663.031,0.05659
22040.6,665.031,0.046
22160.6,667.031,0.04096
22279.8,669.031,0.0369
22398.8,671.031,0.033
22517.6,673.031,0.032
22638.6,675.031,0.032
22763.3,677.031,0.02803
22886.6,679.031,0.027
23010.9,681.031,0.0291
23133.6,683.031,0.027
23256.3,685.031,0.028
23377.2,687.031,0.028
23497.9,689.031,0.029
23618.8,691.031,0.027
23740.8,693.031,0.02496
23863.8,695.031,0.025
23985.8,697.031,0.025
24108.012,699.031,0.025
24229.098,701.031,0.028
24349.7,703.031,0.027
24472.1,705.031,0.027
24599.166,707.031,0.02645
24725.8,709.031,0.027
24853.3,711.031,0.026
24979.5,713.031,0.026
25107.9,715.031,0.025
25236.4,717.031,0.025
25362.543,719.031,0.0242
25486.5,721.031,0.024
25609.8,723.031,0.026
25733.5,725.031,0.026
25858.8,727.031,0.025
25985.5,729.031,0.026
26114.505,731.031,0.027
26245.4,733.031,0.026
26372.1,735.031,0.024
26499.3,737.031,0.02638
26626.3,739.031,0.027
26753.4,741.031,0.028
26881.2,743.031,0.02997
27012.1,745.031,0.028
27142,747.031,0.029
27265,749.031,0.029
27389.3,751.031,0.03
27515.718,753.031,0.027
27642.6,755.031,0.029
27767.9,757.031,0.028
27893.4,759.031,0.029
28020.5,761.031,0.029
28147.5,763.031,0.029
28273.4,765.031,0.02833
28399.5,767.031,0.028
28526.9,769.031,0.029
28654.1,771.031,0.029
28785.4,773.031,0.028
28920.5,775.031,0.026
29050.6,777.031,0.027
29174.4,779.031,0.02802
29298.7,781.031,0.026
29422.2,783.031,0.027
29549.6,785.031,0.025
29682.4,787.031,0.025
29818.2,789.031,0.027
29943.2,791.031,0.02508
30069.1,793.031,0.02392
30199,795.031,0.028
30327.336,797.031,0.028
30454.4,799.031,0.02804
30586.1,801.031,0.028
30718.6,803.031,0.027
30849.8,805.031,0.029
30982.2,807.031,0.027
31112.6,809.031,0.028
31243.425,811.031,0.029
31371.5,813.031,0.028
31498.02,815.031,0.024
31625.6,817.031,0.024
31750.569,819.031,0.02291
31873.6,821.031,0.026
32001.5,823.031,0.027
32133.3,825.031,0.026
32264,827.031,0.025
32393.7,829.031,0.025
32520.699,831.031,0.026
32650.5,833.031,0.028
32781.2,835.031,0.02697
32913.954,837.031,0.027
33050.6,839.031,0.027
33184,841.031,0.02393
33315,843.031,0.025
33448.6,845.031,0.025
33582.666,847.031,0.025
33711.5,849.031,0.025
33841.2,851.031,0.023
33969.4,853.031,0.025
34095.2,855.031,0.026
34218.33,857.031,0.025
34341.2,859.031,0.025
34466,861.031,0.02393
34588.866,863.031,0.024
34711.9,865.031,0.02293
34838.3,867.031,0.024
34958.1,869.031,0.02401
35066.238,871.031,0.029
35175.1,873.031,0.028
35308.1,875.031,0.028
35377.23,876.031,0.028

File: Sandia_TGA_Ar_10K_1.csv
Time,Temperature,Mass,
[s],[K],[mg],
1209.15,307.216,4.91E+00,
1386.97,309.116,4.92E+00,
1429.46,311.016,4.92E+00,
1459.95,312.916,4.92E+00,
1484.83,314.816,4.92E+00,
1506.56,316.716,4.92E+00,
1526.13,318.616,4.92E+00,
1544.11,320.516,4.93E+00,
1560.96,322.416,4.93E+00,
1576.92,324.316,4.93E+00,
1592.14,326.216,4.93E+00,
1606.731,328.116,4.93E+00,
1620.86,330.016,4.93E+00,
1634.54,331.916,4.93E+00,
1647.76,333.816,4.93E+00,
1660.695,335.716,4.92E+00,
1673.331,337.616,4.92E+00,
1685.7,339.516,4.92E+00,
1697.89,341.416,4.92E+00,
1709.88,343.316,4.92E+00,
1721.67,345.216,4.92E+00,
1733.31,347.116,4.92E+00,
1744.83,349.016,4.92E+00,
1756.22,350.916,4.92E+00,
1767.44,352.816,4.92E+00,
1778.54,354.716,4.92E+00,
1789.54,356.616,4.92E+00,
1800.38,358.516,4.92E+00,
1811.1,360.416,4.91E+00,
1821.66,362.316,4.91E+00,
1832.196,364.216,4.91E+00,
1842.66,366.116,4.91E+00,
1852.95,368.016,4.91E+00,
1863.16,369.916,4.91E+00,
1873.32,371.816,4.91E+00,
1883.37,373.716,4.91E+00,
1893.39,375.616,4.91E+00,
1903.359,377.516,4.91E+00,
1913.28,379.416,4.90E+00,
1923.16,381.316,4.90E+00,
1933,383.216,4.90E+00,
1942.8,385.116,4.90E+00,
1952.56,387.016,4.90E+00,
1962.34,388.916,4.90E+00,
1972.05,390.816,4.90E+00,
1981.73,392.716,4.90E+00,
1991.36,394.616,4.90E+00,
2000.949,396.516,4.89E+00,
2010.534,398.416,4.89E+00,
2020.089,400.316,4.89E+00,
2029.59,402.216,4.89E+00,
2039.09,404.116,4.89E+00,
2048.57,406.016,4.89E+00,
2057.99,407.916,4.89E+00,
2067.39,409.816,4.89E+00,
2076.759,411.716,4.89E+00,
2086.12,413.616,4.88E+00,
2095.46,415.516,4.88E+00,
2104.76,417.416,4.88E+00,
2114.06,419.316,4.88E+00,
2123.36,421.216,4.88E+00,
2132.63,423.116,4.87E+00,
2141.901,425.016,4.87E+00,
2151.17,426.916,4.87E+00,
2160.45,428.816,4.87E+00,
2169.7,430.716,4.86E+00,
2178.96,432.616,4.86E+00,
2188.227,434.516,4.86E+00,
2197.51,436.416,4.85E+00,
2206.78,438.316,4.85E+00,
2216.06,440.216,4.84E+00,
2225.34,442.116,4.84E+00,
2234.6,444.016,4.83E+00,
2243.87,445.916,4.83E+00,
2253.144,447.816,4.82E+00,
2262.46,449.716,4.81387,
2271.78,451.616,4.80502,
2281.056,453.516,4.79581,
2290.34,455.416,4.78901,
2299.64,457.316,4.7805,
2308.94,459.216,4.775,
2318.24,461.116,4.76493,
2327.553,463.016,4.758,
2336.89,464.916,4.74782,
2346.24,466.816,4.74179,
2355.57,468.716,4.7343,
2364.91,470.616,4.72802,
2374.25,472.516,4.72102,
2383.63,474.416,4.71501,
2393,476.316,4.70793,
2402.39,478.216,4.70088,
2411.79,480.116,4.696,
2421.25,482.016,4.69175,
2430.68,483.916,4.68508,
2440.12,485.816,4.681,
2449.6,487.716,4.67706,
2459.09,489.616,4.674,
2468.577,491.516,4.67197,
2478.08,493.416,4.67106,
2487.62,495.316,4.669,
2497.15,497.216,4.66797,
2506.69,499.116,4.66482,
2516.274,501.016,4.665,
2525.85,502.916,4.663,
2535.43,504.816,4.663,
2545.06,506.716,4.661,
2554.668,508.616,4.661,
2564.29,510.516,4.659,
2573.907,512.416,4.659,
2583.564,514.316,4.65701,
2593.23,516.216,4.65517,
2602.93,518.116,4.652,
2612.63,520.016,4.65002,
2622.35,521.916,4.64869,
2632.08,523.816,4.646,
2641.85,525.716,4.644,
2651.66,527.616,4.642,
2661.444,529.516,4.63999,
2671.26,531.416,4.63801,
2681.067,533.316,4.63584,
2690.91,535.216,4.63294,
2700.76,537.116,4.629,
2710.65,539.016,4.62451,
2720.55,540.916,4.621,
2730.462,542.816,4.616,
2740.41,544.716,4.61202,
2750.36,546.616,4.60603,
2760.33,548.516,4.59972,
2770.33,550.416,4.59202,
2780.36,552.316,4.58486,
2790.39,554.216,4.57865,
2800.45,556.116,4.56986,
2810.52,558.016,4.56103,
2820.58,559.916,4.55105,
2830.66,561.816,4.542,
2840.763,563.716,4.53043,
2850.89,565.616,4.51878,
2861.019,567.516,4.50797,
2871.17,569.416,4.49601,
2881.314,571.316,4.48305,
2891.48,573.216,4.46999,
2901.654,575.116,4.45622,
2911.81,577.016,4.44413,
2921.97,578.916,4.4284,
2932.176,580.816,4.41321,
2942.37,582.716,4.39413,
2952.56,584.616,4.37667,
2962.74,586.516,4.35778,
2972.99,588.416,4.3405,
2983.27,590.316,4.32215,
2993.54,592.216,4.30202,
3003.79,594.116,4.27794,
3014.07,596.016,4.25274,
3024.36,597.916,4.22586,
3034.67,599.816,4.19805,
3044.99,601.716,4.16625,
3055.33,603.616,4.13108,
3065.69,605.516,4.09564,
3076.04,607.416,4.05294,
3086.39,609.316,4.00968,
3096.753,611.216,3.94798,
3107.151,613.116,3.89649,
3117.55,615.016,3.82993,
3127.95,616.916,3.76297,
3138.37,618.816,3.68917,
3148.83,620.716,3.60711,
3159.282,622.616,3.5178,
3169.737,624.516,3.42112,
3180.2,626.416,3.31758,
3190.7,628.316,3.20586,
3201.207,630.216,3.08835,
3211.707,632.116,2.96521,
3222.222,634.016,2.83314,
3232.75,635.916,2.69802,
3243.27,637.816,2.55738,
3253.82,639.716,2.41288,
3264.37,641.616,2.26199,
3274.92,643.516,2.11151,
3285.438,645.416,1.9522,
3295.97,647.316,1.79666,
3306.53,649.216,1.64124,
3317.1,651.116,1.48979,
3327.7,653.016,1.34267,
3338.298,654.916,1.20088,
3348.9,656.816,1.06972,
3359.472,658.716,0.94291,
3370.07,660.616,0.82688,
3380.66,662.516,0.72081,
3391.251,664.416,0.62679,
3401.83,666.316,0.54462,
3412.41,668.216,0.4687,
3422.97,670.116,0.40215,
3433.58,672.016,0.34541,
3444.16,673.916,0.30294,
3454.75,675.816,0.25995,
3465.354,677.716,0.22014,
3475.965,679.616,0.18494,
3486.57,681.516,0.16079,
3497.21,683.416,0.14031,
3507.86,685.316,0.12098,
3518.52,687.216,0.10406,
3529.215,689.116,0.08913,
3539.92,691.016,0.07826,
3550.67,692.916,0.06647,
3561.42,694.816,0.05656,
3572.23,696.716,0.04809,
3583.026,698.616,0.04354,
3593.86,700.516,0.0388,
3604.71,702.416,0.03484,
3615.59,704.316,0.03094,
3626.49,706.216,0.027,
3637.42,708.116,0.025,
3648.39,710.016,0.023,
3659.36,711.916,0.02301,
3670.35,713.816,0.024,
3681.38,715.716,0.02492,
3692.45,717.616,0.02487,
3703.55,719.516,0.024,
3714.68,721.416,0.023,
3725.85,723.316,0.02203,
3737.03,725.216,0.02202,
3748.26,727.116,0.02187,
3759.49,729.016,0.022,
3770.77,730.916,0.02,
3782.06,732.816,0.02,
3793.4,734.716,0.018,
3804.79,736.616,0.018,
3816.2,738.516,0.01799,
3827.61,740.416,0.02,
3839.04,742.316,0.02,
3850.51,744.216,0.02003,
3861.963,746.116,0.01979,
3873.44,748.016,0.0221,
3884.93,749.916,0.021,
3896.48,751.816,0.019,
3908.02,753.716,0.018,
3919.61,755.616,0.01891,
3931.22,757.516,0.019,
3942.86,759.416,0.01899,
3954.51,761.316,0.02001,
3966.21,763.216,0.02101,
3977.88,765.116,0.02208,
3989.57,767.016,0.022,
4001.25,768.916,0.02,
4012.94,770.816,0.021,
4024.647,772.716,0.021,
4036.34,774.616,0.021,
4048.07,776.516,0.02302,
4059.77,778.416,0.021,
4071.492,780.316,0.023,
4083.24,782.216,0.023,
4095.03,784.116,0.023,
4106.79,786.016,0.023,
4118.56,787.916,0.02286,
4130.35,789.816,0.02,
4142.14,791.716,0.021,
4153.97,793.616,0.021,
4165.77,795.516,0.02102,
4177.57,797.416,0.022,
4189.37,799.316,0.022,
4201.18,801.216,0.022,
4213.01,803.116,0.02201,
4224.84,805.016,0.022,
4236.67,806.916,0.02,
4248.46,808.816,0.021,
4260.249,810.716,0.021,
4272.06,812.616,0.023,
4283.868,814.516,0.02078,
4295.68,816.416,0.023,
4307.53,818.316,0.021,
4319.385,820.216,0.02295,
4331.24,822.116,0.021,
4343.08,824.016,0.022,
4354.959,825.916,0.023,
4366.83,827.816,0.023,
4378.67,829.716,0.02236,
4390.49,831.616,0.022,
4402.341,833.516,0.022,
4414.15,835.416,0.019,
4425.95,837.316,0.01939,
4437.74,839.216,0.019,
4449.5,841.116,0.018,
4461.3,843.016,0.018,
4473.12,844.916,0.02,
4484.91,846.816,0.018,
4496.75,848.716,0.02,
4508.63,850.616,0.02005,
4520.553,852.516,0.02,
4532.53,854.416,0.019,
4544.55,856.316,0.02102,
4556.54,858.216,0.02105,
4568.53,860.116,0.021,
4580.51,862.016,0.02101,
4592.49,863.916,0.022,
4604.43,865.816,0.021,
4616.36,867.716,0.021,
4628.439,869.616,0.02,

File: Sandia_TGA_Ar_10K_2.csv
Time,Temperature,Mass,
[s],[K],[mg],
1200.35,308.35,4.84E+00,
1384.52,310.25,4.84E+00,
1428.59,312.15,4.83E+00,
1460.457,314.05,4.83E+00,
1486.79,315.95,4.83E+00,
1509.69,317.85,4.83E+00,
1530.42,319.75,4.83E+00,
1549.53,321.65,4.83E+00,
1567.449,323.55,4.83E+00,
1584.37,325.45,4.83E+00,
1600.49,327.35,4.82E+00,
1615.98,329.25,4.82E+00,
1630.95,331.15,4.82E+00,
1645.38,333.05,4.82E+00,
1659.42,334.95,4.83E+00,
1673.049,336.85,4.82E+00,
1686.34,338.75,4.82E+00,
1699.35,340.65,4.83E+00,
1712.08,342.55,4.83E+00,
1724.61,344.45,4.82E+00,
1736.91,346.35,4.82E+00,
1749.01,348.25,4.83E+00,
1760.96,350.15,4.83E+00,
1772.748,352.05,4.82E+00,
1784.34,353.95,4.83E+00,
1795.81,355.85,4.83E+00,
1807.14,357.75,4.82E+00,
1818.31,359.65,4.83E+00,
1829.38,361.55,4.83E+00,
1840.27,363.45,4.83E+00,
1851.06,365.35,4.83E+00,
1861.752,367.25,4.83E+00,
1872.33,369.15,4.83E+00,
1882.854,371.05,4.83E+00,
1893.279,372.95,4.83E+00,
1903.626,374.85,4.83E+00,
1913.92,376.75,4.83E+00,
1924.14,378.65,4.83E+00,
1934.32,380.55,4.83E+00,
1944.45,382.45,4.83E+00,
1954.52,384.35,4.83E+00,
1964.56,386.25,4.83E+00,
1974.56,388.15,4.83E+00,
1984.52,390.05,4.83E+00,
1994.45,391.95,4.83E+00,
2004.31,393.85,4.83E+00,
2014.15,395.75,4.83E+00,
2023.93,397.65,4.83E+00,
2033.67,399.55,4.82E+00,
2043.38,401.45,4.83E+00,
2053.07,403.35,4.83E+00,
2062.677,405.25,4.82E+00,
2072.25,407.15,4.82E+00,
2081.78,409.05,4.82E+00,
2091.31,410.95,4.82E+00,
2100.792,412.85,4.82E+00,
2110.251,414.75,4.82E+00,
2119.686,416.65,4.82E+00,
2129.09,418.55,4.82E+00,
2138.47,420.45,4.82E+00,
2147.841,422.35,4.81E+00,
2157.19,424.25,4.81E+00,
2166.549,426.15,4.81E+00,
2175.89,428.05,4.81E+00,
2185.2,429.95,4.81E+00,
2194.53,431.85,4.80E+00,
2203.851,433.75,4.80E+00,
2213.18,435.65,4.80E+00,
2222.52,437.55,4.79E+00,
2231.86,439.45,4.79E+00,
2241.19,441.35,4.78E+00,
2250.53,443.25,4.78E+00,
2259.86,445.15,4.77E+00,
2269.18,447.05,4.76E+00,
2278.51,448.95,4.76E+00,
2287.85,450.85,4.75E+00,
2297.17,452.75,4.74E+00,
2306.49,454.65,4.74E+00,
2315.817,456.55,4.72583,
2325.15,458.45,4.71706,
2334.46,460.35,4.70906,
2343.77,462.25,4.70214,
2353.08,464.15,4.69483,
2362.39,466.05,4.68624,
2371.71,467.95,4.67787,
2381.05,469.85,4.67293,
2390.373,471.75,4.66686,
2399.69,473.65,4.66101,
2409.06,475.55,4.65548,
2418.41,477.45,4.64905,
2427.79,479.35,4.64424,
2437.17,481.25,4.63806,
2446.55,483.15,4.633,
2455.94,485.05,4.62922,
2465.36,486.95,4.625,
2474.772,488.85,4.623,
2484.192,490.75,4.623,
2493.618,492.65,4.62056,
2503.041,494.55,4.61693,
2512.5,496.45,4.614,
2521.97,498.35,4.613,
2531.442,500.25,4.611,
2540.92,502.15,4.609,
2550.42,504.05,4.607,
2559.93,505.95,4.607,
2569.44,507.85,4.607,
2578.97,509.75,4.607,
2588.51,511.65,4.60743,
2598.06,513.55,4.60301,
2607.6,515.45,4.59999,
2617.18,517.35,4.60211,
2626.78,519.25,4.602,
2636.38,521.15,4.5989,
2645.97,523.05,4.595,
2655.58,524.95,4.59401,
2665.2,526.85,4.592,
2674.84,528.75,4.59,
2684.49,530.65,4.58977,
2694.16,532.55,4.58511,
2703.85,534.45,4.58015,
2713.55,536.35,4.575,
2723.27,538.25,4.57501,
2732.985,540.15,4.57,
2742.74,542.05,4.56894,
2752.51,543.95,4.56404,
2762.3,545.85,4.56,
2772.12,547.75,4.55821,
2781.98,549.65,4.54597,
2791.82,551.55,4.53989,
2801.7,553.45,4.5321,
2811.61,555.35,4.52515,
2821.55,557.25,4.518,
2831.51,559.15,4.51107,
2841.48,561.05,4.49885,
2851.46,562.95,4.4891,
2861.487,564.85,4.48008,
2871.513,566.75,4.46849,
2881.56,568.65,4.45499,
2891.631,570.55,4.44127,
2901.71,572.45,4.4289,
2911.788,574.35,4.41547,
2921.91,576.25,4.39978,
2932.017,578.15,4.38682,
2942.14,580.05,4.37302,
2952.28,581.95,4.35615,
2962.44,583.85,4.34415,
2972.6,585.75,4.32249,
2982.8,587.65,4.30546,
2992.99,589.55,4.28882,
3003.21,591.45,4.2755,
3013.46,593.35,4.2513,
3023.7,595.25,4.22521,
3033.978,597.15,4.20195,
3044.27,599.05,4.17257,
3054.56,600.95,4.1444,
3064.857,602.85,4.1102,
3075.177,604.75,4.07347,
3085.53,606.65,4.04007,
3095.88,608.55,3.99226,
3106.27,610.45,3.94531,
3116.68,612.35,3.88551,
3127.08,614.25,3.82822,
3137.48,616.15,3.76131,
3147.93,618.05,3.69112,
3158.4,619.95,3.60833,
3168.9,621.85,3.52137,
3179.44,623.75,3.42975,
3189.95,625.65,3.32998,
3200.499,627.55,3.21753,
3211.06,629.45,3.09878,
3221.62,631.35,2.97592,
3232.2,633.25,2.84665,
3242.79,635.15,2.72051,
3253.37,637.05,2.58148,
3263.95,638.95,2.44036,
3274.51,640.85,2.30356,
3285.04,642.75,2.14066,
3295.54,644.65,1.98811,
3306.09,646.55,1.83543,
3316.638,648.45,1.67057,
3327.2,650.35,1.51509,
3337.8,652.25,1.37173,
3348.39,654.15,1.2255,
3358.99,656.05,1.08782,
3369.618,657.95,0.96587,
3380.259,659.85,0.84996,
3390.89,661.75,0.74736,
3401.547,663.65,0.65141,
3412.218,665.55,0.56729,
3422.88,667.45,0.49937,
3433.55,669.35,0.43497,
3444.25,671.25,0.38751,
3454.96,673.15,0.33191,
3465.67,675.05,0.29161,
3476.4,676.95,0.25131,
3487.14,678.85,0.21499,
3497.895,680.75,0.19251,
3508.65,682.65,0.17269,
3519.42,684.55,0.15275,
3530.205,686.45,0.13406,
3541,688.35,0.12203,
3551.8,690.25,0.11003,
3562.6,692.15,0.10185,
3573.4,694.05,0.09097,
3584.21,695.95,0.08392,
3595.035,697.85,0.07589,
3605.86,699.75,0.06901,
3616.707,701.65,0.06389,
3627.54,703.55,0.059,
3638.391,705.45,0.05803,
3649.26,707.35,0.054,
3660.15,709.25,0.056,
3671.02,711.15,0.05336,
3681.89,713.05,0.055,
3692.775,714.95,0.055,
3703.67,716.85,0.055,
3714.58,718.75,0.057,
3725.5,720.65,0.056,
3736.43,722.55,0.057,
3747.35,724.45,0.055,
3758.325,726.35,0.05701,
3769.32,728.25,0.058,
3780.33,730.15,0.05798,
3791.337,732.05,0.057,
3802.365,733.95,0.05502,
3813.4,735.85,0.056,
3824.45,737.75,0.05607,
3835.51,739.65,0.055,
3846.58,741.55,0.05463,
3857.67,743.45,0.05497,
3868.776,745.35,0.057,
3879.85,747.25,0.057,
3890.92,749.15,0.0538,
3902.02,751.05,0.056,
3913.14,752.95,0.05794,
3924.26,754.85,0.05689,
3935.382,756.75,0.055,
3946.5,758.65,0.05601,
3957.61,760.55,0.05797,
3968.736,762.45,0.056,
3979.87,764.35,0.054,
3991.01,766.25,0.057,
4002.15,768.15,0.0578,
4013.31,770.05,0.057,
4024.47,771.95,0.058,
4035.68,773.85,0.05798,
4046.86,775.75,0.059,
4058.06,777.65,0.05697,
4069.28,779.55,0.057,
4080.513,781.45,0.057,
4091.74,783.35,0.05701,
4102.97,785.25,0.055,
4114.239,787.15,0.05748,
4125.51,789.05,0.05699,
4136.82,790.95,0.059,
4148.14,792.85,0.061,
4159.47,794.75,0.061,
4170.8,796.65,0.0529,
4182.12,798.55,0.05274,
4193.45,800.45,0.055,
4204.785,802.35,0.056,
4216.122,804.25,0.055,
4227.47,806.15,0.058,
4238.81,808.05,0.06004,
4250.15,809.95,0.053,
4261.49,811.85,0.053,
4272.82,813.75,0.05692,
4284.17,815.65,0.05093,
4295.523,817.55,0.053,
4306.845,819.45,0.05803,
4318.191,821.35,0.054,
4329.558,823.25,0.05807,
4340.91,825.15,0.0612,
4352.283,827.05,0.058,
4363.665,828.95,0.05602,
4375.03,830.85,0.056,
4386.38,832.75,0.05501,
4397.77,834.65,0.056,
4409.13,836.55,0.058,
4420.509,838.45,0.058,
4431.89,840.35,0.06,
4443.27,842.25,0.06,
4454.65,844.15,0.05393,
4466.05,846.05,0.05404,
4477.488,847.95,0.056,
4488.91,849.85,0.054,
4500.35,851.75,0.053,
4511.8,853.65,0.05498,
4523.268,855.55,0.05283,
4534.74,857.45,0.054,
4546.22,859.35,0.055,
4557.72,861.25,0.05603,
4569.23,863.15,0.05618,
4580.75,865.05,0.052,
4592.27,866.95,0.055,
4603.78,868.85,0.05383,
4615.296,870.75,0.05738,
4619.6,871.45,0.0539,