Folder: matl-db/PMMA/Calibration_Data/Sandia (part 2)

File: Sandia_DSC_Ar_50K_1.csv
Time,Temperature,Heat Flow
[s],[K],[W/g]
1200.1,306.872,-7.36E-04
1303.65,308.572,-2.06E-02
1323.87,310.272,-5.85E-02
1337.42,311.972,-0.10327
1347.96,313.672,-0.15077
1356.75,315.372,-0.20058
1364.37,317.072,-0.25328
1371.15,318.772,-0.30289
1377.303,320.472,-0.35808
1382.94,322.172,-0.41737
1388.18,323.872,-0.47176
1393.1,325.572,-0.52976
1397.74,327.272,-0.58654
1402.13,328.972,-0.64813
1406.31,330.672,-0.70954
1410.32,332.372,-0.76923
1414.15,334.072,-0.83004
1417.85,335.772,-0.88801
1421.41,337.472,-0.94787
1424.87,339.172,-1.01016
1428.21,340.872,-1.06996
1431.462,342.572,-1.12622
1434.64,344.272,-1.18715
1437.74,345.972,-1.24541
1440.76,347.672,-1.30428
1443.7,349.372,-1.36402
1446.59,351.072,-1.4204
1449.43,352.772,-1.48097
1452.21,354.472,-1.53997
1454.93,356.172,-1.6032
1457.607,357.872,-1.66752
1460.235,359.572,-1.73093
1462.809,361.272,-1.79067
1465.34,362.972,-1.8506
1467.837,364.672,-1.91209
1470.29,366.372,-1.97243
1472.697,368.072,-2.03459
1475.085,369.772,-2.09707
1477.43,371.472,-2.15581
1479.75,373.172,-2.21306
1482.05,374.872,-2.27322
1484.31,376.572,-2.33429
1486.55,378.272,-2.39208
1488.765,379.972,-2.4454
1490.961,381.672,-2.49694
1493.14,383.372,-2.55339
1495.3,385.072,-2.6085
1497.435,386.772,-2.66264
1499.55,388.472,-2.7183
1501.65,390.172,-2.77297
1503.73,391.872,-2.82931
1505.79,393.572,-2.88628
1507.83,395.272,-2.9452
1509.86,396.972,-3.00832
1511.87,398.672,-3.07615
1513.86,400.372,-3.14086
1515.83,402.072,-3.20961
1517.78,403.772,-3.28368
1519.72,405.472,-3.36159
1521.64,407.172,-3.43633
1523.54,408.872,-3.5108
1525.44,410.572,-3.58513
1527.31,412.272,-3.66196
1529.18,413.972,-3.73865
1531.029,415.672,-3.81341
1532.86,417.372,-3.88548
1534.69,419.072,-3.95723
1536.5,420.772,-4.02657
1538.31,422.472,-4.09488
1540.1,424.172,-4.16601
1541.88,425.872,-4.23387
1543.65,427.572,-4.29868
1545.41,429.272,-4.36356
1547.16,430.972,-4.42697
1548.9,432.672,-4.48691
1550.64,434.372,-4.54366
1552.36,436.072,-4.60073
1554.08,437.772,-4.66218
1555.79,439.472,-4.72025
1557.49,441.172,-4.77859
1559.18,442.872,-4.83147
1560.87,444.572,-4.89018
1562.544,446.272,-4.94178
1564.21,447.972,-4.99727
1565.88,449.672,-5.05364
1567.53,451.372,-5.10615
1569.18,453.072,-5.16067
1570.82,454.772,-5.21411
1572.441,456.472,-5.26727
1574.07,458.172,-5.32089
1575.68,459.872,-5.37534
1577.28,461.572,-5.43093
1578.88,463.272,-5.48725
1580.481,464.972,-5.54867
1582.071,466.672,-5.60977
1583.652,468.372,-5.66804
1585.23,470.072,-5.73003
1586.79,471.772,-5.79066
1588.359,473.472,-5.84968
1589.92,475.172,-5.91047
1591.47,476.872,-5.96994
1593.02,478.572,-6.03096
1594.56,480.272,-6.09369
1596.102,481.972,-6.15308
1597.64,483.672,-6.21311
1599.16,485.372,-6.27302
1600.69,487.072,-6.33392
1602.21,488.772,-6.39648
1603.72,490.472,-6.45752
1605.23,492.172,-6.5196
1606.74,493.872,-6.58151
1608.25,495.572,-6.64716
1609.75,497.272,-6.71704
1611.24,498.972,-6.78776
1612.731,500.672,-6.86035
1614.22,502.372,-6.93403
1615.7,504.072,-7.00301
1617.18,505.772,-7.07367
1618.659,507.472,-7.14483
1620.129,509.172,-7.21423
1621.59,510.872,-7.28353
1623.06,512.572,-7.35325
1624.52,514.272,-7.42289
1625.97,515.972,-7.48559
1627.43,517.672,-7.55116
1628.88,519.372,-7.60955
1630.32,521.072,-7.67083
1631.76,522.772,-7.729
1633.2,524.472,-7.79004
1634.64,526.172,-7.84927
1636.07,527.872,-7.91035
1637.51,529.572,-7.97031
1638.93,531.272,-8.0362
1640.36,532.972,-8.10475
1641.78,534.672,-8.16671
1643.2,536.372,-8.21799
1644.61,538.072,-8.26906
1646.03,539.772,-8.33274
1647.438,541.472,-8.38762
1648.85,543.172,-8.4373
1650.25,544.872,-8.49094
1651.66,546.572,-8.54541
1653.06,548.272,-8.58567
1654.47,549.972,-8.62853
1655.862,551.672,-8.67929
1657.26,553.372,-8.71881
1658.658,555.072,-8.75305
1660.053,556.772,-8.78592
1661.45,558.472,-8.82394
1662.837,560.172,-8.85414
1664.226,561.872,-8.88438
1665.61,563.572,-8.90852
1667,565.272,-8.93149
1668.38,566.972,-8.93463
1669.77,568.672,-8.95505
1671.15,570.372,-8.98267
1672.53,572.072,-9.01632
1673.91,573.772,-9.03911
1675.29,575.472,-9.05456
1676.66,577.172,-9.06796
1678.04,578.872,-9.08058
1679.41,580.572,-9.09662
1680.79,582.272,-9.11267
1682.16,583.972,-9.11435
1683.53,585.672,-9.13023
1684.9,587.372,-9.13896
1686.27,589.072,-9.14694
1687.64,590.772,-9.15259
1689,592.472,-9.16002
1690.37,594.172,-9.16228
1691.74,595.872,-9.15457
1693.1,597.572,-9.14015
1694.47,599.272,-9.1242
1695.83,600.972,-9.09737
1697.2,602.672,-9.06388
1698.56,604.372,-9.02738
1699.93,606.072,-8.98979
1701.29,607.772,-8.9359
1702.65,609.472,-8.87197
1704.02,611.172,-8.79938
1705.38,612.872,-8.72068
1706.75,614.572,-8.63139
1708.11,616.272,-8.53336
1709.475,617.972,-8.42487
1710.84,619.672,-8.31293
1712.21,621.372,-8.18041
1713.58,623.072,-8.0434
1714.944,624.772,-7.89678
1716.312,626.472,-7.73898
1717.683,628.172,-7.56705
1719.05,629.872,-7.39722
1720.43,631.572,-7.20803
1721.8,633.272,-7.01888
1723.17,634.972,-6.83
1724.55,636.672,-6.63501
1725.93,638.372,-6.42971
1727.31,640.072,-6.23252
1728.69,641.772,-6.03995
1730.07,643.472,-5.85456
1731.453,645.172,-5.65747
1732.83,646.872,-5.45702
1734.22,648.572,-5.26177
1735.61,650.272,-5.07154
1737,651.972,-4.87331
1738.392,653.672,-4.67377
1739.78,655.372,-4.48826
1741.18,657.072,-4.29491
1742.58,658.772,-4.09533
1743.98,660.472,-3.91018
1745.379,662.172,-3.73641
1746.783,663.872,-3.57852
1748.19,665.572,-3.43767
1749.6,667.272,-3.32486
1751.01,668.972,-3.22898
1752.43,670.672,-3.16549
1753.84,672.372,-3.09812
1755.26,674.072,-3.04447
1756.68,675.772,-3.02042
1758.11,677.472,-3.01435
1759.54,679.172,-3.01593
1760.97,680.872,-3.04936
1762.401,682.572,-3.14486
1763.838,684.272,-3.33108
1765.278,685.972,-3.63632
1766.72,687.672,-4.01098
1768.16,689.372,-4.43004
1769.61,691.072,-4.84715
1771.05,692.772,-5.23629
1772.5,694.472,-5.59638
1773.95,696.172,-5.9272
1775.4,697.872,-6.23978
1776.85,699.572,-6.53459
1778.31,701.272,-6.8232
1779.77,702.972,-7.09053
1781.22,704.672,-7.34924
1782.687,706.372,-7.59953
1784.15,708.072,-7.83096
1785.62,709.772,-8.0497
1787.09,711.472,-8.25618
1788.57,713.172,-8.45292
1790.05,714.872,-8.63415
1791.53,716.572,-8.8138
1793.007,718.272,-8.97343
1794.5,719.972,-9.12987
1795.99,721.672,-9.2604
1797.48,723.372,-9.37124
1798.98,725.072,-9.45948
1800.48,726.772,-9.52341
1801.98,728.472,-9.58203
1803.49,730.172,-9.64035
1805,731.872,-9.68728
1806.52,733.572,-9.72899
1808.034,735.272,-9.77424
1809.56,736.972,-9.81928
1811.08,738.672,-9.85464
1812.62,740.372,-9.89104
1814.15,742.072,-9.92264
1815.69,743.772,-9.95652
1817.24,745.472,-9.99338
1818.78,747.172,-10.0195
1820.33,748.872,-10.04089
1821.89,750.572,-10.06901
1823.445,752.272,-10.08834
1825.01,753.972,-10.11184
1826.58,755.672,-10.12943
1828.15,757.372,-10.1437
1829.73,759.072,-10.16323
1831.32,760.772,-10.17205
1832.901,762.472,-10.1848
1834.5,764.172,-10.20216
1836.09,765.872,-10.21805
1837.69,767.572,-10.22863
1839.29,769.272,-10.23445
1840.9,770.972,-10.24694
1842.513,772.672,-10.25345
1844.127,774.372,-10.25765
1845.75,776.072,-10.27127
1847.373,777.772,-10.28173
1849,779.472,-10.2858
1850.64,781.172,-10.29013
1852.27,782.872,-10.29801
1853.91,784.572,-10.30808
1855.56,786.272,-10.3118
1857.21,787.972,-10.32187
1858.86,789.672,-10.33647
1860.52,791.372,-10.34407
1862.18,793.072,-10.34596
1863.85,794.772,-10.35061
1865.52,796.472,-10.3541
1867.2,798.172,-10.35864
1868.87,799.872,-10.36918
1870.55,801.572,-10.37691
1872.24,803.272,-10.38689
1873.929,804.972,-10.38491
1875.621,806.672,-10.39767
1877.32,808.372,-10.40354
1879.02,810.072,-10.41956
1880.73,811.772,-10.42502
1882.44,813.472,-10.43689
1883.93,814.872,-10.44392

File: Sandia_DSC_Ar_50K_2.csv
Time,Temperature,Heat Flow
[s],[K],[W/g]
1200.1,306.94,-3.07E-03
1303.854,308.64,-2.29E-02
1323.927,310.34,-5.69E-02
1337.325,312.04,-9.60E-02
1347.76,313.74,-0.14271
1356.46,315.44,-0.19062
1364.02,317.14,-0.23713
1370.71,318.84,-0.28432
1376.754,320.54,-0.33422
1382.33,322.24,-0.38872
1387.48,323.94,-0.44193
1392.34,325.64,-0.49564
1396.91,327.34,-0.54752
1401.24,329.04,-0.60278
1405.36,330.74,-0.66378
1409.31,332.44,-0.7156
1413.087,334.14,-0.77432
1416.72,335.84,-0.82948
1420.23,337.54,-0.88525
1423.626,339.24,-0.94192
1426.902,340.94,-1.00121
1430.1,342.64,-1.05847
1433.217,344.34,-1.11229
1436.26,346.04,-1.16642
1439.232,347.74,-1.22202
1442.14,349.44,-1.27392
1444.98,351.14,-1.32951
1447.77,352.84,-1.38531
1450.488,354.54,-1.4408
1453.16,356.24,-1.49644
1455.79,357.94,-1.55248
1458.37,359.64,-1.60696
1460.9,361.34,-1.66439
1463.39,363.04,-1.71953
1465.845,364.74,-1.77573
1468.26,366.44,-1.82949
1470.636,368.14,-1.88558
1472.98,369.84,-1.94302
1475.29,371.54,-1.99731
1477.57,373.24,-2.04915
1479.82,374.94,-2.1053
1482.06,376.64,-2.15841
1484.26,378.34,-2.2118
1486.44,380.04,-2.26523
1488.61,381.74,-2.3169
1490.75,383.44,-2.36282
1492.88,385.14,-2.41826
1494.98,386.84,-2.46889
1497.069,388.54,-2.52238
1499.14,390.24,-2.57297
1501.19,391.94,-2.62946
1503.23,393.64,-2.6886
1505.25,395.34,-2.744
1507.24,397.04,-2.80818
1509.23,398.74,-2.87151
1511.19,400.44,-2.94393
1513.15,402.14,-3.01768
1515.081,403.84,-3.08929
1517.004,405.54,-3.1646
1518.9,407.24,-3.24174
1520.79,408.94,-3.31474
1522.66,410.64,-3.39156
1524.525,412.34,-3.4644
1526.37,414.04,-3.53719
1528.2,415.74,-3.61175
1530.03,417.44,-3.68098
1531.842,419.14,-3.7488
1533.64,420.84,-3.8126
1535.43,422.54,-3.87541
1537.212,424.24,-3.93468
1538.98,425.94,-3.99343
1540.74,427.64,-4.05451
1542.5,429.34,-4.11584
1544.24,431.04,-4.17456
1545.98,432.74,-4.2289
1547.7,434.44,-4.28865
1549.42,436.14,-4.34183
1551.13,437.84,-4.3898
1552.84,439.54,-4.43687
1554.54,441.24,-4.48943
1556.229,442.94,-4.53724
1557.912,444.64,-4.58428
1559.59,446.34,-4.63138
1561.257,448.04,-4.67737
1562.92,449.74,-4.7221
1564.575,451.44,-4.76536
1566.222,453.14,-4.81406
1567.86,454.84,-4.86191
1569.49,456.54,-4.90133
1571.12,458.24,-4.94823
1572.73,459.94,-4.98939
1574.35,461.64,-5.03653
1575.951,463.34,-5.07949
1577.55,465.04,-5.12565
1579.14,466.74,-5.17635
1580.73,468.44,-5.22682
1582.31,470.14,-5.27906
1583.89,471.84,-5.33072
1585.458,473.54,-5.3813
1587.02,475.24,-5.43215
1588.59,476.94,-5.47949
1590.15,478.64,-5.53289
1591.7,480.34,-5.5793
1593.246,482.04,-5.62792
1594.79,483.74,-5.67863
1596.33,485.44,-5.72328
1597.87,487.14,-5.77273
1599.4,488.84,-5.82472
1600.93,490.54,-5.8769
1602.46,492.24,-5.92678
1603.98,493.94,-5.97876
1605.49,495.64,-6.03307
1607,497.34,-6.08424
1608.52,499.04,-6.14116
1610.02,500.74,-6.19978
1611.52,502.44,-6.25686
1613.02,504.14,-6.31777
1614.52,505.84,-6.37508
1616.01,507.54,-6.43124
1617.5,509.24,-6.49006
1618.98,510.94,-6.5483
1620.46,512.64,-6.60747
1621.93,514.34,-6.65809
1623.41,516.04,-6.71234
1624.878,517.74,-6.77378
1626.34,519.44,-6.83421
1627.8,521.14,-6.88617
1629.27,522.84,-6.93314
1630.73,524.54,-6.98258
1632.18,526.24,-7.03342
1633.63,527.94,-7.07745
1635.08,529.64,-7.12441
1636.53,531.34,-7.17308
1637.97,533.04,-7.2276
1639.42,534.74,-7.28789
1640.85,536.44,-7.33443
1642.29,538.14,-7.3834
1643.73,539.84,-7.42771
1645.16,541.54,-7.4784
1646.59,543.24,-7.53971
1648.01,544.94,-7.58243
1649.44,546.64,-7.62342
1650.86,548.34,-7.66511
1652.28,550.04,-7.69734
1653.7,551.74,-7.72701
1655.12,553.44,-7.75732
1656.54,555.14,-7.79012
1657.95,556.84,-7.81454
1659.37,558.54,-7.84518
1660.78,560.24,-7.87883
1662.19,561.94,-7.90494
1663.6,563.64,-7.92677
1665.01,565.34,-7.94456
1666.42,567.04,-7.9618
1667.82,568.74,-7.97015
1669.22,570.44,-7.97732
1670.62,572.14,-8.01012
1672.02,573.84,-8.02528
1673.43,575.54,-8.05525
1674.82,577.24,-8.08703
1676.22,578.94,-8.09526
1677.62,580.64,-8.11247
1679.01,582.34,-8.13816
1680.4,584.04,-8.15451
1681.8,585.74,-8.15779
1683.19,587.44,-8.16866
1684.58,589.14,-8.17394
1685.97,590.84,-8.17987
1687.36,592.54,-8.17738
1688.75,594.24,-8.16658
1690.13,595.94,-8.15999
1691.52,597.64,-8.1449
1692.91,599.34,-8.12691
1694.3,601.04,-8.10677
1695.68,602.74,-8.07739
1697.07,604.44,-8.04288
1698.46,606.14,-8.0116
1699.842,607.84,-7.97691
1701.23,609.54,-7.93059
1702.62,611.24,-7.87328
1704.003,612.94,-7.80637
1705.39,614.64,-7.73458
1706.77,616.34,-7.65439
1708.16,618.04,-7.55665
1709.55,619.74,-7.45226
1710.936,621.44,-7.34537
1712.33,623.14,-7.22032
1713.714,624.84,-7.09062
1715.11,626.54,-6.95585
1716.498,628.24,-6.80163
1717.89,629.94,-6.63757
1719.28,631.64,-6.46848
1720.68,633.34,-6.28085
1722.07,635.04,-6.08773
1723.46,636.74,-5.90355
1724.86,638.44,-5.71297
1726.26,640.14,-5.51764
1727.661,641.84,-5.32785
1729.06,643.54,-5.13434
1730.47,645.24,-4.95993
1731.873,646.94,-4.78132
1733.28,648.64,-4.59748
1734.69,650.34,-4.44579
1736.1,652.04,-4.30315
1737.51,653.74,-4.15496
1738.93,655.44,-4.02207
1740.34,657.14,-3.87709
1741.758,658.84,-3.73678
1743.17,660.54,-3.59448
1744.6,662.24,-3.45446
1746.02,663.94,-3.31494
1747.45,665.64,-3.19465
1748.87,667.34,-3.10568
1750.31,669.04,-3.00998
1751.74,670.74,-2.94172
1753.17,672.44,-2.90769
1754.6,674.14,-2.87627
1756.04,675.84,-2.8648
1757.48,677.54,-2.87622
1758.927,679.24,-2.90452
1760.37,680.94,-2.94921
1761.82,682.64,-3.02272
1763.27,684.34,-3.14076
1764.72,686.04,-3.34395
1766.18,687.74,-3.62871
1767.64,689.44,-4.01024
1769.09,691.14,-4.43851
1770.55,692.84,-4.85779
1772.01,694.54,-5.25809
1773.48,696.24,-5.62711
1774.94,697.94,-5.97803
1776.402,699.64,-6.30644
1777.87,701.34,-6.62664
1779.34,703.04,-6.92916
1780.82,704.74,-7.21957
1782.29,706.44,-7.50976
1783.77,708.14,-7.77825
1785.25,709.84,-8.02671
1786.728,711.54,-8.26525
1788.21,713.24,-8.48938
1789.7,714.94,-8.70615
1791.19,716.64,-8.91219
1792.68,718.34,-9.1036
1794.18,720.04,-9.27733
1795.68,721.74,-9.42933
1797.18,723.44,-9.56282
1798.68,725.14,-9.67005
1800.19,726.84,-9.7581
1801.7,728.54,-9.8286
1803.21,730.24,-9.90158
1804.73,731.94,-9.96264
1806.25,733.64,-10.01907
1807.77,735.34,-10.08628
1809.303,737.04,-10.15114
1810.83,738.74,-10.21126
1812.37,740.44,-10.26499
1813.91,742.14,-10.30966
1815.447,743.84,-10.36477
1816.99,745.54,-10.41564
1818.54,747.24,-10.46357
1820.09,748.94,-10.50155
1821.65,750.64,-10.54481
1823.21,752.34,-10.58481
1824.77,754.04,-10.6153
1826.34,755.74,-10.6412
1827.91,757.44,-10.66325
1829.48,759.14,-10.69104
1831.07,760.84,-10.71222
1832.649,762.54,-10.73214
1834.24,764.24,-10.76722
1835.83,765.94,-10.79567
1837.42,767.64,-10.80715
1839.02,769.34,-10.81824
1840.62,771.04,-10.83335
1842.23,772.74,-10.84337
1843.85,774.44,-10.85298
1845.46,776.14,-10.86168
1847.08,777.84,-10.87177
1848.705,779.54,-10.87895
1850.34,781.24,-10.88199
1851.966,782.94,-10.88738
1853.6,784.64,-10.89267
1855.245,786.34,-10.89271
1856.889,788.04,-10.89654
1858.53,789.74,-10.90067
1860.18,791.44,-10.90113
1861.84,793.14,-10.90482
1863.5,794.84,-10.90027
1865.169,796.54,-10.90245
1866.84,798.24,-10.91057
1868.52,799.94,-10.91962
1870.19,801.64,-10.91859
1871.874,803.34,-10.92887
1873.56,805.04,-10.93554
1875.25,806.74,-10.94303
1876.95,808.44,-10.94658
1878.642,810.14,-10.95817
1880.35,811.84,-10.96816
1882.05,813.54,-10.96809
1883.77,815.24,-10.97528
1883.9,815.34,-10.97639

File: Sandia_DSC_Ar_50K_3.csv
Time,Temperature,Heat Flow
[s],[K],[W/g]
1200.1,306.944,-2.32E-03
1303.16,308.644,1.39E-02
1323.43,310.344,7.19E-03
1336.947,312.044,-1.03E-02
1347.47,313.744,-3.31E-02
1356.21,315.444,-6.20E-02
1363.758,317.144,-9.20E-02
1370.49,318.844,-0.11922
1376.56,320.544,-0.1526
1382.16,322.244,-0.18654
1387.35,323.944,-0.22019
1392.23,325.644,-0.2589
1396.818,327.344,-0.29675
1401.17,329.044,-0.33463
1405.28,330.744,-0.37984
1409.25,332.444,-0.41283
1413.05,334.144,-0.45621
1416.69,335.844,-0.49128
1420.23,337.544,-0.53232
1423.64,339.244,-0.56983
1426.93,340.944,-0.6139
1430.157,342.644,-0.65419
1433.3,344.344,-0.69137
1436.37,346.044,-0.73176
1439.36,347.744,-0.7693
1442.28,349.444,-0.80722
1445.14,351.144,-0.84452
1447.94,352.844,-0.88589
1450.695,354.544,-0.92514
1453.39,356.244,-0.96783
1456.04,357.944,-1.00959
1458.64,359.644,-1.05087
1461.19,361.344,-1.09396
1463.71,363.044,-1.13365
1466.18,364.744,-1.17268
1468.6,366.444,-1.21556
1471,368.144,-1.25723
1473.36,369.844,-1.29905
1475.7,371.544,-1.33903
1478,373.244,-1.37865
1480.27,374.944,-1.42129
1482.52,376.644,-1.46098
1484.74,378.344,-1.4969
1486.947,380.044,-1.53587
1489.13,381.744,-1.57465
1491.3,383.444,-1.60594
1493.44,385.144,-1.64197
1495.57,386.844,-1.6753
1497.67,388.544,-1.70927
1499.75,390.244,-1.74442
1501.82,391.944,-1.78385
1503.88,393.644,-1.82523
1505.91,395.344,-1.86749
1507.929,397.044,-1.91687
1509.93,398.744,-1.96919
1511.91,400.444,-2.0292
1513.87,402.144,-2.08535
1515.82,403.844,-2.14655
1517.75,405.544,-2.21308
1519.67,407.244,-2.28406
1521.58,408.944,-2.34926
1523.47,410.644,-2.41634
1525.341,412.344,-2.4847
1527.207,414.044,-2.55111
1529.05,415.744,-2.61799
1530.89,417.444,-2.68126
1532.71,419.144,-2.74306
1534.53,420.844,-2.80389
1536.33,422.544,-2.86488
1538.118,424.244,-2.92219
1539.9,425.944,-2.98455
1541.67,427.644,-3.04507
1543.428,429.344,-3.10263
1545.19,431.044,-3.16104
1546.93,432.744,-3.21438
1548.669,434.444,-3.26647
1550.4,436.144,-3.31439
1552.12,437.844,-3.36028
1553.83,439.544,-3.41189
1555.53,441.244,-3.4634
1557.23,442.944,-3.51019
1558.93,444.644,-3.55167
1560.61,446.344,-3.59922
1562.28,448.044,-3.64192
1563.951,449.744,-3.68521
1565.61,451.444,-3.73213
1567.26,453.144,-3.77314
1568.91,454.844,-3.8152
1570.54,456.544,-3.8568
1572.171,458.244,-3.89481
1573.79,459.944,-3.93086
1575.41,461.644,-3.97285
1577.02,463.344,-4.01612
1578.62,465.044,-4.05717
1580.22,466.744,-4.10218
1581.81,468.444,-4.14847
1583.391,470.144,-4.19008
1584.97,471.844,-4.23315
1586.544,473.544,-4.27405
1588.11,475.244,-4.31158
1589.67,476.944,-4.35623
1591.24,478.644,-4.40001
1592.79,480.344,-4.43674
1594.341,482.044,-4.47756
1595.88,483.744,-4.51395
1597.43,485.444,-4.54936
1598.961,487.144,-4.58893
1600.494,488.844,-4.62447
1602.02,490.544,-4.6619
1603.55,492.244,-4.70154
1605.06,493.944,-4.73642
1606.58,495.644,-4.76652
1608.09,497.344,-4.80324
1609.6,499.044,-4.845
1611.1,500.744,-4.88668
1612.6,502.444,-4.93115
1614.1,504.144,-4.98113
1615.59,505.844,-5.02888
1617.08,507.544,-5.07654
1618.56,509.244,-5.13404
1620.04,510.944,-5.18798
1621.52,512.644,-5.2376
1623,514.344,-5.29434
1624.47,516.044,-5.34874
1625.94,517.744,-5.40296
1627.401,519.444,-5.45762
1628.862,521.144,-5.50829
1630.317,522.844,-5.55868
1631.77,524.544,-5.6039
1633.22,526.244,-5.65515
1634.67,527.944,-5.70479
1636.12,529.644,-5.7537
1637.56,531.344,-5.80728
1639,533.044,-5.86359
1640.44,534.744,-5.90688
1641.87,536.444,-5.95389
1643.307,538.144,-6.0003
1644.74,539.844,-6.04023
1646.16,541.544,-6.09266
1647.58,543.244,-6.13555
1649.01,544.944,-6.17347
1650.43,546.644,-6.2176
1651.84,548.344,-6.2495
1653.26,550.044,-6.27232
1654.67,551.744,-6.29335
1656.08,553.444,-6.31171
1657.491,555.144,-6.32778
1658.9,556.844,-6.34181
1660.3,558.544,-6.35506
1661.7,560.244,-6.37433
1663.107,561.944,-6.39425
1664.51,563.644,-6.39882
1665.91,565.344,-6.40183
1667.3,567.044,-6.40972
1668.7,568.744,-6.41449
1670.09,570.444,-6.41934
1671.483,572.144,-6.42065
1672.88,573.844,-6.42878
1674.27,575.544,-6.43828
1675.66,577.244,-6.43585
1677.05,578.944,-6.43584
1678.44,580.644,-6.44456
1679.823,582.344,-6.44265
1681.209,584.044,-6.43398
1682.59,585.744,-6.42636
1683.98,587.444,-6.41627
1685.36,589.144,-6.40953
1686.738,590.844,-6.39937
1688.12,592.544,-6.38962
1689.504,594.244,-6.38107
1690.884,595.944,-6.36329
1692.27,597.644,-6.34288
1693.65,599.344,-6.3292
1695.027,601.044,-6.31645
1696.41,602.744,-6.2938
1697.787,604.444,-6.26467
1699.17,606.144,-6.23851
1700.544,607.844,-6.20402
1701.92,609.544,-6.15303
1703.31,611.244,-6.09305
1704.69,612.944,-6.02878
1706.064,614.644,-5.95306
1707.45,616.344,-5.87626
1708.83,618.044,-5.78215
1710.207,619.744,-5.68625
1711.59,621.444,-5.57696
1712.97,623.144,-5.45911
1714.353,624.844,-5.33748
1715.74,626.544,-5.20399
1717.12,628.244,-5.06603
1718.5,629.944,-4.91187
1719.89,631.644,-4.75124
1721.28,633.344,-4.58811
1722.66,635.044,-4.41229
1724.05,636.744,-4.24353
1725.44,638.444,-4.06747
1726.833,640.144,-3.90138
1728.23,641.844,-3.72399
1729.62,643.544,-3.55877
1731.02,645.244,-3.39163
1732.41,646.944,-3.22839
1733.811,648.644,-3.06342
1735.21,650.344,-2.89277
1736.61,652.044,-2.73046
1738.02,653.744,-2.57034
1739.42,655.444,-2.43441
1740.828,657.144,-2.28629
1742.24,658.844,-2.12933
1743.648,660.544,-1.98705
1745.06,662.244,-1.86507
1746.48,663.944,-1.73466
1747.89,665.644,-1.62637
1749.315,667.344,-1.51811
1750.74,669.044,-1.42042
1752.16,670.744,-1.34406
1753.59,672.444,-1.29872
1755.02,674.144,-1.28169
1756.44,675.844,-1.29964
1757.877,677.544,-1.32364
1759.31,679.244,-1.36753
1760.74,680.944,-1.40393
1762.18,682.644,-1.47577
1763.62,684.344,-1.5687
1765.07,686.044,-1.71468
1766.517,687.744,-1.93313
1767.97,689.444,-2.23771
1769.41,691.144,-2.62731
1770.86,692.844,-3.06748
1772.31,694.544,-3.51033
1773.77,696.244,-3.91501
1775.22,697.944,-4.29549
1776.68,699.644,-4.65478
1778.14,701.344,-5.00001
1779.6,703.044,-5.32343
1781.055,704.744,-5.63063
1782.52,706.444,-5.94563
1783.99,708.144,-6.23177
1785.46,709.844,-6.50586
1786.93,711.544,-6.76353
1788.4,713.244,-7.00807
1789.87,714.944,-7.23396
1791.35,716.644,-7.44961
1792.82,718.344,-7.64416
1794.3,720.044,-7.81684
1795.78,721.744,-7.96473
1797.264,723.444,-8.09766
1798.75,725.144,-8.19821
1800.24,726.844,-8.28622
1801.73,728.544,-8.37099
1803.23,730.244,-8.46487
1804.73,731.944,-8.54472
1806.237,733.644,-8.60465
1807.75,735.344,-8.66859
1809.27,737.044,-8.73057
1810.79,738.744,-8.78182
1812.32,740.444,-8.82982
1813.85,742.144,-8.86813
1815.38,743.844,-8.91322
1816.92,745.544,-8.95239
1818.46,747.244,-8.99137
1820.01,748.944,-9.02466
1821.56,750.644,-9.0611
1823.11,752.344,-9.09728
1824.67,754.044,-9.12716
1826.229,755.744,-9.15041
1827.79,757.444,-9.17251
1829.37,759.144,-9.19713
1830.94,760.844,-9.21249
1832.52,762.544,-9.22663
1834.09,764.244,-9.24562
1835.68,765.944,-9.26429
1837.26,767.644,-9.26785
1838.85,769.344,-9.26506
1840.45,771.044,-9.27456
1842.05,772.744,-9.26951
1843.66,774.444,-9.26704
1845.27,776.144,-9.25988
1846.88,777.844,-9.25604
1848.5,779.544,-9.24356
1850.12,781.244,-9.23177
1851.75,782.944,-9.21487
1853.38,784.644,-9.20545
1855.01,786.344,-9.19201
1856.65,788.044,-9.18233
1858.296,789.744,-9.18105
1859.94,791.444,-9.17161
1861.6,793.144,-9.15541
1863.25,794.844,-9.14039
1864.91,796.544,-9.13293
1866.58,798.244,-9.11915
1868.25,799.944,-9.11739
1869.927,801.644,-9.10427
1871.61,803.344,-9.09939
1873.287,805.044,-9.0826
1874.97,806.744,-9.07259
1876.66,808.444,-9.06503
1878.36,810.144,-9.05682
1880.06,811.844,-9.04724
1881.76,813.544,-9.02852
1883.466,815.244,-9.024
1883.91,815.644,-9.02279