Folder: matl-db/PMMA/Calibration_Data/Sandia

Note: PMMA/Calibration_Data/Sandia/README.md
#Sandia National Laboratories (SANDIA)

### Experimental Conditions: TGA, DSC
A Netzsch F3 Jupiter using a DSC sample carrier with S-type thermocouples, and a Silicon Carbide furnace was used to conduct Simultaneous Thermal Analysis (TGA + DSC) experiments. Although tests were conducted simultaneously, TGA and DSC measurement data presented here are separated into two files, for consistency with other datasets.

* Heating Rate: 1, 10, or 50 K/min
* Temperature program
  - Initial Temperature: 303.15 K
  - Initial Isotherm: 20 minutes
  - Maximum Temperature: 873.15 K
  - Final Isotherm: None
* Sample mass: 2-6 mg
* Sample geometry: powdered
* Calibration type: The instrument is calibrated at least once per 6 months, or sooner (as needed), using melting point standards for both temperature and DSC sensitivity.  The calibration standards used are In, Sn, Bi, Zn, Al, Ag, Au, and Ni.
* Crucible
  - Type: Al2O3
  - Volume: 85 ÂµL
  - Diameter: None
  - Mass: None
  - Lid: False
  - Note: None
* Carrier Gas
  - Type: Argon
  - Flow rate: 100 ml/min
  - Note: ultra-high-purity argon  (0% O2)
* Instrument
  - Type: Netzsch F3 Jupiter
  - Note: Simultaneous Thermal Analysis (TGA + DSC), measurement data presented as two separated files, using a DSC sample carrier with S-type thermocouples, Silicon Carbide furnace

| Test Name | Heating Rate (K/min)|  Initial Sample Mass (mg) | 
| --------- | :---------: | :------------------------: |
|SANDIA\_STA\_Ar\_1K\_1 | 1  | 4.903|  
|SANDIA\_STA\_Ar\_10K\_1 | 10 | 4.917|  
|SANDIA\_STA\_Ar\_10K\_2 | 10 | 4.828|  
|SANDIA\_STA\_Ar\_50K\_1 | 50 | 5.376|  
|SANDIA\_STA\_Ar\_50K\_2 | 50 | 4.835| 
|SANDIA\_STA\_Ar\_50K\_3 | 50 | 4.682|

File: Sandia_DSC_Ar_1K_1.csv
Time,Temperature,Heat Flow
[s],[K],[W/g]
1202.3,307.031,0.00363
1624.67,309.031,0.0162
1795.12,311.031,0.0225
1941.42,313.031,0.0243
2077.69,315.031,0.0266
2208.444,317.031,0.0289
2336.56,319.031,0.0288
2462.42,321.031,0.0286
2586.9,323.031,0.0306
2710.36,325.031,0.0287
2832.762,327.031,0.0316
2954.07,329.031,0.033
3074.97,331.031,0.034
3195.462,333.031,0.0336
3314.99,335.031,0.0341
3434.24,337.031,0.0348
3553.38,339.031,0.0334
3671.52,341.031,0.036
3789.06,343.031,0.0355
3905.72,345.031,0.0313
4021.98,347.031,0.0337
4137.885,349.031,0.0356
4253.73,351.031,0.0327
4369.66,353.031,0.0343
4484.69,355.031,0.0317
4600.04,357.031,0.0341
4714.95,359.031,0.0326
4828.7,361.031,0.0315
4942.32,363.031,0.0328
5055.82,365.031,0.0323
5169.02,367.031,0.0351
5281.962,369.031,0.0311
5394.98,371.031,0.0308
5508.32,373.031,0.0292
5621.292,375.031,0.0311
5734.08,377.031,0.0294
5846.331,379.031,0.0297
5958.87,381.031,0.0297
6071.52,383.031,0.027
6184.035,385.031,0.0251
6296.41,387.031,0.0242
6408.08,389.031,0.025
6520.047,391.031,0.0244
6631.446,393.031,0.0176
6742.32,395.031,0.0152
6852.99,397.031,0.0119
6963.79,399.031,0.00641
7074.696,401.031,0.00258
7185.71,403.031,0.000187
7296.4,405.031,-0.003
7407.11,407.031,-0.0046
7518,409.031,-0.00799
7628.331,411.031,-0.00996
7738.098,413.031,-0.0125
7848.11,415.031,-0.0136
7958.286,417.031,-0.0166
8068.14,419.031,-0.0168
8177.71,421.031,-0.0184
8287.24,423.031,-0.019
8396.44,425.031,-0.0222
8506.41,427.031,-0.0211
8616.25,429.031,-0.0238
8726.63,431.031,-0.0253
8837.37,433.031,-0.027
8948.25,435.031,-0.0281
9058.93,437.031,-0.0306
9169.83,439.031,-0.0318
9280.82,441.031,-0.0346
9391.59,443.031,-0.0385
9502.53,445.031,-0.0411
9613.42,447.031,-0.0451
9724.56,449.031,-0.0437
9835,451.031,-0.0503
9945.53,453.031,-0.0534
10056.7,455.031,-0.0569
10167.3,457.031,-0.0594
10278,459.031,-0.0613
10388.5,461.031,-0.067
10498.812,463.031,-0.0679
10608.6,465.031,-0.0725
10717.797,467.031,-0.0729
10827.1,469.031,-0.0748
10936.527,471.031,-0.076
11046,473.031,-0.0795
11155.2,475.031,-0.0826
11263.3,477.031,-0.086
11371.5,479.031,-0.0868
11480.5,481.031,-0.0886
11589.8,483.031,-0.0888
11699,485.031,-0.0949
11808.576,487.031,-0.0973
11918.511,489.031,-0.097
12028.851,491.031,-0.0976
12139.6,493.031,-0.0974
12250.1,495.031,-0.10168
12359.5,497.031,-0.10432
12468.8,499.031,-0.10363
12577.8,501.031,-0.10412
12687.4,503.031,-0.10298
12798.3,505.031,-0.0978
12909,507.031,-0.0993
13019.2,509.031,-0.0972
13129.3,511.031,-0.1
13239.3,513.031,-0.10004
13350.3,515.031,-0.0965
13460.6,517.031,-0.0968
13570.4,519.031,-0.0975
13681.8,521.031,-0.0957
13794.8,523.031,-0.0914
13908.6,525.031,-0.091
14022.438,527.031,-0.091
14136.2,529.031,-0.0874
14249.9,531.031,-0.0859
14364,533.031,-0.0837
14477.7,535.031,-0.0832
14591.1,537.031,-0.0829
14704.707,539.031,-0.0777
14819,541.031,-0.0733
14933.6,543.031,-0.0703
15048.2,545.031,-0.0619
15163,547.031,-0.0634
15278.1,549.031,-0.0532
15393.1,551.031,-0.0477
15507.7,553.031,-0.0466
15622.3,555.031,-0.041
15737.4,557.031,-0.0383
15852.6,559.031,-0.0295
15967.8,561.031,-0.0231
16083.8,563.031,-0.0138
16199.8,565.031,-0.00883
16315.1,567.031,-0.00277
16429.7,569.031,0.00627
16544.769,571.031,0.0167
16660.5,573.031,0.0264
16776.222,575.031,0.0426
16892.7,577.031,0.0531
17008.9,579.031,0.069
17125.2,581.031,0.0876
17241.8,583.031,0.1035
17358.5,585.031,0.1265
17475.1,587.031,0.15441
17591.4,589.031,0.17903
17707.4,591.031,0.21115
17823.3,593.031,0.24115
17938.9,595.031,0.27791
18055.1,597.031,0.31848
18170.5,599.031,0.34447
18285.9,601.031,0.37446
18401.259,603.031,0.40227
18517,605.031,0.4051
18633.663,607.031,0.3843
18749.9,609.031,0.35766
18865.6,611.031,0.24212
18980.1,613.031,0.0473
19096.9,615.031,0.23365
19212.8,617.031,0.26026
19328.7,619.031,0.24026
19445,621.031,0.35612
19562,623.031,0.257
19678.8,625.031,0.19824
19795.4,627.031,0.1067
19912.4,629.031,0.10806
20029.6,631.031,0.0214
20146.3,633.031,-0.0962
20264.1,635.031,-0.0353
20382.6,637.031,-0.0507
20499.6,639.031,-0.0641
20616.4,641.031,-0.0793
20734.7,643.031,-0.0881
20855.5,645.031,-0.094
20975,647.031,-0.10438
21093.2,649.031,-0.10576
21211,651.031,-0.10124
21329.5,653.031,-0.0954
21447.9,655.031,-0.10238
21565.8,657.031,-0.0978
21684.2,659.031,-0.10492
21802.2,661.031,-0.10896
21920.724,663.031,-0.11921
22040.6,665.031,-0.13473
22160.6,667.031,-0.15756
22279.8,669.031,-0.16658
22398.8,671.031,-0.16516
22517.6,673.031,-0.16684
22638.6,675.031,-0.15476
22763.3,677.031,-0.1491
22886.6,679.031,-0.1486
23010.9,681.031,-0.13642
23133.6,683.031,-0.12946
23256.3,685.031,-0.12625
23377.2,687.031,-0.12559
23497.9,689.031,-0.11947
23618.8,691.031,-0.11685
23740.8,693.031,-0.10738
23863.8,695.031,-0.10447
23985.8,697.031,-0.10706
24108.012,699.031,-0.0978
24229.098,701.031,-0.10172
24349.7,703.031,-0.0934
24472.1,705.031,-0.0855
24599.166,707.031,-0.0733
24725.8,709.031,-0.0736
24853.3,711.031,-0.0645
24979.5,713.031,-0.0626
25107.9,715.031,-0.0453
25236.4,717.031,-0.0419
25362.543,719.031,-0.0434
25486.5,721.031,-0.0389
25609.8,723.031,-0.0322
25733.5,725.031,-0.0289
25858.8,727.031,-0.0221
25985.5,729.031,-0.00762
26114.505,731.031,0.00727
26245.4,733.031,0.00603
26372.1,735.031,0.0107
26499.3,737.031,0.0221
26626.3,739.031,0.0217
26753.4,741.031,0.038
26881.2,743.031,0.0479
27012.1,745.031,0.0766
27142,747.031,0.0644
27265,749.031,0.0575
27389.3,751.031,0.0761
27515.718,753.031,0.0919
27642.6,755.031,0.10002
27767.9,757.031,0.10844
27893.4,759.031,0.13118
28020.5,761.031,0.13329
28147.5,763.031,0.14247
28273.4,765.031,0.15686
28399.5,767.031,0.17188
28526.9,769.031,0.18328
28654.1,771.031,0.19731
28785.4,773.031,0.22476
28920.5,775.031,0.24513
29050.6,777.031,0.2313
29174.4,779.031,0.24059
29298.7,781.031,0.24991
29422.2,783.031,0.26816
29549.6,785.031,0.29232
29682.4,787.031,0.32662
29818.2,789.031,0.31378
29943.2,791.031,0.31346
30069.1,793.031,0.35418
30199,795.031,0.36438
30327.336,797.031,0.38627
30454.4,799.031,0.39728
30586.1,801.031,0.43083
30718.6,803.031,0.43825
30849.8,805.031,0.45557
30982.2,807.031,0.45421
31112.6,809.031,0.47982
31243.425,811.031,0.50042
31371.5,813.031,0.50609
31498.02,815.031,0.52208
31625.6,817.031,0.54341
31750.569,819.031,0.54456
31873.6,821.031,0.55824
32001.5,823.031,0.61091
32133.3,825.031,0.62155
32264,827.031,0.6358
32393.7,829.031,0.64885
32520.699,831.031,0.66423
32650.5,833.031,0.68315
32781.2,835.031,0.69264
32913.954,837.031,0.72365
33050.6,839.031,0.75531
33184,841.031,0.74943
33315,843.031,0.76502
33448.6,845.031,0.78976
33582.666,847.031,0.79872
33711.5,849.031,0.81482
33841.2,851.031,0.82288
33969.4,853.031,0.83229
34095.2,855.031,0.83191
34218.33,857.031,0.85695
34341.2,859.031,0.85306
34466,861.031,0.87697
34588.866,863.031,0.87356
34711.9,865.031,0.90103
34838.3,867.031,0.92178
34958.1,869.031,0.89329
35066.238,871.031,0.85137
35175.1,873.031,0.90399
35308.1,875.031,0.97206
35377.23,876.031,0.95709

File: Sandia_DSC_Ar_10K_1.csv
Time,Temperature,Heat Flow
[s],[K],[W/g]
1209.15,307.216,6.03E-04
1386.97,309.116,-2.52E-03
1429.46,311.016,-4.97E-03
1459.95,312.916,-7.28E-03
1484.83,314.816,-1.01E-02
1506.56,316.716,-1.32E-02
1526.13,318.616,-1.49E-02
1544.11,320.516,-1.66E-02
1560.96,322.416,-2.20E-02
1576.92,324.316,-2.42E-02
1592.14,326.216,-2.95E-02
1606.731,328.116,-3.27E-02
1620.86,330.016,-3.67E-02
1634.54,331.916,-4.11E-02
1647.76,333.816,-4.26E-02
1660.695,335.716,-4.78E-02
1673.331,337.616,-5.03E-02
1685.7,339.516,-5.59E-02
1697.89,341.416,-5.92E-02
1709.88,343.316,-6.20E-02
1721.67,345.216,-6.78E-02
1733.31,347.116,-7.16E-02
1744.83,349.016,-7.54E-02
1756.22,350.916,-8.04E-02
1767.44,352.816,-8.56E-02
1778.54,354.716,-9.41E-02
1789.54,356.616,-0.10159
1800.38,358.516,-0.10841
1811.1,360.416,-0.11835
1821.66,362.316,-0.12409
1832.196,364.216,-0.13205
1842.66,366.116,-0.13953
1852.95,368.016,-0.14487
1863.16,369.916,-0.15511
1873.32,371.816,-0.16096
1883.37,373.716,-0.17153
1893.39,375.616,-0.17733
1903.359,377.516,-0.18671
1913.28,379.416,-0.19292
1923.16,381.316,-0.20195
1933,383.216,-0.20949
1942.8,385.116,-0.2182
1952.56,387.016,-0.22775
1962.34,388.916,-0.23166
1972.05,390.816,-0.24298
1981.73,392.716,-0.25151
1991.36,394.616,-0.25804
2000.949,396.516,-0.26516
2010.534,398.416,-0.27504
2020.089,400.316,-0.28911
2029.59,402.216,-0.2998
2039.09,404.116,-0.31317
2048.57,406.016,-0.32479
2057.99,407.916,-0.34191
2067.39,409.816,-0.35434
2076.759,411.716,-0.37112
2086.12,413.616,-0.38316
2095.46,415.516,-0.39693
2104.76,417.416,-0.40685
2114.06,419.316,-0.41894
2123.36,421.216,-0.42624
2132.63,423.116,-0.44199
2141.901,425.016,-0.45217
2151.17,426.916,-0.46225
2160.45,428.816,-0.4714
2169.7,430.716,-0.47877
2178.96,432.616,-0.4872
2188.227,434.516,-0.49794
2197.51,436.416,-0.50257
2206.78,438.316,-0.51291
2216.06,440.216,-0.51722
2225.34,442.116,-0.52081
2234.6,444.016,-0.52885
2243.87,445.916,-0.52966
2253.144,447.816,-0.53332
2262.46,449.716,-0.538
2271.78,451.616,-0.54391
2281.056,453.516,-0.54907
2290.34,455.416,-0.56113
2299.64,457.316,-0.56793
2308.94,459.216,-0.5786
2318.24,461.116,-0.59173
2327.553,463.016,-0.60424
2336.89,464.916,-0.61565
2346.24,466.816,-0.6302
2355.57,468.716,-0.64677
2364.91,470.616,-0.65885
2374.25,472.516,-0.67378
2383.63,474.416,-0.68407
2393,476.316,-0.69537
2402.39,478.216,-0.70826
2411.79,480.116,-0.7232
2421.25,482.016,-0.73321
2430.68,483.916,-0.75176
2440.12,485.816,-0.76994
2449.6,487.716,-0.7904
2459.09,489.616,-0.80956
2468.577,491.516,-0.82672
2478.08,493.416,-0.84094
2487.62,495.316,-0.85868
2497.15,497.216,-0.86923
2506.69,499.116,-0.88498
2516.274,501.016,-0.8937
2525.85,502.916,-0.90716
2535.43,504.816,-0.91536
2545.06,506.716,-0.92705
2554.668,508.616,-0.94092
2564.29,510.516,-0.95311
2573.907,512.416,-0.96095
2583.564,514.316,-0.9718
2593.23,516.216,-0.97882
2602.93,518.116,-0.98801
2612.63,520.016,-0.99824
2622.35,521.916,-1.00411
2632.08,523.816,-1.01223
2641.85,525.716,-1.0201
2651.66,527.616,-1.02339
2661.444,529.516,-1.03216
2671.26,531.416,-1.03703
2681.067,533.316,-1.04384
2690.91,535.216,-1.04483
2700.76,537.116,-1.05007
2710.65,539.016,-1.05644
2720.55,540.916,-1.05783
2730.462,542.816,-1.05867
2740.41,544.716,-1.05739
2750.36,546.616,-1.06226
2760.33,548.516,-1.06238
2770.33,550.416,-1.06181
2780.36,552.316,-1.0602
2790.39,554.216,-1.05877
2800.45,556.116,-1.0543
2810.52,558.016,-1.04944
2820.58,559.916,-1.04855
2830.66,561.816,-1.04716
2840.763,563.716,-1.04216
2850.89,565.616,-1.03885
2861.019,567.516,-1.0361
2871.17,569.416,-1.03349
2881.314,571.316,-1.02964
2891.48,573.216,-1.02733
2901.654,575.116,-1.02462
2911.81,577.016,-1.02037
2921.97,578.916,-1.01399
2932.176,580.816,-1.01393
2942.37,582.716,-1.00985
2952.56,584.616,-1.00172
2962.74,586.516,-0.99459
2972.99,588.416,-0.98447
2983.27,590.316,-0.97379
2993.54,592.216,-0.9553
3003.79,594.116,-0.94171
3014.07,596.016,-0.91902
3024.36,597.916,-0.89009
3034.67,599.816,-0.86261
3044.99,601.716,-0.82847
3055.33,603.616,-0.78808
3065.69,605.516,-0.74411
3076.04,607.416,-0.69499
3086.39,609.316,-0.63623
3096.753,611.216,-0.56882
3107.151,613.116,-0.50002
3117.55,615.016,-0.42196
3127.95,616.916,-0.32978
3138.37,618.816,-0.23784
3148.83,620.716,-0.1364
3159.282,622.616,-2.83E-02
3169.737,624.516,8.04E-02
3180.2,626.416,0.18713
3190.7,628.316,0.27383
3201.207,630.216,0.33665
3211.707,632.116,0.35884
3222.222,634.016,0.38142
3232.75,635.916,0.39462
3243.27,637.816,0.41066
3253.82,639.716,0.37559
3264.37,641.616,0.20286
3274.92,643.516,-7.68E-02
3285.438,645.416,-0.12867
3295.97,647.316,-8.02E-02
3306.53,649.216,-5.36E-03
3317.1,651.116,2.17E-02
3327.7,653.016,7.15E-03
3338.298,654.916,-1.31E-02
3348.9,656.816,-9.11E-02
3359.472,658.716,-0.17487
3370.07,660.616,-0.27291
3380.66,662.516,-0.41159
3391.251,664.416,-0.53797
3401.83,666.316,-0.66806
3412.41,668.216,-0.77754
3422.97,670.116,-0.86836
3433.58,672.016,-0.94156
3444.16,673.916,-1.01308
3454.75,675.816,-1.07796
3465.354,677.716,-1.13915
3475.965,679.616,-1.18843
3486.57,681.516,-1.23571
3497.21,683.416,-1.26451
3507.86,685.316,-1.29368
3518.52,687.216,-1.31817
3529.215,689.116,-1.33453
3539.92,691.016,-1.34941
3550.67,692.916,-1.36576
3561.42,694.816,-1.37418
3572.23,696.716,-1.3816
3583.026,698.616,-1.38849
3593.86,700.516,-1.38304
3604.71,702.416,-1.38155
3615.59,704.316,-1.37073
3626.49,706.216,-1.36132
3637.42,708.116,-1.35033
3648.39,710.016,-1.34284
3659.36,711.916,-1.33713
3670.35,713.816,-1.33268
3681.38,715.716,-1.32552
3692.45,717.616,-1.3249
3703.55,719.516,-1.32523
3714.68,721.416,-1.3289
3725.85,723.316,-1.32777
3737.03,725.216,-1.32718
3748.26,727.116,-1.32595
3759.49,729.016,-1.32748
3770.77,730.916,-1.33113
3782.06,732.816,-1.32873
3793.4,734.716,-1.32392
3804.79,736.616,-1.32676
3816.2,738.516,-1.32758
3827.61,740.416,-1.32696
3839.04,742.316,-1.3319
3850.51,744.216,-1.33636
3861.963,746.116,-1.33386
3873.44,748.016,-1.33193
3884.93,749.916,-1.33394
3896.48,751.816,-1.33266
3908.02,753.716,-1.33144
3919.61,755.616,-1.33006
3931.22,757.516,-1.32983
3942.86,759.416,-1.32467
3954.51,761.316,-1.32453
3966.21,763.216,-1.32412
3977.88,765.116,-1.32078
3989.57,767.016,-1.31849
4001.25,768.916,-1.32028
4012.94,770.816,-1.32023
4024.647,772.716,-1.32081
4036.34,774.616,-1.32417
4048.07,776.516,-1.32222
4059.77,778.416,-1.3224
4071.492,780.316,-1.31896
4083.24,782.216,-1.31852
4095.03,784.116,-1.31474
4106.79,786.016,-1.31222
4118.56,787.916,-1.31033
4130.35,789.816,-1.30434
4142.14,791.716,-1.30645
4153.97,793.616,-1.30804
4165.77,795.516,-1.30208
4177.57,797.416,-1.29759
4189.37,799.316,-1.29905
4201.18,801.216,-1.29291
4213.01,803.116,-1.28547
4224.84,805.016,-1.27936
4236.67,806.916,-1.27053
4248.46,808.816,-1.27228
4260.249,810.716,-1.27453
4272.06,812.616,-1.27347
4283.868,814.516,-1.26753
4295.68,816.416,-1.25394
4307.53,818.316,-1.2451
4319.385,820.216,-1.23393
4331.24,822.116,-1.23034
4343.08,824.016,-1.22084
4354.959,825.916,-1.20302
4366.83,827.816,-1.18051
4378.67,829.716,-1.16864
4390.49,831.616,-1.15893
4402.341,833.516,-1.15511
4414.15,835.416,-1.14881
4425.95,837.316,-1.14827
4437.74,839.216,-1.14445
4449.5,841.116,-1.13608
4461.3,843.016,-1.13417
4473.12,844.916,-1.12981
4484.91,846.816,-1.12719
4496.75,848.716,-1.11854
4508.63,850.616,-1.1044
4520.553,852.516,-1.08489
4532.53,854.416,-1.06598
4544.55,856.316,-1.05543
4556.54,858.216,-1.0515
4568.53,860.116,-1.04427
4580.51,862.016,-1.04501
4592.49,863.916,-1.05154
4604.43,865.816,-1.05574
4616.36,867.716,-1.05237
4628.439,869.616,-1.04422

File: Sandia_DSC_Ar_10K_2.csv
Time,Temperature,Heat Flow
[s],[K],[W/g]
1200.35,308.35,9.84E-03
1384.52,310.25,-6.80E-03
1428.59,312.15,-1.70E-02
1460.457,314.05,-2.37E-02
1486.79,315.95,-3.43E-02
1509.69,317.85,-3.94E-02
1530.42,319.75,-4.95E-02
1549.53,321.65,-5.64E-02
1567.449,323.55,-6.55E-02
1584.37,325.45,-7.18E-02
1600.49,327.35,-7.76E-02
1615.98,329.25,-8.67E-02
1630.95,331.15,-9.50E-02
1645.38,333.05,-0.10218
1659.42,334.95,-0.11102
1673.049,336.85,-0.11939
1686.34,338.75,-0.13032
1699.35,340.65,-0.13641
1712.08,342.55,-0.14421
1724.61,344.45,-0.15235
1736.91,346.35,-0.15854
1749.01,348.25,-0.1685
1760.96,350.15,-0.17626
1772.748,352.05,-0.18404
1784.34,353.95,-0.19324
1795.81,355.85,-0.20358
1807.14,357.75,-0.21174
1818.31,359.65,-0.22114
1829.38,361.55,-0.23124
1840.27,363.45,-0.24181
1851.06,365.35,-0.25103
1861.752,367.25,-0.26196
1872.33,369.15,-0.26831
1882.854,371.05,-0.27839
1893.279,372.95,-0.28968
1903.626,374.85,-0.29818
1913.92,376.75,-0.31073
1924.14,378.65,-0.31847
1934.32,380.55,-0.32826
1944.45,382.45,-0.33965
1954.52,384.35,-0.34861
1964.56,386.25,-0.35812
1974.56,388.15,-0.36775
1984.52,390.05,-0.37329
1994.45,391.95,-0.38595
2004.31,393.85,-0.39481
2014.15,395.75,-0.40701
2023.93,397.65,-0.41722
2033.67,399.55,-0.42652
2043.38,401.45,-0.44111
2053.07,403.35,-0.45423
2062.677,405.25,-0.46846
2072.25,407.15,-0.48527
2081.78,409.05,-0.5016
2091.31,410.95,-0.51838
2100.792,412.85,-0.53406
2110.251,414.75,-0.54998
2119.686,416.65,-0.56551
2129.09,418.55,-0.57769
2138.47,420.45,-0.59129
2147.841,422.35,-0.60506
2157.19,424.25,-0.62093
2166.549,426.15,-0.63072
2175.89,428.05,-0.64113
2185.2,429.95,-0.65477
2194.53,431.85,-0.66903
2203.851,433.75,-0.67502
2213.18,435.65,-0.68345
2222.52,437.55,-0.69276
2231.86,439.45,-0.70218
2241.19,441.35,-0.7081
2250.53,443.25,-0.7145
2259.86,445.15,-0.72361
2269.18,447.05,-0.7314
2278.51,448.95,-0.74138
2287.85,450.85,-0.7507
2297.17,452.75,-0.75905
2306.49,454.65,-0.77042
2315.817,456.55,-0.78312
2325.15,458.45,-0.79641
2334.46,460.35,-0.81131
2343.77,462.25,-0.83137
2353.08,464.15,-0.84849
2362.39,466.05,-0.86721
2371.71,467.95,-0.88742
2381.05,469.85,-0.90594
2390.373,471.75,-0.9245
2399.69,473.65,-0.9414
2409.06,475.55,-0.96032
2418.41,477.45,-0.97507
2427.79,479.35,-0.99289
2437.17,481.25,-1.01017
2446.55,483.15,-1.03074
2455.94,485.05,-1.05845
2465.36,486.95,-1.08121
2474.772,488.85,-1.10384
2484.192,490.75,-1.12905
2493.618,492.65,-1.15044
2503.041,494.55,-1.17215
2512.5,496.45,-1.19451
2521.97,498.35,-1.21237
2531.442,500.25,-1.2324
2540.92,502.15,-1.24965
2550.42,504.05,-1.26723
2559.93,505.95,-1.28194
2569.44,507.85,-1.29828
2578.97,509.75,-1.31606
2588.51,511.65,-1.32993
2598.06,513.55,-1.34838
2607.6,515.45,-1.35727
2617.18,517.35,-1.37583
2626.78,519.25,-1.38979
2636.38,521.15,-1.40093
2645.97,523.05,-1.41601
2655.58,524.95,-1.42841
2665.2,526.85,-1.44159
2674.84,528.75,-1.44943
2684.49,530.65,-1.46647
2694.16,532.55,-1.47617
2703.85,534.45,-1.49163
2713.55,536.35,-1.50359
2723.27,538.25,-1.5116
2732.985,540.15,-1.52366
2742.74,542.05,-1.53041
2752.51,543.95,-1.54034
2762.3,545.85,-1.55055
2772.12,547.75,-1.55817
2781.98,549.65,-1.55938
2791.82,551.55,-1.56733
2801.7,553.45,-1.5709
2811.61,555.35,-1.57574
2821.55,557.25,-1.58573
2831.51,559.15,-1.59105
2841.48,561.05,-1.58823
2851.46,562.95,-1.59863
2861.487,564.85,-1.59742
2871.513,566.75,-1.60631
2881.56,568.65,-1.60681
2891.631,570.55,-1.61292
2901.71,572.45,-1.61683
2911.788,574.35,-1.62316
2921.91,576.25,-1.63251
2932.017,578.15,-1.63867
2942.14,580.05,-1.64522
2952.28,581.95,-1.65154
2962.44,583.85,-1.65786
2972.6,585.75,-1.65992
2982.8,587.65,-1.66059
2992.99,589.55,-1.654
3003.21,591.45,-1.65228
3013.46,593.35,-1.64754
3023.7,595.25,-1.63761
3033.978,597.15,-1.62633
3044.27,599.05,-1.60889
3054.56,600.95,-1.58137
3064.857,602.85,-1.55454
3075.177,604.75,-1.52519
3085.53,606.65,-1.48807
3095.88,608.55,-1.43905
3106.27,610.45,-1.38884
3116.68,612.35,-1.32488
3127.08,614.25,-1.2602
3137.48,616.15,-1.1752
3147.93,618.05,-1.0947
3158.4,619.95,-1.00088
3168.9,621.85,-0.89771
3179.44,623.75,-0.78732
3189.95,625.65,-0.6817
3200.499,627.55,-0.57843
3211.06,629.45,-0.50169
3221.62,631.35,-0.4431
3232.2,633.25,-0.41397
3242.79,635.15,-0.43271
3253.37,637.05,-0.49124
3263.95,638.95,-0.6556
3274.51,640.85,-1.0199
3285.04,642.75,-1.26045
3295.54,644.65,-1.27485
3306.09,646.55,-1.3375
3316.638,648.45,-1.31011
3327.2,650.35,-1.30449
3337.8,652.25,-1.36032
3348.39,654.15,-1.42489
3358.99,656.05,-1.52451
3369.618,657.95,-1.62351
3380.259,659.85,-1.73545
3390.89,661.75,-1.85746
3401.547,663.65,-1.95582
3412.218,665.55,-2.06877
3422.88,667.45,-2.14717
3433.55,669.35,-2.2318
3444.25,671.25,-2.31981
3454.96,673.15,-2.39483
3465.67,675.05,-2.46544
3476.4,676.95,-2.54132
3487.14,678.85,-2.59882
3497.895,680.75,-2.65276
3508.65,682.65,-2.70138
3519.42,684.55,-2.73556
3530.205,686.45,-2.77045
3541,688.35,-2.80697
3551.8,690.25,-2.84021
3562.6,692.15,-2.87059
3573.4,694.05,-2.90116
3584.21,695.95,-2.92916
3595.035,697.85,-2.9506
3605.86,699.75,-2.97056
3616.707,701.65,-2.99739
3627.54,703.55,-3.02095
3638.391,705.45,-3.0347
3649.26,707.35,-3.04458
3660.15,709.25,-3.06571
3671.02,711.15,-3.07865
3681.89,713.05,-3.09551
3692.775,714.95,-3.11852
3703.67,716.85,-3.13656
3714.58,718.75,-3.15273
3725.5,720.65,-3.16888
3736.43,722.55,-3.18318
3747.35,724.45,-3.19951
3758.325,726.35,-3.21241
3769.32,728.25,-3.22967
3780.33,730.15,-3.23953
3791.337,732.05,-3.25533
3802.365,733.95,-3.26105
3813.4,735.85,-3.27925
3824.45,737.75,-3.29568
3835.51,739.65,-3.3073
3846.58,741.55,-3.32545
3857.67,743.45,-3.34209
3868.776,745.35,-3.35701
3879.85,747.25,-3.37439
3890.92,749.15,-3.38747
3902.02,751.05,-3.40179
3913.14,752.95,-3.41887
3924.26,754.85,-3.43534
3935.382,756.75,-3.45196
3946.5,758.65,-3.47056
3957.61,760.55,-3.48523
3968.736,762.45,-3.49708
3979.87,764.35,-3.5104
3991.01,766.25,-3.52069
4002.15,768.15,-3.53403
4013.31,770.05,-3.54605
4024.47,771.95,-3.55521
4035.68,773.85,-3.56633
4046.86,775.75,-3.57944
4058.06,777.65,-3.59118
4069.28,779.55,-3.59512
4080.513,781.45,-3.60343
4091.74,783.35,-3.60929
4102.97,785.25,-3.6141
4114.239,787.15,-3.62108
4125.51,789.05,-3.62711
4136.82,790.95,-3.62984
4148.14,792.85,-3.63739
4159.47,794.75,-3.64416
4170.8,796.65,-3.65216
4182.12,798.55,-3.66072
4193.45,800.45,-3.6675
4204.785,802.35,-3.684
4216.122,804.25,-3.69032
4227.47,806.15,-3.70135
4238.81,808.05,-3.7158
4250.15,809.95,-3.72417
4261.49,811.85,-3.73813
4272.82,813.75,-3.74861
4284.17,815.65,-3.7598
4295.523,817.55,-3.76783
4306.845,819.45,-3.7796
4318.191,821.35,-3.78612
4329.558,823.25,-3.79143
4340.91,825.15,-3.79667
4352.283,827.05,-3.80034
4363.665,828.95,-3.80612
4375.03,830.85,-3.81111
4386.38,832.75,-3.81751
4397.77,834.65,-3.82416
4409.13,836.55,-3.83015
4420.509,838.45,-3.83865
4431.89,840.35,-3.84375
4443.27,842.25,-3.84411
4454.65,844.15,-3.84466
4466.05,846.05,-3.84586
4477.488,847.95,-3.84909
4488.91,849.85,-3.85024
4500.35,851.75,-3.84699
4511.8,853.65,-3.85043
4523.268,855.55,-3.8531
4534.74,857.45,-3.85
4546.22,859.35,-3.84702
4557.72,861.25,-3.84011
4569.23,863.15,-3.83846
4580.75,865.05,-3.83278
4592.27,866.95,-3.83426
4603.78,868.85,-3.82891
4615.296,870.75,-3.83499
4619.6,871.45,-3.83425