Folder: matl-db/PMMA/Calibration_Data/TIFP (part 3)

File: TIFP_DSC_N2_10K_6.csv
Time,Temperature,Heat Flow
[s],[K],[mW/mg]
0,302.613,0.0106
12,302.6,0.0105
24,302.592,0.00847
36,302.581,0.000677
48,302.569,-0.0167
60,302.56,-0.0465
72,302.585,-0.094
84,302.752,-0.15657
96,303.17,-0.2181
108,303.956,-0.26654
120,305.194,-0.28784
132,306.936,-0.26946
144,309.2,-0.20214
156,311.941,-0.0952
168,315.083,0.0298
180,318.521,0.1551
192,322.149,0.26662
204,325.855,0.35849
216,329.548,0.42739
228,333.145,0.4734
240,336.584,0.49879
252,339.832,0.50651
264,342.88,0.50096
276,345.711,0.4864
288,348.342,0.46594
300,350.795,0.44325
312,353.08,0.42094
324,355.242,0.40026
336,357.302,0.38143
348,359.285,0.36542
360,361.215,0.35373
372,363.11,0.34803
384,364.99,0.34896
396,366.858,0.35613
408,368.73,0.36835
420,370.612,0.38424
432,372.502,0.40302
444,374.407,0.4241
456,376.326,0.44637
468,378.257,0.46907
480,380.198,0.49207
492,382.149,0.51543
504,384.107,0.53795
516,386.072,0.56327
528,388.042,0.5869
540,390.019,0.60894
552,392.003,0.63066
564,393.99,0.65339
576,395.987,0.67611
588,397.984,0.69832
600,399.987,0.71899
612,401.996,0.73828
624,404.013,0.75825
636,406.03,0.77847
648,408.051,0.79889
660,410.079,0.816
672,412.105,0.8366
684,414.134,0.85794
696,416.159,0.87961
708,418.184,0.90166
720,420.206,0.92308
732,422.225,0.94337
744,424.244,0.9638
756,426.261,0.98475
768,428.275,1.01229
780,430.292,1.03484
792,432.3,1.05736
804,434.309,1.07949
816,436.313,1.10236
828,438.316,1.12426
840,440.315,1.1464
852,442.316,1.16844
864,444.313,1.19129
876,446.308,1.21371
888,448.301,1.24223
900,450.291,1.26519
912,452.281,1.28685
924,454.27,1.30701
936,456.261,1.3252
948,458.249,1.34159
960,460.235,1.356
972,462.22,1.36869
984,464.203,1.38019
996,466.191,1.39202
1008,468.182,1.40344
1020,470.173,1.41547
1032,472.162,1.42867
1044,474.153,1.44378
1056,476.147,1.45998
1068,478.138,1.47688
1080,480.129,1.49281
1092,482.122,1.50674
1104,484.117,1.51935
1116,486.112,1.52945
1128,488.104,1.53759
1140,490.096,1.54701
1152,492.088,1.55535
1164,494.082,1.56378
1176,496.074,1.57231
1188,498.069,1.58199
1200,500.063,1.59355
1212,502.06,1.60494
1224,504.058,1.61665
1236,506.052,1.62851
1248,508.048,1.64097
1260,510.044,1.65364
1272,512.038,1.6667
1284,514.031,1.67978
1296,516.021,1.69345
1308,518.02,1.70685
1320,520.011,1.72112
1332,522.005,1.73512
1344,524.003,1.74897
1356,525.998,1.76328
1368,527.994,1.77616
1380,529.992,1.79063
1392,531.989,1.80643
1404,533.989,1.82316
1416,535.99,1.84039
1428,537.99,1.85687
1440,539.991,1.87316
1452,541.991,1.88838
1464,543.99,1.90186
1476,545.991,1.91566
1488,547.988,1.92852
1500,549.987,1.94118
1512,551.983,1.95387
1524,553.978,1.96571
1536,555.973,1.97777
1548,557.965,1.98829
1560,559.959,1.99776
1572,561.951,2.00715
1584,563.942,2.01633
1596,565.934,2.02877
1608,567.928,2.05375
1620,569.92,2.0807
1632,571.916,2.10595
1644,573.915,2.12874
1656,575.912,2.15171
1668,577.906,2.17287
1680,579.907,2.19348
1692,581.906,2.21261
1704,583.908,2.23419
1716,585.906,2.25706
1728,587.909,2.28258
1740,589.91,2.31165
1752,591.906,2.34602
1764,593.906,2.38384
1776,595.901,2.42652
1788,597.898,2.47408
1800,599.896,2.52661
1812,601.892,2.58366
1824,603.89,2.64749
1836,605.885,2.7178
1848,607.88,2.79622
1860,609.876,2.88097
1872,611.871,2.97512
1884,613.866,3.07844
1896,615.86,3.19033
1908,617.858,3.31189
1920,619.856,3.44382
1932,621.855,3.585
1944,623.854,3.73386
1956,625.85,3.88893
1968,627.849,4.04499
1980,629.848,4.19688
1992,631.844,4.32684
2004,633.839,4.41226
2016,635.832,4.43785
2028,637.822,4.41985
2040,639.818,4.40964
2052,641.818,4.43453
2064,643.815,4.43721
2076,645.82,4.48871
2088,647.823,4.44965
2100,649.823,4.32905
2112,651.832,4.31904
2124,653.837,4.28545
2136,655.844,4.19433
2148,657.846,4.02583
2160,659.856,3.96542
2172,661.862,3.87904
2184,663.864,3.70366
2196,665.865,3.45679
2208,667.866,3.25607
2220,669.873,3.08158
2232,671.878,2.91354
2244,673.881,2.76442
2256,675.886,2.63299
2268,677.886,2.52276
2280,679.883,2.42444
2292,681.878,2.34246
2304,683.873,2.27389
2316,685.866,2.21487
2328,687.858,2.16483
2340,689.851,2.12387
2352,691.845,2.09007
2364,693.836,2.06182
2376,695.828,2.03982
2388,697.82,2.02276
2400,699.813,2.00525
2412,701.805,1.98651
2424,703.799,1.96582
2436,705.792,1.94672
2448,707.788,1.9331
2460,709.785,1.9252
2472,711.787,1.92249
2484,713.785,1.90713
2496,715.783,1.89957
2508,717.778,1.89542
2520,719.778,1.89392
2532,721.776,1.89193
2544,723.776,1.88946
2556,725.777,1.88902
2568,727.779,1.8887
2580,729.781,1.88872
2592,731.785,1.88872
2604,733.782,1.88927
2616,735.78,1.88915
2628,737.779,1.8883
2640,739.778,1.88857
2652,741.778,1.88869
2664,743.778,1.89001
2676,745.779,1.89119
2688,747.781,1.89209
2700,749.779,1.89383
2712,751.777,1.89642
2724,753.774,1.89877
2736,755.772,1.89928
2748,757.77,1.90197
2760,759.768,1.90589
2772,761.768,1.90934
2784,763.767,1.91293
2796,765.77,1.91614
2808,767.773,1.92062
2820,769.777,1.92639
2832,771.78,1.93324
2844,773.785,1.93953
2856,775.786,1.94632
2868,777.786,1.95397
2880,779.785,1.96026
2892,781.786,1.96777
2904,783.789,1.97544
2916,785.793,1.98351
2928,787.794,1.99035
2940,789.796,1.99866
2952,791.8,2.00569
2964,793.799,2.01249
2976,795.8,2.0192
2988,797.803,2.02534
3000,799.807,2.03381
3012,801.814,2.04056
3024,803.816,2.04884
3036,805.82,2.05701
3048,807.822,2.06459
3060,809.828,2.07113
3072,811.83,2.07869
3084,813.831,2.08555
3096,815.832,2.09191
3108,817.832,2.09774
3120,819.834,2.10505
3132,821.837,2.10914
3135,822.335,2.10981

File: TIFP_DSC_N2_10K_7.csv
Time,Temperature,Heat Flow
[s],[K],[mW/mg]
0,300.13,0.00143
12,300.136,0.00163
24,300.205,0.00297
36,300.428,0.00557
48,300.899,0.00999
60,301.687,0.0171
72,302.842,0.0259
84,304.396,0.0363
96,306.339,0.0476
108,308.628,0.0574
120,311.207,0.0658
132,313.997,0.0723
144,316.925,0.0762
156,319.912,0.0794
168,322.906,0.081
180,325.846,0.0822
192,328.706,0.0823
204,331.452,0.0829
216,334.082,0.0836
228,336.595,0.0846
240,338.999,0.0859
252,341.296,0.0877
264,343.516,0.0902
276,345.665,0.0931
288,347.757,0.0965
300,349.812,0.10048
312,351.837,0.1053
324,353.847,0.10942
336,355.841,0.11295
348,357.831,0.11442
360,359.823,0.11381
372,361.807,0.11258
384,363.796,0.11172
396,365.787,0.11185
408,367.772,0.11154
420,369.759,0.11251
432,371.737,0.11335
444,373.721,0.11468
456,375.704,0.11568
468,377.687,0.11777
480,379.673,0.11982
492,381.654,0.12187
504,383.642,0.12412
516,385.63,0.12651
528,387.625,0.12907
540,389.622,0.13156
552,391.62,0.13408
564,393.624,0.137
576,395.629,0.1416
588,397.64,0.14649
600,399.654,0.15188
612,401.669,0.15696
624,403.688,0.15887
636,405.707,0.15833
648,407.732,0.15814
660,409.752,0.15898
672,411.775,0.16002
684,413.797,0.16172
696,415.819,0.16376
708,417.843,0.16534
720,419.863,0.16767
732,421.877,0.16963
744,423.893,0.17228
756,425.904,0.17532
768,427.913,0.17869
780,429.918,0.18286
792,431.923,0.18737
804,433.921,0.19286
816,435.919,0.19866
828,437.914,0.20493
840,439.907,0.21218
852,441.902,0.22023
864,443.894,0.22936
876,445.886,0.23888
888,447.883,0.2491
900,449.876,0.25878
912,451.874,0.2681
924,453.867,0.27676
936,455.862,0.28411
948,457.854,0.29017
960,459.847,0.29411
972,461.839,0.29683
984,463.829,0.29862
996,465.818,0.29931
1008,467.813,0.30027
1020,469.803,0.30085
1032,471.794,0.30234
1044,473.784,0.3053
1056,475.778,0.31058
1068,477.775,0.31637
1080,479.769,0.32274
1092,481.765,0.32801
1104,483.758,0.33212
1116,485.75,0.33455
1128,487.745,0.3353
1140,489.739,0.33624
1152,491.736,0.3363
1164,493.731,0.33707
1176,495.731,0.34006
1188,497.732,0.34475
1200,499.729,0.34938
1212,501.728,0.35535
1224,503.723,0.36205
1236,505.717,0.3698
1248,507.713,0.37803
1260,509.705,0.38712
1272,511.7,0.39627
1284,513.693,0.4064
1296,515.691,0.41733
1308,517.687,0.42816
1320,519.687,0.43963
1332,521.684,0.45175
1344,523.682,0.46445
1356,525.682,0.47785
1368,527.68,0.49203
1380,529.683,0.50676
1392,531.68,0.52193
1404,533.681,0.53802
1416,535.679,0.55403
1428,537.677,0.57092
1440,539.673,0.59002
1452,541.676,0.60892
1464,543.679,0.62861
1476,545.68,0.64817
1488,547.677,0.66653
1500,549.675,0.68512
1512,551.668,0.7034
1524,553.66,0.72291
1536,555.66,0.74484
1548,557.653,0.76732
1560,559.649,0.79113
1572,561.648,0.81624
1584,563.639,0.83954
1596,565.635,0.86495
1608,567.63,0.88899
1620,569.629,0.9146
1632,571.622,0.93684
1644,573.62,0.96126
1656,575.614,0.98378
1668,577.609,1.00822
1680,579.609,1.03379
1692,581.606,1.06399
1704,583.601,1.09551
1716,585.599,1.12912
1728,587.598,1.16342
1740,589.599,1.20272
1752,591.598,1.2462
1764,593.597,1.29402
1776,595.595,1.34717
1788,597.595,1.40629
1800,599.592,1.47156
1812,601.591,1.54424
1824,603.589,1.62322
1836,605.587,1.71056
1848,607.587,1.80734
1860,609.587,1.91488
1872,611.584,2.0324
1884,613.581,2.16201
1896,615.576,2.30463
1908,617.573,2.46165
1920,619.571,2.63069
1932,621.566,2.81334
1944,623.567,3.00948
1956,625.562,3.21885
1968,627.56,3.43956
1980,629.556,3.67229
1992,631.55,3.897
2004,633.547,4.10021
2016,635.536,4.24172
2028,637.52,4.26837
2040,639.506,4.22668
2052,641.493,4.10835
2064,643.482,3.99826
2076,645.485,4.06144
2088,647.5,4.45467
2100,649.497,4.43443
2112,651.497,4.40694
2124,653.489,4.27537
2136,655.494,4.29125
2148,657.492,4.25623
2160,659.493,4.12286
2172,661.493,4.10238
2184,663.49,3.95043
2196,665.487,3.6617
2208,667.479,3.33608
2220,669.479,3.05806
2232,671.483,2.88445
2244,673.482,2.65908
2256,675.487,2.45808
2268,677.487,2.28409
2280,679.489,2.12439
2292,681.487,1.9954
2304,683.481,1.88633
2316,685.478,1.7973
2328,687.472,1.72697
2340,689.47,1.67275
2352,691.466,1.63452
2364,693.459,1.60772
2376,695.449,1.58864
2388,697.445,1.57836
2400,699.443,1.57359
2412,701.441,1.56943
2424,703.436,1.56621
2436,705.431,1.56767
2448,707.427,1.57393
2460,709.419,1.58702
2472,711.42,1.60996
2484,713.415,1.62661
2496,715.405,1.64906
2508,717.393,1.68076
2520,719.382,1.71594
2532,721.377,1.75139
2544,723.369,1.789
2556,725.363,1.82747
2568,727.363,1.86657
2580,729.366,1.90649
2592,731.368,1.94826
2604,733.374,1.99023
2616,735.381,2.03253
2628,737.387,2.0765
2640,739.391,2.12
2652,741.398,2.16477
2664,743.401,2.20997
2676,745.403,2.25528
2688,747.404,2.30101
2700,749.406,2.34675
2712,751.403,2.39366
2724,753.401,2.44102
2736,755.396,2.48705
2748,757.397,2.53416
2760,759.394,2.58064
2772,761.394,2.62461
2784,763.398,2.67161
2796,765.402,2.7195
2808,767.404,2.76706
2820,769.407,2.81437
2832,771.408,2.86283
2844,773.412,2.91144
2856,775.416,2.95953
2868,777.42,3.00758
2880,779.422,3.05729
2892,781.423,3.1059
2904,783.425,3.15429
2916,785.425,3.20168
2928,787.428,3.24895
2940,789.433,3.2962
2952,791.434,3.34336
2964,793.441,3.39101
2976,795.441,3.43906
2988,797.447,3.48586
3000,799.448,3.53212
3012,801.447,3.57814
3024,803.445,3.62454
3036,805.445,3.67021
3048,807.442,3.71547
3060,809.446,3.75918
3072,811.449,3.80244
3084,813.456,3.84585
3096,815.461,3.89084
3108,817.469,3.93356
3120,819.476,3.97709
3132,821.477,4.01945
3135,821.98,4.03022

File: TIFP_DSC_N2_10K_8.csv
Time,Temperature,Heat Flow
[s],[K],[mW/mg]
0,300.149,0.00399
12,300.149,0.00364
24,300.221,0.00482
36,300.444,0.00747
48,300.91,0.0121
60,301.695,0.0185
72,302.851,0.0257
84,304.399,0.0343
96,306.341,0.0436
108,308.627,0.052
120,311.205,0.06
132,313.992,0.0663
144,316.921,0.0697
156,319.912,0.073
168,322.909,0.0751
180,325.852,0.0768
192,328.709,0.0784
204,331.461,0.0803
216,334.091,0.0826
228,336.605,0.0852
240,339.006,0.0885
252,341.308,0.092
264,343.523,0.0965
276,345.672,0.10178
288,347.769,0.10778
300,349.825,0.11389
312,351.856,0.12075
324,353.866,0.12643
336,355.864,0.13184
348,357.856,0.13466
360,359.844,0.13577
372,361.828,0.13595
384,363.812,0.13619
396,365.798,0.13767
408,367.776,0.13899
420,369.76,0.14117
432,371.742,0.14361
444,373.718,0.14629
456,375.698,0.14857
468,377.674,0.1519
480,379.654,0.15562
492,381.636,0.1589
504,383.621,0.16295
516,385.607,0.16695
528,387.599,0.17111
540,389.595,0.17548
552,391.597,0.18058
564,393.604,0.18607
576,395.615,0.19325
588,397.63,0.20066
600,399.649,0.20853
612,401.669,0.21657
624,403.692,0.2204
636,405.714,0.22216
648,407.74,0.22397
660,409.763,0.2266
672,411.785,0.2291
684,413.81,0.23318
696,415.832,0.23717
708,417.849,0.24096
720,419.871,0.24504
732,421.886,0.24874
744,423.9,0.25271
756,425.91,0.25778
768,427.918,0.26269
780,429.924,0.2689
792,431.928,0.27529
804,433.926,0.28221
816,435.923,0.28986
828,437.916,0.29793
840,439.91,0.30718
852,441.907,0.31742
864,443.899,0.32833
876,445.891,0.34003
888,447.885,0.35145
900,449.874,0.36242
912,451.865,0.3734
924,453.859,0.38374
936,455.85,0.39395
948,457.844,0.40223
960,459.835,0.40859
972,461.828,0.41343
984,463.818,0.41792
996,465.817,0.4214
1008,467.804,0.42477
1020,469.799,0.42816
1032,471.79,0.43225
1044,473.784,0.43798
1056,475.775,0.44487
1068,477.77,0.45255
1080,479.765,0.46118
1092,481.762,0.4687
1104,483.758,0.47528
1116,485.755,0.48013
1128,487.748,0.48216
1140,489.743,0.48485
1152,491.74,0.48791
1164,493.737,0.49199
1176,495.73,0.49717
1188,497.729,0.50471
1200,499.725,0.51233
1212,501.723,0.5211
1224,503.72,0.53141
1236,505.714,0.54189
1248,507.71,0.55388
1260,509.706,0.56593
1272,511.703,0.5782
1284,513.701,0.59053
1296,515.697,0.60349
1308,517.697,0.61709
1320,519.695,0.63278
1332,521.696,0.64762
1344,523.693,0.66274
1356,525.69,0.67877
1368,527.69,0.6964
1380,529.689,0.71348
1392,531.686,0.73096
1404,533.686,0.75074
1416,535.686,0.7712
1428,537.685,0.79302
1440,539.683,0.8147
1452,541.679,0.83583
1464,543.677,0.85764
1476,545.67,0.87936
1488,547.663,0.90113
1500,549.661,0.92466
1512,551.652,0.94738
1524,553.644,0.97222
1536,555.642,0.9992
1548,557.638,1.027
1560,559.636,1.05503
1572,561.631,1.08254
1584,563.626,1.11098
1596,565.623,1.13975
1608,567.617,1.16654
1620,569.614,1.19599
1632,571.611,1.22428
1644,573.609,1.25283
1656,575.604,1.28147
1668,577.607,1.31113
1680,579.604,1.342
1692,581.602,1.37763
1704,583.604,1.41576
1716,585.602,1.45503
1728,587.602,1.49685
1740,589.603,1.54335
1752,591.609,1.59323
1764,593.609,1.6493
1776,595.608,1.70829
1788,597.606,1.7734
1800,599.603,1.84425
1812,601.598,1.92202
1824,603.593,2.0069
1836,605.595,2.1008
1848,607.595,2.20299
1860,609.593,2.31387
1872,611.587,2.43572
1884,613.586,2.56968
1896,615.583,2.71445
1908,617.576,2.87266
1920,619.566,3.03985
1932,621.558,3.21954
1944,623.555,3.40852
1956,625.548,3.61109
1968,627.542,3.83143
1980,629.54,4.06226
1992,631.535,4.27602
2004,633.533,4.4887
2016,635.528,4.67701
2028,637.517,4.77786
2040,639.498,4.68899
2052,641.486,4.51284
2064,643.491,4.68281
2076,645.49,4.79925
2088,647.497,5.02155
2100,649.493,5.11035
2112,651.489,5.10066
2124,653.481,5.02593
2136,655.479,4.93704
2148,657.476,4.75904
2160,659.479,4.64197
2172,661.482,4.46408
2184,663.482,4.20847
2196,665.479,3.90437
2208,667.484,3.63019
2220,669.49,3.37375
2232,671.492,3.15779
2244,673.5,3.00147
2256,675.502,2.85312
2268,677.501,2.70983
2280,679.503,2.58321
2292,681.497,2.47387
2304,683.494,2.38219
2316,685.489,2.30808
2328,687.487,2.25232
2340,689.478,2.21014
2352,691.471,2.17995
2364,693.463,2.15968
2376,695.46,2.14733
2388,697.455,2.14256
2400,699.449,2.14328
2412,701.445,2.14456
2424,703.44,2.14834
2436,705.439,2.15598
2448,707.434,2.16857
2460,709.432,2.18966
2472,711.426,2.21541
2484,713.418,2.24746
2496,715.411,2.27097
2508,717.404,2.30675
2520,719.395,2.34618
2532,721.385,2.38979
2544,723.377,2.43446
2556,725.369,2.47999
2568,727.365,2.52627
2580,729.367,2.57424
2592,731.365,2.62334
2604,733.363,2.67319
2616,735.362,2.72401
2628,737.364,2.77685
2640,739.361,2.82986
2652,741.358,2.88381
2664,743.357,2.93842
2676,745.358,2.99354
2688,747.361,3.05005
2700,749.362,3.10744
2712,751.371,3.16486
2724,753.381,3.22285
2736,755.389,3.28127
2748,757.402,3.34061
2760,759.409,3.40026
2772,761.414,3.46117
2784,763.419,3.52145
2796,765.422,3.58176
2808,767.418,3.64194
2820,769.42,3.70332
2832,771.414,3.76371
2844,773.411,3.82469
2856,775.406,3.88526
2868,777.405,3.94613
2880,779.404,4.00661
2892,781.402,4.06589
2904,783.407,4.12555
2916,785.415,4.18466
2928,787.421,4.24362
2940,789.424,4.30283
2952,791.431,4.3621
2964,793.435,4.42147
2976,795.439,4.48085
2988,797.441,4.53946
3000,799.446,4.59612
3012,801.451,4.65593
3024,803.452,4.71382
3036,805.456,4.77155
3048,807.458,4.82467
3060,809.463,4.88048
3072,811.469,4.93625
3084,813.477,4.99116
3096,815.483,5.04652
3108,817.49,5.10143
3120,819.496,5.15542
3132,821.5,5.20835
3135,821.998,5.2211

File: TIFP_DSC_N2_10K_9.csv
Time,Temperature,Heat Flow
[s],[K],[mW/mg]
0,300.147,0.0045
12,300.153,0.00428
24,300.22,0.00517
36,300.443,0.00704
48,300.91,0.00988
60,301.697,0.0144
72,302.855,0.0194
84,304.407,0.0247
96,306.348,0.0313
108,308.642,0.0374
120,311.218,0.0432
132,314.005,0.0478
144,316.928,0.0506
156,319.915,0.0531
168,322.906,0.0546
180,325.849,0.056
192,328.705,0.0571
204,331.452,0.0586
216,334.083,0.0609
228,336.6,0.0635
240,339.005,0.0661
252,341.306,0.0694
264,343.53,0.0732
276,345.678,0.0777
288,347.773,0.0824
300,349.83,0.0874
312,351.859,0.0931
324,353.869,0.0981
336,355.866,0.1024
348,357.856,0.1045
360,359.846,0.10441
372,361.833,0.1036
384,363.819,0.1026
396,365.802,0.10284
408,367.784,0.10292
420,369.767,0.10398
432,371.746,0.10512
444,373.73,0.10663
456,375.708,0.10788
468,377.685,0.10999
480,379.661,0.11241
492,381.643,0.11459
504,383.628,0.1175
516,385.614,0.12036
528,387.602,0.12318
540,389.602,0.12651
552,391.599,0.12973
564,393.608,0.13342
576,395.617,0.13816
588,397.627,0.14364
600,399.649,0.14881
612,401.668,0.15402
624,403.691,0.15548
636,405.715,0.15466
648,407.74,0.15407
660,409.765,0.15482
672,411.789,0.1555
684,413.814,0.15736
696,415.836,0.15882
708,417.858,0.16059
720,419.874,0.16201
732,421.89,0.16339
744,423.903,0.1652
756,425.91,0.16783
768,427.914,0.17134
780,429.917,0.17542
792,431.919,0.18043
804,433.919,0.18565
816,435.919,0.19158
828,437.916,0.19756
840,439.911,0.20497
852,441.908,0.21326
864,443.904,0.22169
876,445.893,0.23044
888,447.89,0.23939
900,449.881,0.24868
912,451.873,0.25732
924,453.866,0.26557
936,455.864,0.27292
948,457.857,0.27855
960,459.845,0.282
972,461.842,0.28541
984,463.833,0.28688
996,465.827,0.28733
1008,467.821,0.28733
1020,469.814,0.28799
1032,471.809,0.28891
1044,473.803,0.29076
1056,475.799,0.29422
1068,477.792,0.29771
1080,479.786,0.302
1092,481.776,0.30602
1104,483.768,0.30883
1116,485.758,0.30997
1128,487.752,0.3103
1140,489.74,0.31037
1152,491.729,0.31043
1164,493.722,0.31136
1176,495.714,0.31353
1188,497.71,0.31725
1200,499.706,0.32154
1212,501.702,0.32735
1224,503.697,0.33335
1236,505.695,0.34031
1248,507.692,0.34928
1260,509.694,0.35759
1272,511.691,0.3663
1284,513.689,0.37499
1296,515.687,0.38449
1308,517.684,0.39406
1320,519.682,0.40464
1332,521.678,0.4161
1344,523.677,0.42778
1356,525.675,0.44005
1368,527.671,0.4534
1380,529.671,0.46717
1392,531.667,0.48155
1404,533.661,0.49678
1416,535.657,0.51287
1428,537.655,0.52944
1440,539.651,0.54677
1452,541.649,0.56456
1464,543.649,0.58362
1476,545.65,0.6043
1488,547.651,0.62499
1500,549.649,0.64597
1512,551.649,0.66654
1524,553.646,0.68839
1536,555.645,0.70932
1548,557.643,0.73168
1560,559.642,0.75456
1572,561.636,0.77725
1584,563.633,0.79979
1596,565.628,0.82199
1608,567.626,0.84345
1620,569.619,0.86563
1632,571.616,0.88638
1644,573.61,0.90702
1656,575.607,0.92802
1668,577.607,0.94863
1680,579.603,0.97098
1692,581.602,0.99759
1704,583.6,1.02487
1716,585.599,1.05535
1728,587.598,1.08664
1740,589.596,1.12168
1752,591.597,1.16022
1764,593.597,1.20438
1776,595.594,1.2527
1788,597.593,1.30632
1800,599.587,1.36533
1812,601.588,1.43082
1824,603.582,1.50331
1836,605.579,1.58274
1848,607.573,1.67058
1860,609.569,1.76693
1872,611.566,1.87341
1884,613.564,1.98984
1896,615.56,2.11764
1908,617.56,2.25832
1920,619.562,2.41086
1932,621.561,2.57588
1944,623.562,2.75462
1956,625.563,2.94769
1968,627.559,3.15386
1980,629.559,3.36849
1992,631.554,3.58333
2004,633.543,3.791
2016,635.529,3.9272
2028,637.504,3.92647
2040,639.484,3.85474
2052,641.467,3.72072
2064,643.479,4.00963
2076,645.486,4.16011
2088,647.478,4.17018
2100,649.474,4.15849
2112,651.479,4.31602
2124,653.479,4.30064
2136,655.481,4.30141
2148,657.481,4.24024
2160,659.48,4.15012
2172,661.478,4.0662
2184,663.475,3.88732
2196,665.469,3.65023
2208,667.466,3.36803
2220,669.461,3.09682
2232,671.462,2.86186
2244,673.464,2.6846
2256,675.469,2.53397
2268,677.47,2.38197
2280,679.469,2.23495
2292,681.471,2.11707
2304,683.47,2.01041
2316,685.469,1.92209
2328,687.474,1.85392
2340,689.47,1.80236
2352,691.469,1.76522
2364,693.47,1.73999
2376,695.464,1.72325
2388,697.458,1.71613
2400,699.448,1.71413
2412,701.441,1.71285
2424,703.43,1.71295
2436,705.422,1.71481
2448,707.414,1.72072
2460,709.406,1.73364
2472,711.407,1.75379
2484,713.402,1.77062
2496,715.398,1.79041
2508,717.395,1.81988
2520,719.388,1.85267
2532,721.381,1.88593
2544,723.378,1.92127
2556,725.373,1.95769
2568,727.375,1.99494
2580,729.374,2.03357
2592,731.375,2.07195
2604,733.375,2.11159
2616,735.373,2.15124
2628,737.373,2.19173
2640,739.37,2.23262
2652,741.369,2.27417
2664,743.367,2.31476
2676,745.368,2.35611
2688,747.366,2.39827
2700,749.372,2.44088
2712,751.379,2.4829
2724,753.382,2.52677
2736,755.387,2.57024
2748,757.387,2.61442
2760,759.392,2.65827
2772,761.397,2.70271
2784,763.403,2.74684
2796,765.408,2.79257
2808,767.412,2.83765
2820,769.413,2.88338
2832,771.413,2.93019
2844,773.408,2.97629
2856,775.409,3.0232
2868,777.405,3.06993
2880,779.404,3.1161
2892,781.407,3.1623
2904,783.414,3.20777
2916,785.423,3.2536
2928,787.43,3.30015
2940,789.439,3.34726
2952,791.444,3.39424
2964,793.449,3.44117
2976,795.458,3.48801
2988,797.457,3.53554
3000,799.46,3.58344
3012,801.462,3.6304
3024,803.461,3.67792
3036,805.459,3.72536
3048,807.457,3.77236
3060,809.457,3.81767
3072,811.463,3.86425
3084,813.469,3.90997
3096,815.471,3.956
3108,817.474,4.0024
3120,819.477,4.04822
3132,821.484,4.09385
3135,821.985,4.10477