Folder: matl-db/PMMA/Calibration_Data/TIFP (part 5)

File: TIFP_TGA_N2_10K_5.csv
Time,Temperature,Mass
[s],[K],[mg]
0,300.513,5.7616
12,300.492,5.7636
24,300.528,5.7651
36,300.705,5.7632
48,301.122,5.765
60,301.852,5.7656
72,302.945,5.7667
84,304.427,5.7687
96,306.305,5.7689
108,308.534,5.772
120,311.062,5.774
132,313.818,5.7741
144,316.714,5.7758
156,319.692,5.7763
168,322.682,5.7788
180,325.632,5.7827
192,328.503,5.7827
204,331.271,5.784
216,333.929,5.7881
228,336.469,5.7894
240,338.895,5.791
252,341.22,5.7923
264,343.457,5.7923
276,345.628,5.7936
288,347.737,5.797
300,349.805,5.7983
312,351.84,5.8004
324,353.856,5.8027
336,355.861,5.803
348,357.855,5.8057
360,359.849,5.8057
372,361.834,5.8064
384,363.822,5.8097
396,365.81,5.8124
408,367.795,5.8097
420,369.778,5.8111
432,371.762,5.8138
444,373.745,5.8147
456,375.724,5.816
468,377.704,5.8175
480,379.685,5.8178
492,381.665,5.8201
504,383.644,5.8188
516,385.627,5.8358
528,387.615,5.8329
540,389.605,5.8302
552,391.605,5.8269
564,393.609,5.8271
576,395.618,5.8281
588,397.636,5.8271
600,399.66,5.8283
612,401.68,5.8293
624,403.71,5.8293
636,405.741,5.8293
648,407.768,5.8308
660,409.799,5.8419
672,411.825,5.8291
684,413.852,5.8277
696,415.878,5.8291
708,417.898,5.8275
720,419.919,5.8275
732,421.936,5.8261
744,423.949,5.8247
756,425.962,5.8261
768,427.966,5.8247
780,429.969,5.8247
792,431.974,5.8229
804,433.977,5.8216
816,435.975,5.8189
828,437.978,5.8149
840,439.979,5.8149
852,441.977,5.8095
864,443.975,5.8068
876,445.973,5.8044
888,447.97,5.7999
900,449.966,5.7931
912,451.963,5.787
924,453.951,5.7834
936,455.948,5.7799
948,457.943,5.7668
960,459.935,5.7586
972,461.928,5.754
984,463.921,5.7469
996,465.918,5.7383
1008,467.912,5.7336
1020,469.911,5.7294
1032,471.908,5.7212
1044,473.903,5.7158
1056,475.901,5.7132
1068,477.899,5.7046
1080,479.896,5.6975
1092,481.896,5.6934
1104,483.894,5.6907
1116,485.891,5.6846
1128,487.89,5.6783
1140,489.885,5.6752
1152,491.883,5.6772
1164,493.879,5.6772
1176,495.878,5.6761
1188,497.876,5.6721
1200,499.877,5.671
1212,501.877,5.6697
1224,503.88,5.67
1236,505.883,5.6687
1248,507.884,5.6713
1260,509.883,5.6696
1272,511.891,5.6659
1284,513.888,5.6673
1296,515.886,5.6673
1308,517.883,5.6677
1320,519.883,5.6666
1332,521.879,5.6653
1344,523.881,5.6622
1356,525.882,5.6592
1368,527.878,5.6626
1380,529.877,5.659
1392,531.879,5.655
1404,533.881,5.6547
1416,535.886,5.6523
1428,537.885,5.651
1440,539.885,5.647
1452,541.888,5.6405
1464,543.892,5.6376
1476,545.885,5.6362
1488,547.883,5.6309
1500,549.877,5.6248
1512,551.875,5.6201
1524,553.872,5.6137
1536,555.871,5.6057
1548,557.871,5.597
1560,559.87,5.5894
1572,561.87,5.5794
1584,563.868,5.5699
1596,565.872,5.5555
1608,567.872,5.5453
1620,569.873,5.5318
1632,571.875,5.5197
1644,573.876,5.5059
1656,575.877,5.4931
1668,577.88,5.477
1680,579.876,5.4631
1692,581.878,5.4455
1704,583.873,5.4317
1716,585.871,5.4144
1728,587.867,5.3967
1740,589.863,5.3801
1752,591.861,5.3578
1764,593.859,5.3336
1776,595.862,5.309
1788,597.86,5.2849
1800,599.859,5.252
1812,601.855,5.2189
1824,603.853,5.1829
1836,605.847,5.1422
1848,607.845,5.0913
1860,609.84,5.0411
1872,611.835,4.9805
1884,613.833,4.9147
1896,615.831,4.8432
1908,617.83,4.7617
1920,619.832,4.6677
1932,621.834,4.5684
1944,623.835,4.4554
1956,625.83,4.332
1968,627.825,4.2003
1980,629.822,4.0558
1992,631.815,3.9011
2004,633.804,3.7381
2016,635.792,3.5679
2028,637.78,3.3949
2040,639.769,3.2207
2052,641.765,3.0488
2064,643.772,2.8717
2076,645.787,2.6911
2088,647.795,2.5054
2100,649.794,2.321
2112,651.788,2.1384
2124,653.799,1.9565
2136,655.805,1.7777
2148,657.807,1.6124
2160,659.824,1.4542
2172,661.848,1.3065
2184,663.883,1.1759
2196,665.923,1.0571
2208,667.979,0.9539
2220,670.047,0.8606
2232,672.122,0.7814
2244,674.203,0.7112
2256,676.274,0.6509
2268,678.348,0.6001
2280,680.414,0.5564
2292,682.473,0.523
2304,684.521,0.4936
2316,686.557,0.4701
2328,688.587,0.4515
2340,690.609,0.4344
2352,692.625,0.4227
2364,694.641,0.4116
2376,696.651,0.4029
2388,698.663,0.3966
2400,700.67,0.3896
2412,702.677,0.3856
2424,704.683,0.3828
2436,706.686,0.3788
2448,708.69,0.3788
2460,710.694,0.3779
2472,712.702,0.3795
2484,714.703,0.3775
2496,716.701,0.3802
2508,718.695,0.3789
2520,720.686,0.3795
2532,722.672,0.3802
2544,724.657,0.3816
2556,726.634,0.3856
2568,728.609,0.3856
2580,730.574,0.3856
2592,732.541,0.3842
2604,734.502,0.3856
2616,736.459,0.3856
2628,738.418,0.3846
2640,740.375,0.3856
2652,742.332,0.3869
2664,744.293,0.3883
2676,746.252,0.3869
2688,748.216,0.3886
2700,750.188,0.3909
2712,752.158,0.3896
2724,754.136,0.3909
2736,756.117,0.3923
2748,758.102,0.3923
2760,760.089,0.3909
2772,762.072,0.395
2784,764.057,0.3963
2796,766.041,0.3976
2808,768.028,0.397
2820,770.015,0.398
2832,772.007,0.3993
2844,773.999,0.4007
2856,775.99,0.4027
2868,777.983,0.404
2880,779.977,0.4054
2892,781.971,0.4044
2904,783.967,0.4057
2916,785.965,0.405
2928,787.964,0.4057
2940,789.964,0.4067
2952,791.963,0.4053
2964,793.962,0.4079
2976,795.959,0.4106
2988,797.96,0.411
3000,799.957,0.4123
3012,801.956,0.412
3024,803.956,0.411
3036,805.957,0.416
3048,807.95,0.415
3060,809.948,0.4163
3072,811.947,0.4163
3084,813.942,0.4163
3096,815.939,0.419
3108,817.935,0.419
3120,819.931,0.4203
3132,821.927,0.4197
3135,822.424,0.4203

File: TIFP_TGA_N2_10K_6.csv
Time,Temperature,Mass
[s],[K],[mg]
0,302.613,5.4602
12,302.6,5.463
24,302.592,5.452
36,302.581,5.4278
48,302.569,5.3961
60,302.56,5.3581
72,302.585,5.3195
84,302.752,5.3047
96,303.17,5.2996
108,303.956,5.3079
120,305.194,5.3284
132,306.936,5.3524
144,309.2,5.3854
156,311.941,5.4155
168,315.083,5.4456
180,318.521,5.4743
192,322.149,5.4925
204,325.855,5.5099
216,329.548,5.5238
228,333.145,5.5307
240,336.584,5.5349
252,339.832,5.5351
264,342.88,5.5335
276,345.711,5.529
288,348.342,5.524
300,350.795,5.5173
312,353.08,5.5109
324,355.242,5.5061
336,357.302,5.5007
348,359.285,5.4967
360,361.215,5.4927
372,363.11,5.49
384,364.99,5.4906
396,366.858,5.4893
408,368.73,5.488
420,370.612,5.4893
432,372.502,5.4913
444,374.407,5.4902
456,376.326,5.4929
468,378.257,5.4929
480,380.198,5.4942
492,382.149,5.4962
504,384.107,5.4969
516,386.072,5.5126
528,388.042,5.511
540,390.019,5.5056
552,392.003,5.5023
564,393.99,5.5035
576,395.987,5.5035
588,397.984,5.5035
600,399.987,5.5048
612,401.996,5.5074
624,404.013,5.5077
636,406.03,5.5047
648,408.051,5.5061
660,410.079,5.5159
672,412.105,5.5024
684,414.134,5.5031
696,416.159,5.5031
708,418.184,5.5028
720,420.206,5.5025
732,422.225,5.5012
744,424.244,5.5001
756,426.261,5.5012
768,428.275,5.4985
780,430.292,5.4985
792,432.3,5.4967
804,434.309,5.4943
816,436.313,5.494
828,438.316,5.49
840,440.315,5.4886
852,442.316,5.4846
864,444.313,5.4819
876,446.308,5.4796
888,448.301,5.4739
900,450.291,5.4699
912,452.281,5.4635
924,454.27,5.4578
936,456.261,5.4529
948,458.249,5.4441
960,460.235,5.4343
972,462.22,5.4295
984,464.203,5.424
996,466.191,5.4173
1008,468.182,5.4116
1020,470.173,5.4056
1032,472.162,5.4006
1044,474.153,5.3944
1056,476.147,5.3895
1068,478.138,5.384
1080,480.129,5.3784
1092,482.122,5.3733
1104,484.117,5.3688
1116,486.112,5.3634
1128,488.104,5.3594
1140,490.096,5.3577
1152,492.088,5.3584
1164,494.082,5.3584
1176,496.074,5.3574
1188,498.069,5.3534
1200,500.063,5.3523
1212,502.06,5.3496
1224,504.058,5.3527
1236,506.052,5.3514
1248,508.048,5.3527
1260,510.044,5.3499
1272,512.038,5.3509
1284,514.031,5.3506
1296,516.021,5.3479
1308,518.02,5.3492
1320,520.011,5.3479
1332,522.005,5.3466
1344,524.003,5.3466
1356,525.998,5.3439
1368,527.994,5.3435
1380,529.992,5.3436
1392,531.989,5.3396
1404,533.989,5.3393
1416,535.99,5.3356
1428,537.99,5.3343
1440,539.991,5.3322
1452,541.991,5.3276
1464,543.99,5.3255
1476,545.991,5.3219
1488,547.988,5.3165
1500,549.987,5.3123
1512,551.983,5.3063
1524,553.978,5.2994
1536,555.973,5.2938
1548,557.965,5.286
1560,559.959,5.278
1572,561.951,5.2686
1584,563.942,5.2589
1596,565.934,5.2472
1608,567.928,5.2372
1620,569.92,5.2229
1632,571.916,5.2123
1644,573.915,5.2016
1656,575.912,5.1871
1668,577.906,5.1737
1680,579.907,5.161
1692,581.906,5.1457
1704,583.908,5.1314
1716,585.906,5.1139
1728,587.909,5.0958
1740,589.91,5.0784
1752,591.906,5.0558
1764,593.906,5.0321
1776,595.901,5.0084
1788,597.898,4.9775
1800,599.896,4.9456
1812,601.892,4.9117
1824,603.89,4.8697
1836,605.885,4.8245
1848,607.88,4.7713
1860,609.876,4.7169
1872,611.871,4.6509
1884,613.866,4.578
1896,615.86,4.4983
1908,617.858,4.4101
1920,619.856,4.3101
1932,621.855,4.2005
1944,623.854,4.0806
1956,625.85,3.9528
1968,627.849,3.8123
1980,629.848,3.6661
1992,631.844,3.5086
2004,633.839,3.3439
2016,635.832,3.1725
2028,637.822,2.9976
2040,639.818,2.8237
2052,641.818,2.6462
2064,643.815,2.4688
2076,645.82,2.294
2088,647.823,2.1197
2100,649.823,1.9514
2112,651.832,1.7863
2124,653.837,1.6243
2136,655.844,1.4692
2148,657.846,1.3272
2160,659.856,1.1935
2172,661.862,1.0677
2184,663.864,0.9541
2196,665.865,0.8554
2208,667.866,0.77
2220,669.873,0.6931
2232,671.878,0.6254
2244,673.881,0.569
2256,675.886,0.5192
2268,677.886,0.4804
2280,679.883,0.4445
2292,681.878,0.4184
2304,683.873,0.3942
2316,685.866,0.3776
2328,687.858,0.362
2340,689.851,0.3517
2352,691.845,0.3412
2364,693.836,0.3295
2376,695.828,0.324
2388,697.82,0.3189
2400,699.813,0.3135
2412,701.805,0.3108
2424,703.799,0.308
2436,705.792,0.306
2448,707.788,0.3043
2460,709.785,0.3044
2472,711.787,0.3064
2484,713.785,0.3047
2496,715.783,0.3071
2508,717.778,0.3071
2520,719.778,0.3078
2532,721.776,0.3084
2544,723.776,0.3098
2556,725.777,0.3111
2568,727.779,0.3111
2580,729.781,0.3125
2592,731.785,0.3111
2604,733.782,0.3131
2616,735.78,0.3131
2628,737.779,0.3145
2640,739.778,0.3155
2652,741.778,0.3155
2664,743.778,0.3182
2676,745.779,0.3182
2688,747.781,0.3198
2700,749.779,0.3208
2712,751.777,0.3218
2724,753.774,0.3222
2736,755.772,0.3222
2748,757.77,0.3232
2760,759.768,0.3225
2772,761.768,0.3252
2784,763.767,0.3279
2796,765.77,0.3279
2808,767.773,0.3275
2820,769.777,0.3286
2832,771.78,0.3282
2844,773.785,0.3309
2856,775.786,0.3336
2868,777.786,0.3326
2880,779.785,0.3353
2892,781.786,0.3332
2904,783.789,0.3359
2916,785.793,0.3373
2928,787.794,0.3369
2940,789.796,0.3376
2952,791.8,0.3396
2964,793.799,0.3403
2976,795.8,0.3393
2988,797.803,0.342
3000,799.807,0.3433
3012,801.814,0.3457
3024,803.816,0.343
3036,805.82,0.3457
3048,807.822,0.3457
3060,809.828,0.347
3072,811.83,0.346
3084,813.831,0.3477
3096,815.832,0.351
3108,817.832,0.3497
3120,819.834,0.352
3132,821.837,0.3514
3135,822.335,0.3507

File: TIFP_TGA_N2_10K_9.csv
Time,Temperature,Mass fraction
[s],[K],[mg]
0,300.147,5.7491
12,300.153,5.7492
24,300.22,5.7497
36,300.443,5.7502
48,300.91,5.7489
60,301.697,5.7537
72,302.855,5.7514
84,304.407,5.7515
96,306.348,5.7539
108,308.642,5.7531
120,311.218,5.7542
132,314.005,5.7551
144,316.928,5.755
156,319.915,5.7559
168,322.906,5.7561
180,325.849,5.7553
192,328.705,5.7563
204,331.452,5.7577
216,334.083,5.7563
228,336.6,5.7573
240,339.005,5.7573
252,341.306,5.7587
264,343.53,5.7587
276,345.678,5.761
288,347.773,5.76
300,349.83,5.7604
312,351.859,5.761
324,353.869,5.761
336,355.866,5.7624
348,357.856,5.7624
360,359.846,5.7637
372,361.833,5.7629
384,363.819,5.7636
396,365.802,5.7637
408,367.784,5.7637
420,369.767,5.7627
432,371.746,5.7651
444,373.73,5.7651
456,375.708,5.7637
468,377.685,5.7653
480,379.661,5.7649
492,381.643,5.7653
504,383.628,5.7653
516,385.614,5.7639
528,387.602,5.7657
540,389.602,5.7644
552,391.599,5.7671
564,393.608,5.7657
576,395.617,5.7671
588,397.627,5.7684
600,399.649,5.7664
612,401.668,5.7657
624,403.691,5.7665
636,405.715,5.7661
648,407.74,5.7647
660,409.765,5.7647
672,411.789,5.7654
684,413.814,5.7647
696,415.836,5.7634
708,417.858,5.762
720,419.874,5.762
732,421.89,5.7607
744,423.903,5.7594
756,425.91,5.7594
768,427.914,5.7567
780,429.917,5.7547
792,431.919,5.751
804,433.919,5.7523
816,435.919,5.7486
828,437.916,5.749
840,439.911,5.7442
852,441.908,5.7401
864,443.904,5.7374
876,445.893,5.7331
888,447.89,5.7254
900,449.881,5.7217
912,451.873,5.716
924,453.866,5.7093
936,455.864,5.7004
948,457.857,5.6947
960,459.845,5.6875
972,461.842,5.6768
984,463.833,5.6719
996,465.827,5.663
1008,467.821,5.6575
1020,469.814,5.6479
1032,471.809,5.6425
1044,473.803,5.6356
1056,475.799,5.6284
1068,477.792,5.6245
1080,479.786,5.6177
1092,481.776,5.611
1104,483.768,5.6063
1116,485.758,5.6014
1128,487.752,5.5973
1140,489.74,5.5919
1152,491.729,5.5892
1164,493.722,5.5879
1176,495.714,5.5862
1188,497.71,5.5848
1200,499.706,5.5835
1212,501.702,5.5808
1224,503.697,5.5812
1236,505.695,5.5808
1248,507.692,5.5771
1260,509.694,5.5772
1272,511.691,5.5752
1284,513.689,5.5752
1296,515.687,5.5746
1308,517.684,5.5722
1320,519.682,5.5705
1332,521.678,5.5689
1344,523.677,5.5675
1356,525.675,5.5668
1368,527.671,5.5635
1380,529.671,5.5622
1392,531.667,5.5595
1404,533.661,5.5568
1416,535.657,5.5541
1428,537.655,5.5514
1440,539.651,5.5481
1452,541.649,5.5446
1464,543.649,5.5406
1476,545.65,5.5352
1488,547.651,5.5315
1500,549.649,5.526
1512,551.649,5.5207
1524,553.646,5.5133
1536,555.645,5.5065
1548,557.643,5.4982
1560,559.642,5.4889
1572,561.636,5.4818
1584,563.633,5.4711
1596,565.628,5.4609
1608,567.626,5.4506
1620,569.619,5.4368
1632,571.616,5.4257
1644,573.61,5.4118
1656,575.607,5.3979
1668,577.607,5.3857
1680,579.603,5.3723
1692,581.602,5.3554
1704,583.6,5.3374
1716,585.599,5.322
1728,587.598,5.3052
1740,589.596,5.2875
1752,591.597,5.2668
1764,593.597,5.2444
1776,595.594,5.2192
1788,597.593,5.1918
1800,599.587,5.1623
1812,601.588,5.1292
1824,603.582,5.0909
1836,605.579,5.0504
1848,607.573,5.0031
1860,609.569,4.9522
1872,611.566,4.894
1884,613.564,4.8275
1896,615.56,4.7566
1908,617.56,4.6764
1920,619.562,4.5868
1932,621.561,4.4891
1944,623.562,4.382
1956,625.563,4.2649
1968,627.559,4.1358
1980,629.559,3.9958
1992,631.554,3.8462
2004,633.543,3.6856
2016,635.529,3.5169
2028,637.504,3.3447
2040,639.484,3.1715
2052,641.467,2.9994
2064,643.479,2.8242
2076,645.486,2.6385
2088,647.478,2.4536
2100,649.474,2.269
2112,651.479,2.0851
2124,653.479,1.8998
2136,655.481,1.7194
2148,657.481,1.547
2160,659.48,1.3753
2172,661.478,1.2122
2184,663.475,1.0611
2196,665.469,0.9282
2208,667.466,0.8094
2220,669.461,0.7081
2232,671.462,0.6189
2244,673.464,0.5383
2256,675.469,0.4708
2268,677.47,0.4176
2280,679.469,0.3689
2292,681.471,0.3288
2304,683.47,0.2978
2316,685.469,0.2717
2328,687.474,0.2463
2340,689.47,0.2287
2352,691.469,0.2122
2364,693.47,0.2011
2376,695.464,0.1949
2388,697.458,0.1825
2400,699.448,0.1768
2412,701.441,0.1727
2424,703.43,0.1649
2436,705.422,0.1622
2448,707.414,0.1585
2460,709.406,0.1572
2472,711.407,0.1568
2484,713.402,0.1568
2496,715.398,0.1558
2508,717.395,0.1545
2520,719.388,0.1585
2532,721.381,0.1572
2544,723.378,0.1558
2556,725.373,0.1572
2568,727.375,0.1558
2580,729.374,0.1545
2592,731.375,0.1545
2604,733.375,0.1545
2616,735.373,0.1555
2628,737.373,0.1545
2640,739.37,0.1555
2652,741.369,0.1532
2664,743.367,0.1558
2676,745.368,0.1545
2688,747.366,0.1558
2700,749.372,0.1558
2712,751.379,0.1545
2724,753.382,0.1572
2736,755.387,0.1552
2748,757.387,0.1542
2760,759.392,0.1552
2772,761.397,0.1545
2784,763.403,0.1558
2796,765.408,0.1542
2808,767.412,0.1538
2820,769.413,0.1552
2832,771.413,0.1538
2844,773.408,0.1558
2856,775.409,0.1535
2868,777.405,0.1555
2880,779.404,0.1548
2892,781.407,0.1548
2904,783.414,0.1548
2916,785.423,0.1535
2928,787.43,0.1545
2940,789.439,0.1518
2952,791.444,0.1541
2964,793.449,0.1554
2976,795.458,0.1567
2988,797.457,0.1544
3000,799.46,0.1517
3012,801.462,0.1549
3024,803.461,0.156
3036,805.459,0.1543
3048,807.457,0.1573
3060,809.457,0.1533
3072,811.463,0.1553
3084,813.469,0.1539
3096,815.471,0.1556
3108,817.474,0.1543
3120,819.477,0.1543
3132,821.484,0.1539
3135,821.985,0.1543

File: TIFP_TGA_O2-21_10K_1.csv
Time,Temperature,Mass
s,K,mg
0,297.6031,4.47709
15,298.9183,4.47327
30,301.0276,4.47212
45,303.1958,4.47074
60,305.4102,4.46883
75,307.6714,4.46637
90,309.95,4.46485
105,312.2576,4.46325
120,314.5601,4.46173
135,316.875,4.46014
150,319.2268,4.45884
165,321.5738,4.45764
180,323.9411,4.45664
195,326.3165,4.45588
210,328.6843,4.45484
225,331.0868,4.45409
240,333.4718,4.45321
255,335.8798,4.45269
270,338.2917,4.45206
285,340.7218,4.45145
300,343.1384,4.4511
315,345.5557,4.45078
330,348.0068,4.45023
345,350.4402,4.44986
360,352.8951,4.4494
375,355.3437,4.44891
390,357.803,4.4487
405,360.2714,4.44825
420,362.7423,4.44784
435,365.2177,4.44764
450,367.7069,4.44747
465,370.1871,4.44702
480,372.6759,4.44667
495,375.179,4.44625
510,377.663,4.44593
525,380.163,4.44544
540,382.681,4.44499
555,385.184,4.44441
570,387.685,4.44381
585,390.216,4.4432
600,392.731,4.44252
615,395.249,4.44171
630,397.771,4.44089
645,400.318,4.44004
660,402.834,4.43888
675,405.376,4.43754
690,407.899,4.4363
705,410.446,4.43514
720,412.985,4.43391
735,415.52,4.43199
750,418.076,4.43096
765,420.607,4.42894
780,423.163,4.42783
795,425.716,4.42583
810,428.263,4.42491
825,430.814,4.42288
840,433.365,4.42195
855,435.921,4.42023
870,438.463,4.41911
885,441.02,4.41757
900,443.578,4.41619
915,446.13,4.4153
930,448.703,4.41389
945,451.252,4.41275
960,453.824,4.41191
975,456.388,4.41068
990,458.955,4.4092
1005,461.536,4.40842
1020,464.078,4.40767
1035,466.65,4.40655
1050,469.214,4.40545
1065,471.783,4.40468
1080,474.353,4.40414
1095,476.912,4.4034
1110,479.477,4.40265
1125,482.045,4.40186
1140,484.617,4.40094
1155,487.183,4.39985
1170,489.761,4.39917
1185,492.311,4.3986
1200,494.886,4.39801
1215,497.446,4.39685
1230,500.022,4.39605
1245,502.585,4.39556
1260,505.142,4.39474
1275,507.709,4.39386
1290,510.279,4.39308
1305,512.846,4.3922
1320,515.413,4.39107
1335,517.975,4.39094
1350,520.539,4.38943
1365,523.105,4.38806
1380,525.659,4.38762
1395,528.23,4.38634
1410,530.786,4.38441
1425,533.351,4.38184
1440,535.918,4.37818
1455,538.476,4.37248
1470,541.052,4.36501
1485,543.62,4.35501
1500,546.191,4.34188
1515,548.763,4.32558
1530,551.345,4.30599
1545,553.915,4.28416
1560,556.497,4.26179
1575,559.068,4.23999
1590,561.651,4.21852
1605,564.222,4.19557
1620,566.809,4.16924
1635,569.376,4.1379
1650,571.959,4.09999
1665,574.536,4.05287
1680,577.129,3.99358
1695,579.719,3.91767
1710,582.323,3.81631
1725,584.926,3.68506
1740,587.555,3.53981
1755,590.195,3.40337
1770,592.808,3.26244
1785,595.426,3.12613
1800,598.038,2.98244
1815,600.625,2.82764
1830,603.222,2.64634
1845,605.861,2.44083
1860,608.497,2.23361
1875,611.138,2.02981
1890,613.804,1.83182
1905,616.448,1.64535
1920,619.074,1.47604
1935,621.68,1.31077
1950,624.291,1.1575
1965,626.88,1.01589
1980,629.478,0.887
1995,632.041,0.7767
2010,634.591,0.67847
2025,637.127,0.59063
2040,639.649,0.51217
2055,642.163,0.44205
2070,644.655,0.37993
2085,647.135,0.32533
2100,649.619,0.27752
2115,652.085,0.2358
2130,654.535,0.20001
2145,656.96,0.16954
2160,659.369,0.14344
2175,661.785,0.12091
2190,664.198,0.10214
2205,666.624,0.08626
2220,669.048,0.07333
2235,671.486,0.06271
2250,673.915,0.05523
2265,676.354,0.04984
2280,678.787,0.0469
2295,681.247,0.04553
2310,683.712,0.04429
2325,686.181,0.04321
2340,688.67,0.04215
2355,691.164,0.04205
2370,693.665,0.04202
2385,696.157,0.04197
2400,698.665,0.04183
2415,701.173,0.04154
2430,703.674,0.04124
2445,706.19,0.04109
2460,708.697,0.04082
2475,711.204,0.04041
2490,713.723,0.04023
2505,716.227,0.04011
2520,718.745,0.04008
2535,721.254,0.04006
2550,723.77,0.03998
2565,726.284,0.03983
2580,728.801,0.0398
2595,731.306,0.03984
2610,733.821,0.03955
2625,736.343,0.03911
2640,738.852,0.03901
2655,741.363,0.03902
2670,743.869,0.03903
2685,746.38,0.03905
2700,748.893,0.03896
2715,751.411,0.03895
2730,753.921,0.03898
2745,756.428,0.03891
2760,758.944,0.03901
2775,761.445,0.03893
2790,763.956,0.039
2805,766.469,0.03886
2820,768.974,0.03872
2835,771.487,0.03879
2850,773.993,0.03854
2865,776.502,0.03879
2880,779.007,0.03866
2895,781.512,0.03893
2910,784.031,0.03895
2925,786.531,0.03891
2940,789.039,0.0389
2955,791.553,0.03882
2970,794.053,0.03873
2985,796.561,0.03862
3000,799.068,0.03857
3015,801.568,0.03877
3030,804.079,0.0389
3045,806.58,0.03899
3060,809.082,0.03898
3075,811.586,0.03896
3090,814.089,0.03891
3105,816.592,0.03899
3120,819.097,0.0389
3135,821.6,0.03875
3150,824.109,0.03899
3165,826.61,0.03899
3180,829.118,0.03909
3195,831.62,0.0391
3210,834.125,0.03908
3225,836.619,0.039
3240,839.119,0.03905
3255,841.623,0.03912
3270,844.117,0.03989
3285,846.62,0.03957
3300,849.124,0.0392
3315,851.617,0.0393
3330,854.124,0.03998
3345,856.616,0.03991
3360,859.118,0.03971
3375,861.613,0.04005
3390,864.115,0.04002
3405,866.612,0.0404
3420,869.102,0.04069
3435,871.599,0.04011
3450,874.091,0.04018
3465,876.584,0.04083
3480,879.086,0.04062
3495,881.587,0.03994
3510,884.076,0.04061
3525,886.576,0.04078
3540,889.066,0.04031
3555,891.569,0.0403
3570,894.061,0.04048
3585,896.547,0.04052
3600,899.052,0.03999
3615,901.532,0.04014
3630,904.029,0.04086
3645,906.52,0.04048
3660,909.008,0.0405
3675,911.513,0.04089
3690,914,0.04087
3705,916.498,0.04071
3720,918.991,0.04058
3735,921.481,0.041
3750,923.967,0.04095
3765,926.455,0.04051
3780,928.941,0.04083
3795,931.434,0.04099
3810,933.934,0.04075
3825,936.417,0.04046
3840,938.898,0.041
3855,941.388,0.04089
3870,943.872,0.04034
3885,946.365,0.04098
3900,948.857,0.04098
3915,951.341,0.04062
3930,953.826,0.04093
3945,956.309,0.04099
3960,958.794,0.04076
3975,961.277,0.04087
3990,963.755,0.04099
4005,966.255,0.04119
4020,968.737,0.041
4035,971.21,0.04101
4050,973.692,0.04077
4065,976.17,0.041
4080,978.644,0.04081
4095,981.13,0.04067
4110,983.602,0.04098
4125,986.078,0.04089
4140,988.562,0.04076
4155,991.034,0.04089
4170,993.527,0.0402
4185,995.999,0.04099
4200,998.486,0.04023
4215,1000.962,0.041
4230,1003.429,0.04095
4245,1005.91,0.04087
4260,1008.387,0.04098
4275,1010.857,0.04088
4290,1013.337,0.041
4305,1015.813,0.04067
4320,1018.285,0.04099
4335,1020.752,0.04089
4350,1023.229,0.041