Folder: matl-db/PMMA/Calibration_Data/TIFP (part 4)

File: TIFP_DSC_O2-21_10K_1.csv
Time,Temperature,Heat flow
s,K,W g-1
0,297.6031,-0.19889
15,298.9183,-0.18551
30,301.0276,-0.13283
45,303.1958,-0.09267
60,305.4102,-0.06535
75,307.6714,-0.04973
90,309.95,-0.03649
105,312.2576,-0.0199
120,314.5601,-0.01217
135,316.875,-0.00853
150,319.2268,-0.00508
165,321.5738,-0.00126
180,323.9411,0.00113
195,326.3165,-0.00393
210,328.6843,0.00408
225,331.0868,0.00902
240,333.4718,0.00945
255,335.8798,0.0143
270,338.2917,0.01678
285,340.7218,0.02377
300,343.1384,0.03036
315,345.5557,0.03357
330,348.0068,0.03474
345,350.4402,0.0334
360,352.8951,0.03338
375,355.3437,0.03372
390,357.803,0.0319
405,360.2714,0.02891
420,362.7423,0.0283
435,365.2177,0.02746
450,367.7069,0.0264
465,370.1871,0.03093
480,372.6759,0.03318
495,375.179,0.03075
510,377.663,0.0354
525,380.163,0.03975
540,382.681,0.0448
555,385.184,0.05017
570,387.685,0.05688
585,390.216,0.06691
600,392.731,0.07509
615,395.249,0.08604
630,397.771,0.09149
645,400.318,0.1014
660,402.834,0.10912
675,405.376,0.1112
690,407.899,0.11044
705,410.446,0.105
720,412.985,0.10594
735,415.52,0.10426
750,418.076,0.10017
765,420.607,0.09976
780,423.163,0.10465
795,425.716,0.1024
810,428.263,0.10527
825,430.814,0.10654
840,433.365,0.10677
855,435.921,0.11219
870,438.463,0.10906
885,441.02,0.11511
900,443.578,0.11832
915,446.13,0.11361
930,448.703,0.11294
945,451.252,0.11483
960,453.824,0.11798
975,456.388,0.11704
990,458.955,0.12022
1005,461.536,0.12307
1020,464.078,0.11507
1035,466.65,0.12226
1050,469.214,0.12503
1065,471.783,0.12234
1080,474.353,0.12248
1095,476.912,0.12268
1110,479.477,0.12555
1125,482.045,0.1292
1140,484.617,0.12838
1155,487.183,0.12483
1170,489.761,0.12212
1185,492.311,0.12689
1200,494.886,0.12022
1215,497.446,0.11965
1230,500.022,0.12599
1245,502.585,0.12475
1260,505.142,0.12923
1275,507.709,0.13208
1290,510.279,0.13525
1305,512.846,0.13656
1320,515.413,0.14032
1335,517.975,0.14658
1350,520.539,0.14417
1365,523.105,0.14884
1380,525.659,0.15853
1395,528.23,0.16629
1410,530.786,0.17312
1425,533.351,0.18353
1440,535.918,0.2042
1455,538.476,0.23849
1470,541.052,0.2766
1485,543.62,0.3324
1500,546.191,0.40239
1515,548.763,0.47858
1530,551.345,0.55501
1545,553.915,0.62113
1560,556.497,0.67323
1575,559.068,0.70496
1590,561.651,0.72383
1605,564.222,0.73764
1620,566.809,0.7615
1635,569.376,0.82016
1650,571.959,0.9178
1665,574.536,1.05837
1680,577.129,1.25904
1695,579.719,1.57685
1710,582.323,2.05264
1725,584.926,2.56283
1740,587.555,2.8498
1755,590.195,3.03583
1770,592.808,3.19368
1785,595.426,3.42287
1800,598.038,3.80066
1815,600.625,4.30212
1830,603.222,4.78639
1845,605.861,5.16195
1860,608.497,5.44374
1875,611.138,5.59408
1890,613.804,5.47668
1905,616.448,5.19007
1920,619.074,5.1324
1935,621.68,5.06052
1950,624.291,4.79709
1965,626.88,4.41014
1980,629.478,3.69405
1995,632.041,3.2612
2010,634.591,2.91864
2025,637.127,2.56883
2040,639.649,2.17206
2055,642.163,1.72414
2070,644.655,1.21476
2085,647.135,0.6331
2100,649.619,0.00526
2115,652.085,-0.50827
2130,654.535,-0.83393
2145,656.96,-0.97622
2160,659.369,-0.96448
2175,661.785,-0.8809
2190,664.198,-0.77634
2205,666.624,-0.67255
2220,669.048,-0.56604
2235,671.486,-0.46715
2250,673.915,-0.37596
2265,676.354,-0.26855
2280,678.787,-0.14172
2295,681.247,-0.02766
2310,683.712,0.05335
2325,686.181,0.10606
2340,688.67,0.1398
2355,691.164,0.15958
2370,693.665,0.17586
2385,696.157,0.18912
2400,698.665,0.19234
2415,701.173,0.19319
2430,703.674,0.19152
2445,706.19,0.18855
2460,708.697,0.17968
2475,711.204,0.17297
2490,713.723,0.17096
2505,716.227,0.16553
2520,718.745,0.15704
2535,721.254,0.15418
2550,723.77,0.14294
2565,726.284,0.13
2580,728.801,0.12316
2595,731.306,0.11462
2610,733.821,0.11155
2625,736.343,0.10269
2640,738.852,0.09964
2655,741.363,0.09057
2670,743.869,0.09569
2685,746.38,0.09119
2700,748.893,0.09034
2715,751.411,0.09337
2730,753.921,0.09318
2745,756.428,0.10334
2760,758.944,0.0958
2775,761.445,0.0976
2790,763.956,0.0957
2805,766.469,0.10068
2820,768.974,0.1073
2835,771.487,0.10368
2850,773.993,0.09877
2865,776.502,0.09581
2880,779.007,0.09486
2895,781.512,0.09768
2910,784.031,0.09755
2925,786.531,0.1015
2940,789.039,0.1031
2955,791.553,0.10678
2970,794.053,0.10862
2985,796.561,0.11106
3000,799.068,0.1129
3015,801.568,0.11011
3030,804.079,0.11188
3045,806.58,0.10584
3060,809.082,0.11109
3075,811.586,0.11171
3090,814.089,0.11108
3105,816.592,0.11302
3120,819.097,0.11659
3135,821.6,0.11942
3150,824.109,0.11314
3165,826.61,0.10772
3180,829.118,0.10414
3195,831.62,0.10357
3210,834.125,0.10571
3225,836.619,0.10556
3240,839.119,0.10379
3255,841.623,0.10443
3270,844.117,0.10339
3285,846.62,0.10384
3300,849.124,0.1071
3315,851.617,0.10668
3330,854.124,0.10872
3345,856.616,0.11116
3360,859.118,0.10914
3375,861.613,0.10719
3390,864.115,0.1029
3405,866.612,0.10915
3420,869.102,0.10245
3435,871.599,0.1083
3450,874.091,0.1074
3465,876.584,0.10556
3480,879.086,0.10642
3495,881.587,0.1023
3510,884.076,0.10251
3525,886.576,0.10216
3540,889.066,0.09741
3555,891.569,0.09363
3570,894.061,0.09247
3585,896.547,0.09076
3600,899.052,0.08526
3615,901.532,0.08138
3630,904.029,0.07583
3645,906.52,0.07836
3660,909.008,0.07069
3675,911.513,0.07067
3690,914,0.07117
3705,916.498,0.07157
3720,918.991,0.07379
3735,921.481,0.07531
3750,923.967,0.07235
3765,926.455,0.06409
3780,928.941,0.04963
3795,931.434,0.05202
3810,933.934,0.04837
3825,936.417,0.04237
3840,938.898,0.03916
3855,941.388,0.04028
3870,943.872,0.03384
3885,946.365,0.03573
3900,948.857,0.03731
3915,951.341,0.03998
3930,953.826,0.03922
3945,956.309,0.03618
3960,958.794,0.03813
3975,961.277,0.04144
3990,963.755,0.04229
4005,966.255,0.04383
4020,968.737,0.04888
4035,971.21,0.03751
4050,973.692,0.02718
4065,976.17,0.03325
4080,978.644,0.02321
4095,981.13,0.0263
4110,983.602,0.03137
4125,986.078,-0.04084
4140,988.562,-0.07514
4155,991.034,-0.09918
4170,993.527,-0.11332
4185,995.999,-0.12414
4200,998.486,-0.12793
4215,1000.962,-0.14589
4230,1003.429,-0.14694
4245,1005.91,-0.15232
4260,1008.387,-0.13767
4275,1010.857,-0.14268
4290,1013.337,-0.14905
4305,1015.813,-0.14722
4320,1018.285,-0.15467
4335,1020.752,-0.16102
4350,1023.229,-0.1741

File: TIFP_DSC_O2-21_10K_2.csv
Time,Temperature,Heat Flow
[s],[K],[mW/mg]
0,297.5898,-0.178378
15,298.9133,-0.167026
30,301.071,-0.089332
45,303.2608,-0.04574
60,305.4848,-0.016735
75,307.7528,0.003134
90,310.0502,0.018647
105,312.3632,0.032727
120,314.6739,0.04238
135,317.0269,0.046709
150,319.3781,0.05519
165,321.739,0.062607
180,324.1054,0.061982
195,326.488,0.062893
210,328.8691,0.072353
225,331.2648,0.075329
240,333.6706,0.079544
255,336.0793,0.087577
270,338.4749,0.092072
285,340.9009,0.099045
300,343.3283,0.099982
315,345.7647,0.107439
330,348.1989,0.111091
345,350.6356,0.114414
360,353.1,0.113297
375,355.5473,0.118358
390,358.0112,0.111952
405,360.4646,0.112123
420,362.9407,0.108575
435,365.4177,0.115259
450,367.8998,0.117023
465,370.3807,0.121835
480,372.8682,0.123655
495,375.361,0.127894
510,377.856,0.12924
525,380.352,0.134954
540,382.88,0.136813
555,385.38,0.14169
570,387.877,0.149221
585,390.406,0.156639
600,392.906,0.164677
615,395.431,0.174335
630,397.958,0.179149
645,400.476,0.189794
660,403.014,0.199718
675,405.549,0.199299
690,408.078,0.200808
705,410.617,0.195051
720,413.159,0.194153
735,415.689,0.192834
750,418.24,0.190542
765,420.781,0.189408
780,423.332,0.196346
795,425.879,0.191885
810,428.438,0.199955
825,430.986,0.198632
840,433.536,0.198263
855,436.09,0.198905
870,438.64,0.197336
885,441.201,0.203248
900,443.75,0.20691
915,446.31,0.207446
930,448.87,0.20899
945,451.435,0.21394
960,453.991,0.218335
975,456.553,0.21696
990,459.103,0.220295
1005,461.68,0.221364
1020,464.25,0.219978
1035,466.808,0.224096
1050,469.372,0.224032
1065,471.947,0.221622
1080,474.512,0.220203
1095,477.073,0.220611
1110,479.642,0.219934
1125,482.206,0.225113
1140,484.768,0.227385
1155,487.349,0.219961
1170,489.913,0.221578
1185,492.495,0.223444
1200,495.046,0.217973
1215,497.629,0.218348
1230,500.194,0.221578
1245,502.756,0.220889
1260,505.317,0.228625
1275,507.888,0.228408
1290,510.461,0.231505
1305,513.013,0.23375
1320,515.586,0.240844
1335,518.152,0.249106
1350,520.711,0.246484
1365,523.261,0.25059
1380,525.838,0.256934
1395,528.395,0.264789
1410,530.96,0.269157
1425,533.529,0.282838
1440,536.093,0.305313
1455,538.667,0.337111
1470,541.234,0.380407
1485,543.81,0.432255
1500,546.379,0.492874
1515,548.951,0.557992
1530,551.531,0.615839
1545,554.103,0.659404
1560,556.678,0.677574
1575,559.252,0.684341
1590,561.819,0.687707
1605,564.393,0.703978
1620,566.959,0.742458
1635,569.529,0.81974
1650,572.093,0.925815
1665,574.665,1.068514
1680,577.243,1.255148
1695,579.817,1.519916
1710,582.394,1.865654
1725,584.978,2.312702
1740,587.572,2.7115
1755,590.164,2.982364
1770,592.759,3.240617
1785,595.352,3.439853
1800,597.929,3.999054
1815,600.486,4.600875
1830,603.066,5.154233
1845,605.656,5.610106
1860,608.273,5.933816
1875,610.899,6.048775
1890,613.537,5.964901
1905,616.173,5.625889
1920,618.816,5.321211
1935,621.44,4.964705
1950,624.061,4.6582
1965,626.674,4.102959
1980,629.306,3.245346
1995,631.885,2.813675
2010,634.446,2.544388
2025,636.994,2.355052
2040,639.528,2.173426
2055,642.054,1.900653
2070,644.572,1.58222
2085,647.088,1.215228
2100,649.593,0.800699
2115,652.099,0.25956
2130,654.563,-0.161441
2145,657.022,-0.3621
2160,659.468,-0.437369
2175,661.918,-0.412028
2190,664.351,-0.337092
2205,666.786,-0.254643
2220,669.222,-0.172701
2235,671.667,-0.102876
2250,674.121,-0.041586
2265,676.581,0.010852
2280,679.034,0.053578
2295,681.486,0.10594
2310,683.952,0.167754
2325,686.413,0.212308
2340,688.88,0.231932
2355,691.373,0.245231
2370,693.86,0.242359
2385,696.358,0.245671
2400,698.855,0.24945
2415,701.361,0.255852
2430,703.864,0.252551
2445,706.366,0.253975
2460,708.875,0.254606
2475,711.389,0.242755
2490,713.904,0.22901
2505,716.408,0.222033
2520,718.918,0.214599
2535,721.431,0.205012
2550,723.948,0.187772
2565,726.454,0.173323
2580,728.98,0.1591
2595,731.489,0.147999
2610,734,0.136902
2625,736.52,0.121626
2640,739.023,0.11117
2655,741.54,0.10444
2670,744.051,0.09339
2685,746.559,0.078862
2700,749.077,0.072148
2715,751.578,0.077645
2730,754.1,0.066359
2745,756.607,0.057371
2760,759.116,0.057207
2775,761.623,0.046929
2790,764.129,0.037786
2805,766.64,0.037673
2820,769.141,0.031257
2835,771.651,0.022426
2850,774.157,0.018588
2865,776.667,0.014777
2880,779.175,0.016833
2895,781.685,0.006805
2910,784.191,-0.001591
2925,786.701,-0.003375
2940,789.206,-0.004066
2955,791.714,-0.005656
2970,794.213,-0.007467
2985,796.725,-0.017989
3000,799.215,-0.017383
3015,801.728,-0.024118
3030,804.235,-0.018725
3045,806.744,-0.028047
3060,809.25,-0.04223
3075,811.751,-0.048932
3090,814.251,-0.058389
3105,816.749,-0.054987
3120,819.249,-0.057483
3135,821.764,-0.060833
3150,824.259,-0.064056
3165,826.763,-0.073467
3180,829.262,-0.073694
3195,831.759,-0.069272
3210,834.26,-0.074037
3225,836.757,-0.07619
3240,839.261,-0.081571
3255,841.763,-0.082563
3270,844.259,-0.096632
3285,846.768,-0.099409
3300,849.259,-0.0984
3315,851.759,-0.098967
3330,854.256,-0.094751
3345,856.752,-0.099281
3360,859.254,-0.111419
3375,861.75,-0.120102
3390,864.248,-0.12454
3405,866.749,-0.12683
3420,869.241,-0.13131
3435,871.744,-0.139215
3450,874.234,-0.1429
3465,876.738,-0.145887
3480,879.239,-0.152137
3495,881.723,-0.154105
3510,884.227,-0.155399
3525,886.726,-0.15863
3540,889.223,-0.1658
3555,891.715,-0.171416
3570,894.199,-0.182492
3585,896.694,-0.175116
3600,899.183,-0.196441
3615,901.675,-0.209993
3630,904.17,-0.210149
3645,906.664,-0.209961
3660,909.16,-0.22979
3675,911.655,-0.235457
3690,914.139,-0.230692
3705,916.628,-0.234158
3720,919.114,-0.245898
3735,921.608,-0.249729
3750,924.097,-0.254923
3765,926.582,-0.273028
3780,929.071,-0.286716
3795,931.567,-0.288021
3810,934.056,-0.294899
3825,936.542,-0.320794
3840,939.027,-0.322958
3855,941.519,-0.31805
3870,943.999,-0.332968
3885,946.488,-0.337292
3900,948.976,-0.357048
3915,951.455,-0.361596
3930,953.946,-0.363966
3945,956.431,-0.380341
3960,958.911,-0.382095
3975,961.39,-0.397898
3990,963.872,-0.404056
4005,966.364,-0.422663
4020,968.839,-0.424948
4035,971.32,-0.443222
4050,973.801,-0.465759
4065,976.278,-0.468442
4080,978.764,-0.486445
4095,981.241,-0.498958
4110,983.724,-0.523595
4125,986.208,-0.582311
4140,988.683,-0.62305
4155,991.169,-0.655715
4170,993.649,-0.673041
4185,996.125,-0.691569
4200,998.601,-0.725128
4215,1001.072,-0.753253
4230,1003.546,-0.774101
4245,1006.026,-0.769358
4260,1008.499,-0.757284
4275,1010.972,-0.789568
4290,1013.449,-0.812445
4305,1015.92,-0.818283
4320,1018.397,-0.835163
4335,1020.864,-0.850152
4350,1023.341,-0.880501

File: TIFP_Gasification_65kW_1.csv
Time,Mass
[s],[g]
0,74.1
3,73.9907
6,73.9014
9,73.8641
12,73.8742
15,73.7983
18,73.7851
21,73.7629
24,73.6279
27,73.3325
30,72.9578
33,72.5592
36,72.13808
39,71.6689
42,71.1879
45,70.6829
48,70.14512
51,69.6472
54,69.1305
57,68.6177
60,68.0543
63,67.51129
66,67.0084
69,66.4028
72,65.9559
75,65.2742
78,64.6675
81,64.043
84,63.5734
87,63.0048
90,62.3237
93,61.8566
96,61.2587
99,60.7396
102,60.1609
105,59.321
108,58.8203
111,58.26941
114,57.6344
117,56.9679
120,56.3118
123,55.633
126,55.1434
129,54.7262
132,53.8313
135,53.0854
138,52.3718
141,51.9907
144,51.2892
147,50.579
150,49.8926
153,49.3209
156,48.3932
159,47.7184
162,46.9998
165,46.258
168,45.8525
171,45.1823
174,44.08598
177,43.655
180,42.9768
183,42.22625
186,41.3714
189,40.9032
192,40.0293
195,38.9773
198,38.7249
201,37.8269
204,37.2682
207,36.2683
210,35.3033
213,34.6669
216,33.6007
219,33.0883
222,32.8905
225,31.55149
228,30.6385
231,29.7439
234,28.7509
237,28.0194
240,26.8967
243,26.4159
246,25.4852
249,24.578
252,23.9102
255,22.6709
258,21.7706
261,20.8139
264,19.87777
267,19.0182
270,18.1364
273,17.3303
276,16.574
279,15.9395
282,15.3921
285,14.8396
288,14.3592
291,13.893
294,13.4668
297,13.1209
300,12.7128
303,12.3835
306,12.0493
309,11.738
312,11.4073
315,11.0921
318,10.8269
321,10.5552
324,10.26066
327,9.97471
330,9.724986
333,9.433079
336,9.23029
339,8.967827
342,8.735002
345,8.475231
348,8.24988
351,8.004391
354,7.752788
357,7.54609
360,7.306721
363,7.102781
366,6.880737
369,6.67742
372,6.475121
375,6.260144
378,6.069156
381,5.835626
384,5.661112
387,5.458684
390,5.279572
393,5.099974
396,4.919501
399,4.743991
402,4.567315
405,4.493101
408,4.235254
411,4.074122
414,3.909667
417,3.695952
420,3.618621
423,3.449629
426,3.3278
429,3.170049
432,3.028886
435,2.89046
438,2.747371
441,2.62642
444,2.505611
447,2.391262
450,2.246337
453,2.132108
456,2.027682
459,1.90402
462,1.810718
465,1.684891
468,1.586004
471,1.470321
474,1.394018
477,1.300935
480,1.214475
483,1.099435
486,1.050691
489,0.95796
492,0.881398
495,0.788501
498,0.736617
501,0.696939
504,0.610949
507,0.55601
510,0.481184
513,0.45158
516,0.4
519,0.391063
522,0.353385
525,0.323073
528,0.319791
531,0.279
534,0.294772
537,0.237102
540,0.24396
543,0.202373
546,0.181591
549,0.196855
552,0.178497
555,0.198122
558,0.160658
561,0.174195
564,0.125262
567,0.14285
570,0.113106
573,0.116571
576,0.118799
579,0.097543
582,0.084814
585,0.065809
588,0.097011
591,0.075026
594,0.074278
597,0.06444
600,0.084114
603,0.062537
606,0.073435
609,0.056001
612,0.051769
615,0.056831
618,0.048
621,0.040787
624,0.027241
627,0.048267
630,0.02054
633,0.032213
636,0.010508

File: TIFP_Gasification_65kW_2.csv
Time,Mass
[s],[g]
0,74.4
2,74.34111
4,74.2607
6,74.3441
8,74.36808
10,74.2382
12,73.8843
14,74.1869
16,73.4105
18,73.5743
20,74.6652
22,73.9116
24,74.25542
26,73.7291
28,73.6511
30,73.0531
32,72.6657
34,73.0007
36,72.7337
38,72.7946
40,71.1338
42,71.50218
44,71.911
46,70.3386
48,70.1864
50,70.33017
52,70.0529
54,69.5231
56,69.0985
58,68.8444
60,68.5677
62,68.1941
64,67.6993
66,67.73632
68,67.4068
70,67.1089
72,66.3421
74,65.3203
76,64.77579
78,64.9238
80,64.4475
82,63.9904
84,64.2294
86,63.7411
88,62.6428
90,62.6227
92,62.2131
94,61.6094
96,61.564
98,61.0303
100,60.8057
102,60.3625
104,59.6906
106,59.3682
108,58.8888
110,58.5474
112,57.6078
114,57.9975
116,57.6289
118,56.6551
120,56.6348
122,56.4125
124,55.8748
126,55.1556
128,54.4293
130,54.50755
132,53.4921
134,53.15144
136,53.5455
138,53.1002
140,51.5471
142,52.1072
144,51.3572
146,50.4414
148,50.6542
150,50.1468
152,49.54859
154,49.1023
156,48.5179
158,47.92546
160,47.4571
162,47.4425
164,46.6589
166,46.45
168,45.6544
170,45.9392
172,45.0675
174,44.7396
176,44.5831
178,43.8177
180,43.2998
182,42.85532
184,42.5691
186,41.67889
188,40.7769
190,40.6272
192,40.366
194,39.8317
196,39.4235
198,38.564
200,38.243
202,37.6397
204,37.2972
206,36.6989
208,35.95349
210,35.3633
212,35.4075
214,34.9197
216,34.0366
218,33.4784
220,33.0322
222,32.1103
224,32.0409
226,30.7158
228,30.252
230,30.198
232,29.23553
234,28.8509
236,28.5146
238,27.6583
240,27.0328
242,26.6608
244,25.9202
246,25.1283
248,24.79232
250,24.7649
252,23.68747
254,23.0622
256,22.2429
258,21.9773
260,21.6125
262,20.7076
264,19.9983
266,18.9457
268,18.5228
270,18.245
272,17.2073
274,16.9118
276,16.4293
278,15.9554
280,15.4232
282,15.3245
284,14.5693
286,14.1963
288,13.8961
290,14.3536
292,13.3259
294,12.8263
296,12.8549
298,12.7804
300,12.816
302,12.0848
304,11.9951
306,11.75173
308,11.4971
310,11.3163
312,11.0899
314,10.8813
316,10.6913
318,10.4564
320,10.2626
322,10.08877
324,9.910589
326,9.728073
328,9.567248
330,9.347206
332,9.216098
334,9.045246
336,8.875936
338,8.739117
340,8.583373
342,8.434958
344,8.279866
346,8.13506
348,8.002923
350,7.874879
352,7.74685
354,7.602897
356,7.493482
358,7.374556
360,7.244007
362,7.135383
364,7.044236
366,6.920494
368,6.811647
370,6.709363
372,6.624235
374,6.534892
376,6.405853
378,6.332984
380,6.224405
382,6.120505
384,6.035619
386,5.935449
388,5.825743
390,5.745254
392,5.648685
394,5.535481
396,5.485871
398,5.364619
400,5.266727
402,5.192973
404,5.068718
406,4.982222
408,4.894909
410,4.786907
412,4.692365
414,4.616481
416,4.504353
418,4.432461
420,4.337146
422,4.235242
424,4.134337
426,4.037959
428,3.925124
430,3.849322
432,3.767274
434,3.658627
436,3.56897
438,3.458982
440,3.366889
442,3.295505
444,3.165036
446,3.076286
448,3.006907
450,2.896405
452,2.824692
454,2.722483
456,2.62688
458,2.538429
460,2.448925
462,2.378587
464,2.303762
466,2.204842
468,2.133316
470,2.045442
472,1.969314
474,1.900702
476,1.800952
478,1.719188
480,1.656512
482,1.570625
484,1.518451
486,1.437029
488,1.362387
490,1.305241
492,1.245575
494,1.178173
496,1.145009
498,1.080848
500,1.013347
502,0.997569
504,0.935189
506,0.915302
508,0.867471
510,0.83192
512,0.809362
514,0.78167
516,0.687224
518,0.725303
520,0.682433
522,0.658429
524,0.64529
526,0.613378
528,0.580166
530,0.566876
532,0.527559
534,0.537641
536,0.510992
538,0.48663
540,0.486283
542,0.43824
544,0.43215
546,0.42811
548,0.41657
550,0.385708
552,0.384051
554,0.366496
556,0.351681
558,0.363138
560,0.32
562,0.336003
564,0.300189
566,0.28569
568,0.304887
570,0.274473
572,0.261343
574,0.240553
576,0.226063
578,0.237657
580,0.229606
582,0.196467
583,0.209312

File: TIFP_TGA_N2_10K_4.csv
Time,Temperature,Mass fraction
[s],[K],[mg]
0,300.339,5.1046
12,300.323,5.1073
24,300.365,5.1073
36,300.562,5.1074
48,301.006,5.1095
60,301.77,5.1108
72,302.903,5.1129
84,304.434,5.1134
96,306.356,5.1144
108,308.631,5.1156
120,311.195,5.1173
132,313.966,5.116
144,316.884,5.1187
156,319.859,5.1174
168,322.838,5.1191
180,325.774,5.1207
192,328.624,5.1193
204,331.371,5.1207
216,334.001,5.122
228,336.514,5.1247
240,338.921,5.1249
252,341.232,5.1263
264,343.462,5.1263
276,345.62,5.1289
288,347.728,5.1316
300,349.794,5.133
312,351.832,5.133
324,353.85,5.1343
336,355.856,5.1343
348,357.851,5.1357
360,359.846,5.136
372,361.834,5.1378
384,363.827,5.1401
396,365.812,5.1411
408,367.795,5.1408
420,369.778,5.1425
432,371.756,5.1416
444,373.737,5.1411
456,375.712,5.1438
468,377.693,5.1452
480,379.67,5.1452
492,381.65,5.1465
504,383.635,5.1452
516,385.626,5.1608
528,387.615,5.1592
540,389.612,5.1552
552,391.613,5.1509
564,393.618,5.1515
576,395.631,5.1519
588,397.639,5.1532
600,399.656,5.1532
612,401.674,5.1542
624,403.692,5.1532
636,405.715,5.1529
648,407.738,5.1529
660,409.764,5.1634
672,411.784,5.1499
684,413.809,5.1499
696,415.829,5.1499
708,417.848,5.1496
720,419.87,5.1496
732,421.883,5.1483
744,423.893,5.1483
756,425.906,5.1469
768,427.912,5.1446
780,429.916,5.1459
792,431.923,5.1442
804,433.92,5.1428
816,435.92,5.1415
828,437.914,5.1375
840,439.91,5.1368
852,441.904,5.1334
864,443.892,5.1307
876,445.886,5.1294
888,447.876,5.1254
900,449.866,5.1191
912,451.86,5.1154
924,453.85,5.1089
936,455.842,5.1069
948,457.831,5.0984
960,459.824,5.0898
972,461.811,5.0849
984,463.805,5.0804
996,465.797,5.0729
1008,467.789,5.0666
1020,469.786,5.0619
1032,471.779,5.0554
1044,473.776,5.0511
1056,475.775,5.0458
1068,477.769,5.0404
1080,479.766,5.0348
1092,481.76,5.0295
1104,483.753,5.0241
1116,485.748,5.0187
1128,487.737,5.0137
1140,489.731,5.0117
1152,491.727,5.0137
1164,493.722,5.0137
1176,495.714,5.0113
1188,497.713,5.0066
1200,499.704,5.0049
1212,501.703,5.0035
1224,503.697,5.0053
1236,505.696,5.004
1248,507.694,5.0053
1260,509.693,5.0025
1272,511.692,5.0028
1284,513.695,5.0022
1296,515.69,4.9995
1308,517.69,4.9998
1320,519.69,4.9998
1332,521.696,4.9985
1344,523.695,4.9981
1356,525.694,4.9958
1368,527.696,4.9948
1380,529.694,4.9932
1392,531.696,4.9912
1404,533.692,4.9895
1416,535.693,4.9872
1428,537.689,4.9858
1440,539.687,4.9818
1452,541.684,4.9778
1464,543.677,4.9768
1476,545.673,4.9721
1488,547.664,4.9676
1500,549.672,4.9623
1512,551.673,4.9568
1524,553.674,4.9514
1536,555.675,4.9458
1548,557.669,4.939
1560,559.664,4.9325
1572,561.662,4.924
1584,563.657,4.9151
1596,565.651,4.9046
1608,567.649,4.8954
1620,569.642,4.8823
1632,571.639,4.8734
1644,573.634,4.8605
1656,575.632,4.8497
1668,577.626,4.837
1680,579.619,4.8258
1692,581.617,4.8106
1704,583.616,4.7969
1716,585.617,4.7808
1728,587.609,4.7649
1740,589.605,4.7488
1752,591.602,4.7306
1764,593.595,4.7099
1776,595.588,4.6885
1788,597.587,4.6629
1800,599.587,4.636
1812,601.589,4.6066
1824,603.587,4.5745
1836,605.584,4.5368
1848,607.585,4.4918
1860,609.588,4.4456
1872,611.59,4.3907
1884,613.588,4.3329
1896,615.584,4.2671
1908,617.583,4.1972
1920,619.583,4.1153
1932,621.581,4.023
1944,623.592,3.9246
1956,625.594,3.8155
1968,627.594,3.6963
1980,629.592,3.5691
1992,631.583,3.4291
2004,633.572,3.2818
2016,635.557,3.1251
2028,637.533,2.9645
2040,639.51,2.8019
2052,641.487,2.6406
2064,643.468,2.4844
2076,645.495,2.3203
2088,647.494,2.1464
2100,649.489,1.9773
2112,651.481,1.8066
2124,653.476,1.6439
2136,655.473,1.4846
2148,657.472,1.3367
2160,659.473,1.1982
2172,661.468,1.0687
2184,663.46,0.952
2196,665.458,0.849
2208,667.461,0.7595
2220,669.461,0.6798
2232,671.479,0.6091
2244,673.496,0.5481
2256,675.505,0.4936
2268,677.515,0.4473
2280,679.52,0.4083
2292,681.519,0.3768
2304,683.517,0.3497
2316,685.507,0.331
2328,687.5,0.3137
2340,689.494,0.2994
2352,691.485,0.2879
2364,693.479,0.2765
2376,695.473,0.2683
2388,697.468,0.2619
2400,699.457,0.2591
2412,701.451,0.2551
2424,703.446,0.2508
2436,705.437,0.2481
2448,707.43,0.2446
2460,709.422,0.2441
2472,711.42,0.2447
2484,713.413,0.2427
2496,715.405,0.2444
2508,717.397,0.2447
2520,719.389,0.2457
2532,721.38,0.2451
2544,723.375,0.2464
2556,725.372,0.2471
2568,727.371,0.2457
2580,729.369,0.2457
2592,731.364,0.2471
2604,733.365,0.2471
2616,735.371,0.2471
2628,737.39,0.2474
2640,739.403,0.2471
2652,741.415,0.2498
2664,743.422,0.2498
2676,745.424,0.2498
2688,747.424,0.2514
2700,749.421,0.2508
2712,751.415,0.2498
2724,753.411,0.2524
2736,755.408,0.2511
2748,757.405,0.2534
2760,759.399,0.2521
2772,761.39,0.2561
2784,763.38,0.2555
2796,765.367,0.2568
2808,767.365,0.2568
2820,769.363,0.2578
2832,771.365,0.2575
2844,773.368,0.2578
2856,775.372,0.2588
2868,777.381,0.2588
2880,779.387,0.2602
2892,781.395,0.2612
2904,783.421,0.2632
2916,785.442,0.2608
2928,787.457,0.2618
2940,789.467,0.2632
2952,791.477,0.2632
2964,793.482,0.2632
2976,795.485,0.2615
2988,797.486,0.2642
3000,799.485,0.2645
3012,801.479,0.2641
3024,803.468,0.2641
3036,805.46,0.2681
3048,807.456,0.2667
3060,809.447,0.2681
3072,811.439,0.2681
3084,813.431,0.267
3096,815.426,0.2707
3108,817.428,0.2697
3120,819.438,0.2693
3132,821.443,0.2713
3135,821.949,0.2707