Folder: matl-db/PMMA/Calibration_Data/TIFP (part 2)

File: TIFP_Cone_65kW_1.csv
Time,Mass,HRR,Back Surface Temperature 1,Back Surface Temperature 2
[s],[g],[kW/m2],[K],[K]
0,69.9,0.595238,299.25,299.55
2,69.9043,-0.0714286,299.25,299.25
4,69.7088,-0.345238,299.25,299.25
6,69.6822,0.857143,299.25,299.15
8,69.6274,1.5119,299.25,299.05
10,69.4814,0.416667,299.15,298.85
12,69.5695,-6,299.15,298.75
14,69.7398,14.0238,299.25,298.85
16,69.6233,128.702,299.45,298.95
18,69.6762,301.5,301.05,299.55
20,69.4209,420.262,301.65,300.95
22,69.1857,506.845,303.25,302.25
24,68.7574,534.905,304.15,303.05
26,68.3792,564.417,306.35,304.85
28,67.8204,623.798,307.65,305.85
30,67.3954,700.226,310.45,308.15
32,67.0076,713.417,311.95,309.45
34,66.0807,725.917,315.15,312.05
36,65.5318,695.119,316.95,313.45
38,65.0119,696.607,320.55,316.65
40,64.4353,712.464,324.55,318.35
42,63.9218,710.238,326.45,321.75
44,63.367,769.333,330.65,323.55
46,62.8231,746.381,332.65,327.35
48,62.3639,731.012,336.95,329.45
50,61.8187,765.798,339.25,333.25
52,61.3142,767.583,343.55,337.55
54,60.7156,731.571,345.85,339.55
56,60.216,743.655,350.15,343.65
58,59.6492,762.155,352.65,345.85
60,59.1651,780.976,357.15,350.25
62,58.5876,779.464,353.65,358.85
64,58.0542,747.333,362.15,359.05
66,57.5176,738.464,366.25,360.25
68,56.9629,746,369.95,363.05
70,56.4303,757.131,381.75,365.35
72,55.8604,783.167,396.05,369.45
74,55.3297,775.702,402.75,371.85
76,54.8198,769.857,402.75,375.95
78,54.2492,809.655,408.45,377.95
80,53.7089,775.607,408.45,382.05
82,53.1137,830.762,404.75,384.25
84,52.5066,815.155,396.55,388.25
86,51.8309,807.286,401.25,392.15
88,51.2027,799.476,403.45,393.95
90,50.5969,810.631,407.55,395.75
92,50.0552,794.19,409.45,399.95
94,49.4577,842.631,413.55,402.35
96,48.914,822.524,415.55,406.65
98,48.3294,837.643,419.45,410.95
100,47.7535,804.393,421.55,412.95
102,47.1215,806.952,425.85,417.25
104,46.5856,815.083,427.95,419.25
106,46.0134,836.964,432.05,423.65
108,45.4189,856.786,434.65,425.75
110,44.8132,874.595,439.45,430.15
112,44.2044,803.774,442.05,432.75
114,43.5822,847.81,451.25,437.55
116,42.954,852.595,453.75,439.85
118,42.3405,844.381,459.45,445.05
120,41.7286,877.976,462.25,447.35
122,41.082,926.238,468.35,452.75
124,40.467,885.643,471.45,455.05
126,39.8372,871.262,477.25,460.35
128,39.1935,947.536,483.55,463.75
130,38.5393,866.94,486.45,469.75
132,37.859,940.726,493.05,472.75
134,37.2015,972.298,496.25,479.15
136,36.5303,942.821,503.15,485.15
138,35.8657,905.393,506.85,487.85
140,35.7078,972.714,513.65,494.25
142,35.0474,1001.87,517.65,497.85
144,34.2842,1012.17,525.55,504.95
146,33.4711,1036.19,529.35,508.25
148,32.6329,1059.69,537.65,515.45
150,31.9336,1055.76,541.55,518.95
152,31.1665,1060.48,550.15,525.45
154,30.4421,1061.67,554.55,529.05
156,29.6066,1092.42,563.85,536.15
158,28.8394,1078.9,573.55,539.85
160,28.022,1050.75,577.55,546.65
162,27.1963,1137.07,,
164,26.4524,1107.48,,
166,25.5618,1102.54,,
168,24.679,1147.33,,
170,23.8624,1128.5,,
172,23.0084,1139.43,,
174,22.2341,1167.18,,
176,21.3913,1141.75,,
178,20.6605,1139.38,,
180,19.8445,1276.06,,
182,18.9641,1192.29,,
184,18.0792,1051.58,,
186,17.2186,1099.5,,
188,16.3973,1120.98,,
190,15.6119,1070.06,,
192,14.7462,945.56,,
194,13.769,906.524,,
196,13.0843,871.107,,
198,12.5106,763.06,,
200,12.0157,722.762,,
202,11.5402,625.548,,
204,11.1074,577.762,,
206,10.7972,512.952,,
208,10.3573,473.5,,
210,10.0411,449.893,,
212,9.7507,400.202,,
214,9.4228,376.179,,
216,9.1182,354.321,,
218,8.9392,330.429,,
220,8.7474,317.476,,
222,8.4464,312.381,,
224,8.321,290.857,,
226,8.1428,279.512,,
228,7.9057,265.381,,
230,7.711,264.702,,
232,7.5583,260.476,,
234,7.3369,252.738,,
236,7.2067,255.31,,
238,7.0773,247.94,,
240,6.8828,238.369,,
242,6.6667,235.595,,
244,6.516,227.048,,
246,6.4234,218.929,,
248,6.2454,214.333,,
250,6.0881,204.381,,
252,5.8845,203.429,,
254,5.7672,194.893,,
256,5.612,190.405,,
258,5.5334,191.798,,
260,5.3514,184.369,,
262,5.1673,182.488,,
264,5.0773,186.774,,
266,4.9404,184.012,,
268,4.83,184.274,,
270,4.6752,185,,
272,4.6132,187.5,,
274,4.6172,187.833,,
276,4.5011,181,,
278,4.3462,182.869,,
280,4.1438,181.381,,
282,4.1045,176.893,,
284,3.9077,186.024,,
286,3.8736,176.429,,
288,3.7337,176.964,,
290,3.6134,172.131,,
292,3.4528,170.464,,
294,3.2869,168.738,,
296,3.2294,169.976,,
298,3.0381,165.821,,
300,2.9018,164.833,,
302,2.8707,162.94,,
304,2.7684,164,,
306,2.5872,161.952,,
308,2.4937,161.583,,
310,2.418,163.798,,
312,2.2924,160.452,,
314,2.2075,157.286,,
316,2.0839,157,,
318,1.9092,152.238,,
320,1.8423,151.036,,
322,1.8291,147.952,,
324,1.6475,146.321,,
326,1.5302,138.643,,
328,1.4407,142.107,,
330,1.3847,138.917,,
332,1.2632,137.929,,
334,1.1734,132.738,,
336,1.0003,130.583,,
338,0.9115,127.452,,
340,0.8863,122.464,,
342,1.0942,122.31,,
344,1.1788,121.298,,
346,1.1831,121.548,,
348,1.285,117.94,,
350,2.2986,118.393,,
352,2.2001,113.131,,
354,2.0357,109.333,,
356,2.0657,107.929,,
358,1.9444,101.214,,
360,1.8433,97.7381,,
362,1.874,95.9643,,
364,1.7374,94.9048,,
366,1.5753,87.25,,
368,1.5319,89.3214,,
370,1.4478,86.5476,,
372,1.5705,82.4048,,
374,1.3569,80.2143,,
376,1.3443,79.0595,,
378,1.3578,75.4048,,
380,1.1959,73.0714,,
382,1.2978,69.369,,
384,1.1334,69.1071,,
386,0.96,63.7738,,
388,0.953,62.4643,,
390,1.0054,61.2381,,
392,0.9769,57.0714,,
394,0.3301,52.5714,,
396,-0.7718,48.369,,
398,-0.7874,42.9643,,
400,-0.7251,38.0357,,
402,-0.7823,34.7857,,
404,-0.8576,30.8571,,
406,-0.9378,29.2976,,
408,-0.8718,29.25,,
410,-0.891,27.4762,,
412,-0.8799,26.9524,,
414,-0.9135,25.7143,,
416,-0.9396,24.2976,,
418,-0.8928,24.8214,,
420,-0.9642,24.4643,,
422,-0.9304,24.2143,,
424,-0.9574,24.0238,,
426,-1.0657,22.5357,,
428,-1.0164,21.0476,,
430,-1.033,20.2024,,
432,-1.069,18.9048,,
434,-1.045,16.4762,,
436,-1.038,15.3571,,
438,-1.1054,13.0238,,
440,-1.0644,11.0357,,
442,-1.0748,10.1905,,
444,-1.0757,8.69048,,
446,-1.0852,7.52381,,
448,-1.1625,7.28571,,
450,-1.0876,5.78571,,
452,-1.0905,4.2619,,
454,-1.1549,4.5,,
456,-1.1667,3.70238,,
458,-1.0321,3.09524,,
460,-1.098,2.54762,,
462,-1.0944,0.761905,,
464,-1.1867,-1.57143,,
466,-1.1606,-3.22619,,
468,-1.1202,-4.40476,,
470,-1.0117,-4.40476,,
472,-1.0475,-4.04762,,
474,-1.1291,-5.2381,,
476,-1.1307,-5.46429,,
478,-1.1773,-5.30952,,
480,-1.1025,-4.59524,,
482,-1.071,-4.34524,,
484,-1.1649,-3.44048,,
486,-1.0823,-3.5119,,
488,-1.1343,-3.92857,,
490,-1.1942,-4.13095,,
492,-1.1966,-4.46429,,
494,-1.0859,-4.04762,,
496,-1.1754,-4.15476,,
498,-1.1225,-4.28571,,
500,-1.1473,-4.55952,,

File: TIFP_DSC_N2_10K_2.csv
Time,Temperature,Heat Flow
[s],[K],[mW/mg]
0,300.631,6.16E-03
22.8,300.59,4.33E-03
45.6,300.535,2.80E-03
68.4,300.46,2.33E-03
91.2,300.376,1.77E-03
114,300.29,2.11E-03
136.8,300.198,2.62E-03
159.6,300.11,2.91E-03
182.4,300.045,3.80E-03
205.2,300.002,5.73E-03
228,299.981,7.64E-03
250.8,299.992,8.69E-03
273.6,300.007,9.80E-03
296.4,300.032,1.01E-02
309,300.044,1.00E-02
320.4,300.1,1.07E-02
331.8,300.27,1.33E-02
343.2,300.636,1.88E-02
354.6,301.261,2.90E-02
366,302.201,4.34E-02
377.4,303.5,6.23E-02
388.8,305.148,8.48E-02
400.2,307.13,0.10856
411.6,309.409,0.13149
423,311.924,0.15167
434.4,314.604,0.16739
445.8,317.391,0.17801
457.2,320.225,0.18343
468.6,323.06,0.18442
480,325.843,0.18224
491.4,328.55,0.17739
502.8,331.168,0.17151
514.2,333.679,0.16447
525.6,336.085,0.15796
537,338.391,0.15171
548.4,340.612,0.14694
559.8,342.751,0.14292
571.2,344.823,0.14053
582.6,346.842,0.13896
594,348.813,0.13853
605.4,350.756,0.13924
616.8,352.681,0.14058
628.2,354.59,0.1411
639.6,356.489,0.14036
651,358.379,0.13879
662.4,360.272,0.13657
673.8,362.159,0.13463
685.2,364.046,0.13291
696.6,365.93,0.13177
708,367.812,0.13124
719.4,369.695,0.13105
730.8,371.58,0.13151
742.2,373.46,0.13177
753.6,375.339,0.13257
765,377.221,0.13367
776.4,379.1,0.13468
787.8,380.983,0.13623
799.2,382.865,0.13751
810.6,384.751,0.14052
822,386.643,0.14359
833.4,388.533,0.1458
844.8,390.432,0.1455
856.2,392.335,0.14573
867.6,394.24,0.14644
879,396.146,0.14603
890.4,398.057,0.1439
901.8,399.963,0.14064
913.2,401.881,0.13587
924.6,403.799,0.13238
936,405.716,0.12965
947.4,407.637,0.12879
958.8,409.552,0.12596
970.2,411.467,0.12718
981.6,413.378,0.1296
993,415.292,0.13203
1004.4,417.207,0.13576
1015.8,419.113,0.13796
1027.2,421.02,0.13892
1038.6,422.929,0.13959
1050,424.835,0.14067
1061.4,426.74,0.14651
1072.8,428.648,0.15016
1084.2,430.548,0.15285
1095.6,432.452,0.15549
1107,434.351,0.15813
1118.4,436.255,0.16073
1129.8,438.154,0.16212
1141.2,440.051,0.16413
1152.6,441.949,0.16671
1164,443.848,0.16939
1175.4,445.743,0.17227
1186.8,447.637,0.18218
1198.2,449.532,0.18795
1209.6,451.43,0.19384
1221,453.32,0.20156
1232.4,455.218,0.20663
1243.8,457.112,0.21165
1255.2,459.003,0.21765
1266.6,460.9,0.22365
1278,462.793,0.22969
1289.4,464.687,0.23604
1300.8,466.584,0.24175
1312.2,468.477,0.24917
1323.6,470.374,0.25663
1335,472.274,0.26464
1346.4,474.175,0.27431
1357.8,476.076,0.28367
1369.2,477.981,0.2933
1380.6,479.883,0.30233
1392,481.784,0.31141
1403.4,483.69,0.32192
1414.8,485.597,0.33212
1426.2,487.501,0.34099
1437.6,489.399,0.35176
1449,491.295,0.36149
1460.4,493.193,0.36964
1471.8,495.086,0.37749
1483.2,496.979,0.38586
1494.6,498.876,0.39529
1506,500.765,0.40514
1517.4,502.662,0.41603
1528.8,504.552,0.42444
1540.2,506.446,0.43212
1551.6,508.342,0.44168
1563,510.233,0.45135
1574.4,512.13,0.46314
1585.8,514.031,0.47447
1597.2,515.929,0.48564
1608.6,517.827,0.49651
1620,519.728,0.50798
1631.4,521.628,0.52035
1642.8,523.531,0.53258
1654.2,525.433,0.54497
1665.6,527.333,0.55807
1677,529.23,0.57015
1688.4,531.13,0.58444
1699.8,533.028,0.59867
1711.2,534.923,0.61457
1722.6,536.818,0.63105
1734,538.72,0.64896
1745.4,540.615,0.66909
1756.8,542.515,0.6896
1768.2,544.412,0.71347
1779.6,546.308,0.73953
1791,548.206,0.76851
1802.4,550.105,0.80141
1813.8,552.005,0.83994
1825.2,553.907,0.88254
1836.6,555.809,0.93128
1848,557.712,0.9846
1859.4,559.617,1.04336
1870.8,561.52,1.10616
1882.2,563.423,1.17615
1893.6,565.326,1.25673
1905,567.229,1.35501
1916.4,569.13,1.46469
1927.8,571.033,1.58017
1939.2,572.933,1.69994
1950.6,574.835,1.8142
1962,576.735,1.93075
1973.4,578.635,2.04788
1984.8,580.532,2.1686
1996.2,582.431,2.28918
2007.6,584.332,2.40278
2019,586.234,2.50683
2030.4,588.135,2.60161
2041.8,590.042,2.68281
2053.2,591.945,2.75325
2064.6,593.857,2.80993
2076,595.776,2.85707
2087.4,597.707,2.88662
2098.8,599.651,2.92163
2110.2,601.601,2.94218
2121.6,603.555,2.95474
2133,605.518,2.95288
2144.4,607.477,2.94362
2155.8,609.43,2.93031
2167.2,611.38,2.96066
2178.6,613.319,2.94056
2190,615.242,2.94271
2201.4,617.155,2.95523
2212.8,619.06,3.00607
2224.2,620.954,3.04116
2235.6,622.842,3.03644
2247,624.735,3.08406
2258.4,626.625,3.12647
2269.8,628.506,3.04545
2281.2,630.397,3.15053
2292.6,632.285,3.1294
2304,634.169,3.11507
2315.4,636.055,3.11043
2326.8,637.938,3.05133
2338.2,639.814,2.92654
2349.6,641.709,2.96593
2361,643.592,2.97812
2372.4,645.468,2.90393
2383.8,647.32,2.82247
2395.2,649.175,2.71281
2406.6,651.003,2.5384
2418,652.789,2.31237
2429.4,654.572,2.174
2440.8,656.354,2.11067
2452.2,658.133,2.11354
2463.6,659.919,2.09846
2475,661.684,2.05672
2486.4,663.443,1.96987
2497.8,665.209,1.88916
2509.2,666.987,1.8097
2520.6,668.788,1.73851
2532,670.62,1.67552
2543.4,672.48,1.61961
2554.8,674.372,1.57019
2566.2,676.295,1.52531
2577.6,678.251,1.48651
2589,680.224,1.44917
2600.4,682.215,1.41253
2611.8,684.222,1.3805
2623.2,686.228,1.34851
2634.6,688.241,1.31592
2646,690.249,1.27967
2657.4,692.25,1.23231
2668.8,694.237,1.17562
2680.2,696.21,1.11535
2691.6,698.168,1.06007
2703,700.11,1.03034
2714.4,702.039,1.02521
2725.8,703.949,1.03104
2737.2,705.859,1.04007
2748.6,707.747,1.04877
2760,709.633,1.05719
2771.4,711.508,1.06455
2782.8,713.386,1.07134
2794.2,715.261,1.0764
2805.6,717.148,1.0808
2817,719.049,1.08573
2828.4,720.958,1.09115
2839.8,722.881,1.09396
2851.2,724.81,1.09678
2862.6,726.732,1.0982
2874,728.655,1.0991
2885.4,730.568,1.09824
2896.8,732.476,1.09285
2908.2,734.374,1.08576
2919.6,736.277,1.20891
2931,738.164,1.17573
2942.4,740.056,1.15057
2953.8,741.942,1.12498
2965.2,743.828,1.09512
2976.6,745.713,1.06109
2988,747.597,1.01955
2999.4,749.481,0.97233
3010.8,751.37,0.91933
3022.2,753.26,0.85946
3033.6,755.153,0.79603
3045,757.047,0.73374
3056.4,758.944,0.67534
3067.8,760.844,0.62429
3079.2,762.753,0.5808
3090.6,764.662,0.54626
3102,766.57,0.51968
3113.4,768.475,0.49878
3124.8,770.388,0.48368
3136.2,772.297,0.47161
3147.6,774.205,0.46245
3159,776.107,0.4561
3170.4,778.007,0.45117
3181.8,779.913,0.44754
3193.2,781.819,0.4458
3204.6,783.724,0.44505
3216,785.627,0.44436
3227.4,787.531,0.44374
3238.8,789.436,0.44398
3250.2,791.337,0.44428
3261.6,793.236,0.44489
3273,795.138,0.44491
3284.4,797.04,0.44526
3295.8,798.94,0.44644
3307.2,800.858,0.44784
3318.6,802.763,0.44921
3330,804.668,0.4514
3341.4,806.574,0.45214
3352.8,808.475,0.4536
3364.2,810.37,0.45421
3375.6,812.27,0.45558
3387,814.165,0.45681
3398.4,816.061,0.4585
3409.8,817.95,0.4594
3421.2,819.838,0.46001
3432.6,821.727,0.45904
3436.8,822.421,0.45858

File: TIFP_DSC_N2_10K_4.csv
Time,Temperature,Heat Flow
[s],[K],[mW/mg]
0,300.339,0.00238
12,300.323,0.00247
24,300.365,0.00495
36,300.562,0.0124
48,301.006,0.0245
60,301.77,0.0378
72,302.903,0.0459
84,304.434,0.0493
96,306.356,0.0564
108,308.631,0.0688
120,311.195,0.0858
132,313.966,0.10521
144,316.884,0.12483
156,319.859,0.14218
168,322.838,0.15742
180,325.774,0.16915
192,328.624,0.17803
204,331.371,0.18431
216,334.001,0.18989
228,336.514,0.19454
240,338.921,0.19933
252,341.232,0.20409
264,343.462,0.21007
276,345.62,0.21686
288,347.728,0.22475
300,349.794,0.23291
312,351.832,0.24236
324,353.85,0.25102
336,355.856,0.25899
348,357.851,0.26507
360,359.846,0.26896
372,361.834,0.27233
384,363.827,0.27563
396,365.812,0.28039
408,367.795,0.28582
420,369.778,0.29142
432,371.756,0.29771
444,373.737,0.30432
456,375.712,0.31137
468,377.693,0.31859
480,379.67,0.32639
492,381.65,0.33453
504,383.635,0.34245
516,385.626,0.35334
528,387.615,0.36297
540,389.612,0.37082
552,391.613,0.37822
564,393.618,0.38667
576,395.631,0.39466
588,397.639,0.40158
600,399.656,0.40743
612,401.674,0.41153
624,403.692,0.41582
636,405.715,0.4196
648,407.738,0.42322
660,409.764,0.42406
672,411.784,0.42789
684,413.809,0.43286
696,415.829,0.43817
708,417.848,0.44376
720,419.87,0.44835
732,421.883,0.4516
744,423.893,0.45464
756,425.906,0.45821
768,427.912,0.46893
780,429.916,0.47459
792,431.923,0.48002
804,433.92,0.4852
816,435.92,0.49088
828,437.914,0.49594
840,439.91,0.50087
852,441.904,0.50676
864,443.892,0.51292
876,445.886,0.51959
888,447.876,0.53363
900,449.866,0.54192
912,451.86,0.54953
924,453.85,0.5564
936,455.842,0.56126
948,457.831,0.56519
960,459.824,0.56719
972,461.811,0.56754
984,463.805,0.56731
996,465.797,0.56739
1008,467.789,0.56715
1020,469.786,0.568
1032,471.779,0.56997
1044,473.776,0.57416
1056,475.775,0.58021
1068,477.769,0.58748
1080,479.766,0.59432
1092,481.76,0.59932
1104,483.753,0.60383
1116,485.748,0.60627
1128,487.737,0.60616
1140,489.731,0.6081
1152,491.727,0.60934
1164,493.722,0.61038
1176,495.714,0.61217
1188,497.713,0.61642
1200,499.704,0.62323
1212,501.703,0.63133
1224,503.697,0.64034
1236,505.696,0.64905
1248,507.694,0.65968
1260,509.693,0.67066
1272,511.692,0.68243
1284,513.695,0.69519
1296,515.69,0.70882
1308,517.69,0.72505
1320,519.69,0.74454
1332,521.696,0.76452
1344,523.695,0.78389
1356,525.694,0.80296
1368,527.696,0.82103
1380,529.694,0.84182
1392,531.696,0.8636
1404,533.692,0.88509
1416,535.693,0.90678
1428,537.689,0.92907
1440,539.687,0.95305
1452,541.684,0.9788
1464,543.677,1.00381
1476,545.673,1.02981
1488,547.664,1.05513
1500,549.672,1.08892
1512,551.673,1.12611
1524,553.674,1.16148
1536,555.675,1.19491
1548,557.669,1.22575
1560,559.664,1.25429
1572,561.662,1.28345
1584,563.657,1.31284
1596,565.651,1.34618
1608,567.649,1.39349
1620,569.642,1.44408
1632,571.639,1.49298
1644,573.634,1.54056
1656,575.632,1.58846
1668,577.626,1.63588
1680,579.619,1.68227
1692,581.617,1.72878
1704,583.616,1.77849
1716,585.617,1.82884
1728,587.609,1.88399
1740,589.605,1.94336
1752,591.602,2.0085
1764,593.595,2.07879
1776,595.588,2.15463
1788,597.587,2.23693
1800,599.587,2.32576
1812,601.589,2.42066
1824,603.587,2.52388
1836,605.584,2.63535
1848,607.585,2.75812
1860,609.588,2.88871
1872,611.59,3.03291
1884,613.588,3.18743
1896,615.584,3.35446
1908,617.583,3.53629
1920,619.583,3.73425
1932,621.581,3.94705
1944,623.592,4.18132
1956,625.594,4.42937
1968,627.594,4.68643
1980,629.592,4.9444
1992,631.583,5.19606
2004,633.572,5.41673
2016,635.557,5.55957
2028,637.533,5.58775
2040,639.51,5.51621
2052,641.487,5.34969
2064,643.468,4.99843
2076,645.495,5.62033
2088,647.494,5.79034
2100,649.489,5.88117
2112,651.481,5.87117
2124,653.476,5.85311
2136,655.473,5.76708
2148,657.472,5.60315
2160,659.473,5.49337
2172,661.468,5.30672
2184,663.46,5.02576
2196,665.458,4.74645
2208,667.461,4.41388
2220,669.461,4.18172
2232,671.479,3.95174
2244,673.496,3.74936
2256,675.505,3.56539
2268,677.515,3.40623
2280,679.52,3.26559
2292,681.519,3.14604
2304,683.517,3.04821
2316,685.507,2.97041
2328,687.5,2.90983
2340,689.494,2.86536
2352,691.485,2.83258
2364,693.479,2.80772
2376,695.473,2.79149
2388,697.468,2.78314
2400,699.457,2.77674
2412,701.451,2.77428
2424,703.446,2.77208
2436,705.437,2.76969
2448,707.43,2.77251
2460,709.422,2.78037
2472,711.42,2.79749
2484,713.413,2.80709
2496,715.405,2.83031
2508,717.397,2.8645
2520,719.389,2.90192
2532,721.38,2.93986
2544,723.375,2.97762
2556,725.372,3.0188
2568,727.371,3.06017
2580,729.369,3.1031
2592,731.364,3.14533
2604,733.365,3.18788
2616,735.371,3.23114
2628,737.39,3.27419
2640,739.403,3.31944
2652,741.415,3.36594
2664,743.422,3.41257
2676,745.424,3.45945
2688,747.424,3.50686
2700,749.421,3.554
2712,751.415,3.60208
2724,753.411,3.64874
2736,755.408,3.69492
2748,757.405,3.74308
2760,759.399,3.7927
2772,761.39,3.84192
2784,763.38,3.89113
2796,765.367,3.93907
2808,767.365,3.98741
2820,769.363,4.0356
2832,771.365,4.08654
2844,773.368,4.13542
2856,775.372,4.18452
2868,777.381,4.23498
2880,779.387,4.28492
2892,781.395,4.32035
2904,783.421,4.37212
2916,785.442,4.42426
2928,787.457,4.47576
2940,789.467,4.52816
2952,791.477,4.57929
2964,793.482,4.62806
2976,795.485,4.67676
2988,797.486,4.72481
3000,799.485,4.77501
3012,801.479,4.824
3024,803.468,4.87306
3036,805.46,4.92095
3048,807.456,4.96644
3060,809.447,5.01153
3072,811.439,5.05658
3084,813.431,5.10172
3096,815.426,5.1449
3108,817.428,5.18495
3120,819.438,5.22644
3132,821.443,5.2637
3135,821.949,5.27292

File: TIFP_DSC_N2_10K_5.csv
Time,Temperature,Heat Flow
[s],[K],[mW/mg]
0,300.513,-0.00141
12,300.492,-0.00174
24,300.528,0.000675
36,300.705,0.0101
48,301.122,0.0273
60,301.852,0.0505
72,302.945,0.0735
84,304.427,0.0946
96,306.305,0.1208
108,308.534,0.15105
120,311.062,0.18502
132,313.818,0.21862
144,316.714,0.24917
156,319.692,0.27413
168,322.682,0.29273
180,325.632,0.30479
192,328.503,0.31106
204,331.271,0.31207
216,333.929,0.31087
228,336.469,0.30725
240,338.895,0.3031
252,341.22,0.2994
264,343.457,0.29691
276,345.628,0.29574
288,347.737,0.29604
300,349.805,0.29776
312,351.84,0.30171
324,353.856,0.30564
336,355.861,0.31019
348,357.855,0.31338
360,359.849,0.31475
372,361.834,0.31588
384,363.822,0.3169
396,365.81,0.31941
408,367.795,0.32351
420,369.778,0.3274
432,371.762,0.33227
444,373.745,0.33705
456,375.724,0.34292
468,377.704,0.34794
480,379.685,0.35374
492,381.665,0.36006
504,383.644,0.36635
516,385.627,0.37511
528,387.615,0.38312
540,389.605,0.38977
552,391.605,0.39623
564,393.609,0.40355
576,395.618,0.41108
588,397.636,0.41763
600,399.66,0.4225
612,401.68,0.42653
624,403.71,0.43035
636,405.741,0.43351
648,407.768,0.43618
660,409.799,0.43564
672,411.825,0.43838
684,413.852,0.44226
696,415.878,0.44622
708,417.898,0.45099
720,419.919,0.4553
732,421.936,0.45846
744,423.949,0.46142
756,425.962,0.4649
768,427.966,0.47533
780,429.969,0.48164
792,431.974,0.48804
804,433.977,0.49439
816,435.975,0.50232
828,437.978,0.51002
840,439.979,0.51738
852,441.977,0.52627
864,443.975,0.53538
876,445.973,0.54528
888,447.97,0.56177
900,449.966,0.57311
912,451.963,0.58391
924,453.951,0.59297
936,455.948,0.60058
948,457.943,0.60742
960,459.935,0.61255
972,461.928,0.6158
984,463.921,0.61853
996,465.918,0.62202
1008,467.912,0.62484
1020,469.911,0.62952
1032,471.908,0.63539
1044,473.903,0.64345
1056,475.901,0.65295
1068,477.899,0.66438
1080,479.896,0.67596
1092,481.896,0.6861
1104,483.894,0.69419
1116,485.891,0.70052
1128,487.89,0.70456
1140,489.885,0.71047
1152,491.883,0.71543
1164,493.879,0.71994
1176,495.878,0.72637
1188,497.876,0.7344
1200,499.877,0.74484
1212,501.877,0.7564
1224,503.88,0.76914
1236,505.883,0.78279
1248,507.884,0.79747
1260,509.883,0.81292
1272,511.891,0.83083
1284,513.888,0.84773
1296,515.886,0.86438
1308,517.883,0.88261
1320,519.883,0.90186
1332,521.879,0.9212
1344,523.881,0.94291
1356,525.882,0.96487
1368,527.878,0.98411
1380,529.877,1.00616
1392,531.879,1.02988
1404,533.881,1.05471
1416,535.886,1.08037
1428,537.885,1.10464
1440,539.885,1.13015
1452,541.888,1.15667
1464,543.892,1.18203
1476,545.885,1.20569
1488,547.883,1.23005
1500,549.877,1.25524
1512,551.875,1.28066
1524,553.872,1.30622
1536,555.871,1.33286
1548,557.871,1.35956
1560,559.87,1.38421
1572,561.87,1.41022
1584,563.868,1.43582
1596,565.872,1.46592
1608,567.872,1.5084
1620,569.873,1.55333
1632,571.875,1.59659
1644,573.876,1.63848
1656,575.877,1.68015
1668,577.88,1.72095
1680,579.876,1.76053
1692,581.878,1.80002
1704,583.873,1.83998
1716,585.871,1.88194
1728,587.867,1.92723
1740,589.863,1.97658
1752,591.861,2.03127
1764,593.859,2.0907
1776,595.862,2.15574
1788,597.86,2.22449
1800,599.859,2.29887
1812,601.855,2.37904
1824,603.853,2.46607
1836,605.847,2.55969
1848,607.845,2.66307
1860,609.84,2.77368
1872,611.835,2.89559
1884,613.833,3.02863
1896,615.831,3.17263
1908,617.83,3.33081
1920,619.832,3.50358
1932,621.834,3.68914
1944,623.835,3.88641
1956,625.83,4.09605
1968,627.825,4.31145
1980,629.822,4.52035
1992,631.815,4.69818
2004,633.804,4.81574
2016,635.792,4.85448
2028,637.78,4.78464
2040,639.769,4.64768
2052,641.765,4.48729
2064,643.772,4.58251
2076,645.787,4.75112
2088,647.795,4.8734
2100,649.794,4.94171
2112,651.788,4.7587
2124,653.799,4.91273
2136,655.805,4.88981
2148,657.807,4.73581
2160,659.824,4.68182
2172,661.848,4.55399
2184,663.883,4.34668
2196,665.923,4.10648
2208,667.979,3.81913
2220,670.047,3.60695
2232,672.122,3.4107
2244,674.203,3.23448
2256,676.274,3.06365
2268,678.348,2.91527
2280,680.414,2.78583
2292,682.473,2.67347
2304,684.521,2.57686
2316,686.557,2.49551
2328,688.587,2.42838
2340,690.609,2.37357
2352,692.625,2.32869
2364,694.641,2.29131
2376,696.651,2.26285
2388,698.663,2.24145
2400,700.67,2.21977
2412,702.677,2.19772
2424,704.683,2.17467
2436,706.686,2.15399
2448,708.69,2.13949
2460,710.694,2.13349
2472,712.702,2.1323
2484,714.703,2.12228
2496,716.701,2.12241
2508,718.695,2.12835
2520,720.686,2.13494
2532,722.672,2.14319
2544,724.657,2.15093
2556,726.634,2.16064
2568,728.609,2.16968
2580,730.574,2.1783
2592,732.541,2.18529
2604,734.502,2.19089
2616,736.459,2.19424
2628,738.418,2.19597
2640,740.375,2.1964
2652,742.332,2.19616
2664,744.293,2.19421
2676,746.252,2.19203
2688,748.216,2.18797
2700,750.188,2.1828
2712,752.158,2.1776
2724,754.136,2.1724
2736,756.117,2.16555
2748,758.102,2.16087
2760,760.089,2.15735
2772,762.072,2.15366
2784,764.057,2.15091
2796,766.041,2.14752
2808,768.028,2.14483
2820,770.015,2.14234
2832,772.007,2.14065
2844,773.999,2.13871
2856,775.99,2.13641
2868,777.983,2.13423
2880,779.977,2.13165
2892,781.971,2.13048
2904,783.967,2.12995
2916,785.965,2.12867
2928,787.964,2.12683
2940,789.964,2.12512
2952,791.963,2.12402
2964,793.962,2.12309
2976,795.959,2.12177
2988,797.96,2.12067
3000,799.957,2.12043
3012,801.956,2.11936
3024,803.956,2.11871
3036,805.957,2.11836
3048,807.95,2.11803
3060,809.948,2.11709
3072,811.947,2.11645
3084,813.942,2.11611
3096,815.939,2.11536
3108,817.935,2.11392
3120,819.931,2.11368
3132,821.927,2.11125
3135,822.424,2.11016