Folder: matl-db/PMMA/Calibration_Data/TIFP

Note: PMMA/Calibration_Data/TIFP/README.md
# Technical Institute of Fire Protection in Prague (TIFP)

### Experimental Conditions: TGA, DSC
TGA and DSC were performed simultaneously using an STA appartus.
STA experiments performed both in nitrogen and in air. Although tests were conducted simultaneously, TGA and DSC measurement data presented here are separated into two files, for consistency with other datasets.
Note: DSC heat flow data was rescaled (multiplied by -1)such that endothermic heat flow events are positive (endo up)

##### STA Tests in Nitrogen
* Heating Rate: 10 K/min
* Temperature program
  - Initial Temperature: 300.15 K
  - Initial Isotherm: 5 minutes
  - Maximum Temperature: 823.15 K
  - Final Isotherm: None
* Sample mass: ~5.4 mg
* Sample geometry: powdered
* Calibration type: nitrogen 70 ml/min, Al2O3 crucible, open, 10 °C/min, 20 to 1000 °C, material In, Bi, Zn, Al, Ag
* Crucible
  - Type: Al2O3
  - Volume: 85 µL
  - Diameter: None
  - Mass: None
  - Lid: False
  - Note: None
* Carrier Gas
  - Type: Nitrogen
  - Flow rate: 70 ml/min
  - Note: Pure Nitrogen (0% O2), purge flow 50 ml/min + protective 20 ml/min
* Instrument
  - Type: STA apparatus
  - Note: Simultaneous Thermal Analysis (TGA + DSC), measurement data presented as two separated files. 8 runs were performed - five with 1 evacuation and fill cycle before measurement (tests 1,2,4,5,6), three with 4 evacuation and fill cycles before measurement (tests 7,8,9). Tests 4-9 were conducted in Fall 2020 following the identification of two 'peaks' in TGA mass loss data when just one evacuation cycle prior to measurement was performed.

| Test Name | O2 volume % |  Initial Sample Mass (mg) | 
| --------- | :---------: | :------------------------: |
|TIFP\_STA\_N2\_10K\_1 | 0 | 5.4338|  
|TIFP\_STA\_N2\_10K\_2 | 0 | 5.3668|  
|TIFP\_STA\_N2\_10K\_4| 0 | 5.1046|  
|TIFP\_STA\_N2\_10K\_5| 0 | 5.7616|  
|TIFP\_STA\_N2\_10K\_6| 0 | 5.4602|  
|TIFP\_STA\_N2\_10K\_7| 0 | 5.6086|  
|TIFP\_STA\_N2\_10K\_8| 0 | 5.0804|  
|TIFP\_STA\_N2\_10K\_9| 0 | 5.7491|  

##### STA Tests in Air
* Heating Rate: 10 K/min
* Temperature program
  - Initial temperature 298.15 K
  - Isotherm: None
  - Maximum Temperature 1023.15 K
* Sample mass: ~5.85 mg
* Sample geometry: powdered
* Calibration type: air,  10 °C/min, material In
* Crucible type: Al2O3, 70 microliters, no lid
* Carrier Gas
  - Air (vol % O2 = ambient)
  - Flow rate = purge flow 50 ml/min + protective 10 ml/min

| Test Name | O2 volume % |  Initial Sample Mass (mg) | 
| --------- | :---------: | :------------------------: |
|TIFP\_STA\_O2-21\_10K\_1 | Ambient | 4.4790|  
|TIFP\_STA\_O2-21\_10K\_2 | Ambient | 5.2040|  



### Experimental Conditions: Cone Calorimeter
* Radiant heat flux 25 and 65 kW/m2, three runs were performed for each heat flux. Backside tempereature measured by K type thermocouples glued to the sample in the middle (x=0, y=0) and at location x=-25 mm, y=0. 
* Extraction flow rate: 24L/s
* Sample Surface Area: 0.0084 m2
* Sample holder dimensions:
    - according

File: TIFP_Cone_25kW_1.csv
Time,mass,HRR,Back surface temperature 1,Back surface temperature 2
s,g,kW/m2,K,K
0,71.44,0,297.25,297.25
4,71.40949,-0.470611,297.25,297.25
8,71.3018,-0.0696196,297.35,297.45
12,71.2115,1.59665,297.45,297.55
16,71.2067,1.62437,297.55,297.55
20,71.3107,0.761806,297.75,297.75
24,71.2969,-0.927616,298.15,298.25
28,71.2326,0.806836,298.95,299.15
32,71.0416,1.09545,300.05,300.45
36,71.1712,9.43E-03,302.75,303.25
40,71.1826,0.0510181,304.85,305.55
44,70.708,3.2125,307.35,308.15
48,71.1581,2.40262,310.15,310.95
52,71.1233,4.11766,312.95,314.05
56,71.2044,6.03468,316.15,317.15
60,71.1958,3.67581,319.65,320.55
64,71.192,1.87251,323.05,323.95
68,71.20113,4.43749,326.55,327.45
72,71.2165,7.40353,331.55,331.05
76,71.2051,5.25548,335.35,334.65
80,71.23277,6.24123,339.05,338.35
84,71.2496,6.77016,342.95,343.15
88,71.2443,5.22095,346.75,346.85
92,71.1977,3.00117,350.65,350.45
96,71.2252,4.13806,354.35,354.05
100,71.1809,3.35939,358.25,357.65
104,71.1627,64.0411,362.15,361.25
108,71.0303,157.026,366.05,364.95
112,70.7649,240.346,369.85,368.45
116,70.3721,312.691,373.35,371.75
120,69.93162,318.418,376.85,375.05
124,69.4389,328.88,380.15,378.45
128,68.9744,341.339,383.55,381.55
132,68.4555,333.185,386.85,384.85
136,68.0182,340.467,389.95,387.85
140,67.4972,346.277,393.15,391.15
144,67.1568,365.792,396.45,394.35
148,66.6715,361.146,399.75,397.75
152,66.1073,376.153,404.25,401.15
156,65.5693,369.228,407.55,404.75
160,65.0176,376.761,410.75,408.15
164,64.499,374.508,414.15,412.85
168,63.9605,382.689,417.55,416.55
172,63.4105,386.909,420.95,420.05
176,62.8618,387.077,424.15,423.65
180,62.2986,387.769,427.65,427.15
184,61.7555,392.004,430.85,430.65
188,61.1903,391.432,434.25,434.15
192,60.6186,412.911,437.55,437.65
196,60.0454,402.183,440.75,440.95
200,59.5021,382.845,444.05,444.35
204,58.9818,385.439,447.45,447.95
208,58.3506,405.858,450.65,451.25
212,57.8035,414.219,453.85,454.75
216,57.19179,396.536,457.15,458.05
220,56.6282,404.164,460.45,461.45
224,56.4008,413.809,463.75,464.85
228,55.81941,421.918,467.05,468.05
232,55.2226,412.357,470.25,471.55
236,54.5874,419.851,473.45,474.85
240,53.9689,401.599,477.65,478.15
244,53.3941,428.099,480.65,481.35
248,52.8118,433.24,483.85,484.75
252,52.1907,427.015,487.35,488.05
256,51.5869,435.149,490.65,492.55
260,50.9509,415.389,493.35,495.65
264,50.273,431.554,495.95,499.15
268,49.6958,445.354,498.35,502.25
272,49.0676,445.249,500.85,505.45
276,48.3787,455.968,503.25,508.75
280,47.6783,446.788,505.85,511.95
284,47.3025,463.656,508.65,515.25
288,46.542,451.86,511.75,518.25
292,45.8328,459.263,514.75,521.35
296,45.1211,483.617,518.15,524.15
300,44.4208,456.263,520.95,526.85
304,43.7065,484.458,523.65,529.45
308,43.3761,477.301,526.45,531.55
312,42.6996,486.832,529.55,533.95
316,41.9719,491.794,532.65,536.75
320,41.3003,515.88,536.35,539.85
324,40.5911,494.265,540.15,543.45
328,39.8992,494.94,545.65,547.25
332,39.2346,490.318,549.85,552.85
336,38.528,488.968,554.15,555.85
340,37.888,503.002,558.55,560.35
344,37.2371,513.086,563.25,566.65
348,36.4717,519.227,567.75,571.45
352,35.7984,502.026,572.75,576.05
356,35.0875,520.887,579.05,580.65
360,34.33637,490.153,590.35,585.25
364,33.6141,527.974,594.25,589.55
368,32.88203,525.351,593.35,593.85
372,32.1508,509.384,598.15,597.95
376,31.3751,522.931,605.75,601.95
380,30.7534,519.94,609.65,605.75
384,30.0018,541.277,613.65,609.55
388,29.2139,540.987,617.75,613.55
392,28.4692,554.418,622.75,617.75
396,27.677,511.916,627.85,622.35
400,26.949,542.504,633.15,626.95
404,26.2206,552.532,,
408,25.47289,560.353,,
412,24.6719,564.467,,
416,23.8596,575.555,,
420,23.1133,567.463,,
424,22.305,549.42,,
428,21.535,537.586,,
432,20.6985,528.254,,
436,19.9916,510.226,,
440,19.2912,480.641,,
444,18.5166,508.255,,
448,17.8572,429.87,,
452,17.1994,407.87,,
456,16.6394,366.695,,
460,16.1323,352.224,,
464,15.619,311.903,,
468,15.21116,256.598,,
472,14.8204,236.466,,
476,14.5172,212.39,,
480,14.2341,186.892,,
484,13.9079,173.052,,
488,13.6551,164.609,,
492,13.4201,169.369,,
496,13.1992,157.345,,
500,12.9743,156.314,,
504,12.7831,144.034,,
508,12.59377,129.24,,
512,12.3913,130.286,,
516,12.2233,124.352,,
520,12.0279,121.179,,
524,11.8331,123.905,,
528,11.7034,112.849,,
532,11.5345,106.346,,
536,11.3307,105.217,,
540,11.1698,108.253,,
544,11.0448,100.972,,
548,10.9174,102.52,,
552,10.7433,96.4002,,
556,10.62824,100.086,,
560,10.482,98.0525,,
564,10.3227,95.1284,,
568,10.2108,92.6446,,
572,10.13,90.1871,,
576,9.923846,87.1901,,
580,9.802385,91.0969,,
584,9.687428,91.6311,,
588,9.5531,93.3732,,
592,9.41798,93.1549,,
596,9.296329,90.3122,,
600,9.189752,88.2994,,
604,9.067964,86.4736,,
608,8.903359,82.4589,,
612,8.812066,83.6825,,
616,8.701014,79.2255,,
620,8.574734,79.6977,,
624,8.420429,77.6801,,
628,8.352074,77.1177,,
632,8.203231,79.2429,,
636,8.10375,81.2583,,
640,8.002933,79.4569,,
644,7.888161,74.7782,,
648,7.76811,72.3879,,
652,7.666761,70.5196,,
656,7.558984,72.2517,,
660,7.446669,68.3382,,
664,7.354773,66.774,,
668,7.3071,73.1935,,
672,7.158024,71.2372,,
676,7.074641,69.4731,,
680,6.969882,69.9063,,
684,7.004596,70.1289,,
688,6.824488,66.7861,,
692,6.695158,64.1478,,
696,6.610287,66.1293,,
700,6.500433,66.9346,,
704,6.380179,68.2236,,
708,6.326049,69.6362,,
712,6.244781,65.8244,,
716,6.156781,66.9619,,
720,6.046994,61.5931,,
724,5.936214,59.7815,,
728,5.885494,59.5272,,
732,5.768286,61.3703,,
736,5.72746,67.601,,
740,5.724247,68.2894,,
744,5.525896,71.3384,,
748,5.406631,76.5548,,
752,5.299026,72.2449,,
756,5.235876,61.7485,,
760,5.148606,54.4605,,
764,5.011006,45.6585,,
768,5.000795,42.1865,,
772,4.960896,41.3008,,
776,4.921424,38.5886,,
780,4.836373,38.017,,
784,4.76157,36.3241,,
788,4.756178,34.9757,,
792,4.679003,32.2734,,
796,4.647904,32.7113,,
800,4.640236,32.3607,,
804,4.586224,31.7128,,
808,4.51881,31.9336,,
812,4.498005,33.1364,,
816,4.427299,31.288,,
820,4.390836,30.5992,,
824,4.338096,36.1721,,
828,4.291514,33.7536,,
832,4.248045,31.489,,
836,4.199303,30.072,,
840,4.164798,31.9744,,
844,4.105694,30.8702,,
848,4.090578,31.586,,
852,4.044663,28.8066,,
856,3.993569,30.8216,,
860,3.945349,31.5929,,
864,3.901471,30.2193,,
868,3.861813,27.2006,,
872,3.827106,27.9452,,
876,3.773112,28.9164,,
880,3.721685,27.9311,,
884,3.684859,27.349,,
888,3.650207,28.8488,,
892,3.613,26.5053,,
896,3.553908,27.8309,,
900,3.519184,30.0489,,
904,3.46115,29.9196,,
908,3.435582,32.5663,,
912,3.390711,35.0643,,
916,3.359024,35.9745,,
920,3.291139,34.85728,,
924,3.24082,38.5369,,
928,3.197777,34.7578,,
932,3.126947,34.5146,,
936,3.119844,35.3852,,
940,3.041141,36.1906,,
944,3.007567,37.3221,,
948,2.968142,36.7298,,
952,2.922512,34.1523,,
956,2.884202,33.5086,,
960,2.843244,32.7202,,
964,2.796216,31.9464,,
968,2.712655,35.171,,
972,2.733308,35.5369,,
976,2.664036,36.7028,,
980,2.611756,36.7131,,
984,2.57,33.3924,,
988,2.547583,36.3016,,
992,2.500727,37.5023,,
996,2.441341,33.1857,,
1000,2.414463,27.2511,,

File: TIFP_Cone_25kW_2.csv
Time,Mass,HRR,Back Surface Temperature 1,Back Surface Temperature 2
[s],[g],[kW/m2],[K],[K]
0,71.72,2.91282,298.15,299.25
4,71.6008,1.69116,298.15,299.25
8,71.22134,2.17758,298.15,299.25
12,71.1708,2.00149,298.25,299.35
16,71.002,2.49806,298.45,299.45
20,70.9114,3.6664,298.75,299.75
24,70.91769,4.58993,299.45,300.25
28,70.86942,6.59469,301.55,301.15
32,70.81423,6.16915,303.35,303.35
36,70.8041,6.47773,305.55,305.05
40,70.7947,5.41251,308.95,306.95
44,70.7865,3.89915,311.85,309.25
48,70.8309,6.82055,314.95,312.55
52,70.8001,6.1382,318.25,315.15
56,70.8241,6.21945,321.65,317.95
60,70.8377,6.43961,325.25,320.85
64,70.8444,7.93399,328.95,323.85
68,70.8844,8.70918,332.55,326.85
72,70.9097,10.3472,336.35,329.85
76,70.9528,12.8319,340.15,332.95
80,70.8717,11.5571,343.85,336.05
84,70.9776,13.3196,347.65,338.75
88,71.0113,10.633,351.35,341.55
92,71.0676,23.6883,355.15,344.45
96,71.1034,64.3128,358.85,347.25
100,71.0633,158.176,362.55,350.35
104,70.77286,233.463,366.15,353.25
108,70.4395,275.503,369.65,356.15
112,70.0323,310.671,373.05,359.05
116,69.6138,330.522,376.55,361.95
120,69.1248,330.73,380.05,364.85
124,68.648,347.468,383.55,367.75
128,68.1878,348.909,388.35,370.85
132,67.6403,357.279,392.05,373.85
136,67.08743,355.159,395.65,377.05
140,66.5121,359.938,399.35,381.05
144,66.0099,355.139,403.05,384.05
148,65.7779,370.46,406.65,386.95
152,65.2251,372.981,410.45,390.05
156,64.6915,386.225,414.05,393.25
160,64.1311,384.094,417.65,396.55
164,63.5851,390.562,421.35,399.95
168,63.0366,396.413,425.05,403.25
172,62.4604,388.637,428.65,406.45
176,61.865,392.306,432.15,409.65
180,61.37302,380.075,435.75,413.25
184,60.8112,399.287,439.35,416.15
188,60.2469,415.629,442.75,419.35
192,59.6997,411.362,446.35,422.55
196,59.164,425.539,449.95,425.75
200,58.5554,399.952,453.65,429.75
204,58.0213,418.372,457.35,433.45
208,57.4237,416.051,462.05,436.75
212,56.8481,410.372,465.15,440.45
216,56.2559,421.197,468.15,443.95
220,55.6372,428.609,471.25,448.95
224,55.0351,428.188,473.75,452.85
228,54.4113,436.202,475.85,456.75
232,53.7455,442.334,478.05,460.75
236,53.1465,438.582,479.45,464.55
240,52.5228,435.116,481.45,467.95
244,51.8384,444.261,484.25,471.65
248,51.214,432.598,487.35,475.35
252,50.691,447.893,490.55,479.15
256,49.9874,460.967,493.85,482.75
260,49.281,454.507,497.35,486.35
264,48.603,467.223,500.55,490.05
268,48.0338,475.354,503.85,493.45
272,47.3308,468.055,507.25,496.25
276,46.6027,488.788,510.65,499.25
280,45.8659,486.488,514.25,502.45
284,45.9422,481.178,517.85,505.95
288,45.1594,518.697,522.65,509.35
292,44.4836,520.615,525.15,512.55
296,43.76114,511.7675,528.75,515.45
300,43.10344,495.061,533.45,518.55
304,42.4069,498.638,536.95,521.85
308,41.7186,478.688,540.75,526.25
312,41.0541,504.868,544.45,529.55
316,40.3644,507.45,548.35,533.25
320,39.7661,504.282,552.45,537.35
324,39.0878,518.739,556.55,541.65
328,38.3907,522.38,560.75,545.35
332,37.7085,501.119,565.05,549.75
336,36.989,520.71,569.35,555.05
340,36.3123,514.694,573.45,561.75
344,35.5724,530.368,577.35,567.15
348,34.8491,518.138,581.25,572.55
352,34.1258,544.571,585.25,578.05
356,33.4305,520.727,589.15,583.55
360,32.718,530.17,593.05,588.15
364,31.9929,543.089,597.15,592.45
368,31.2437,542.537,601.35,596.65
372,30.5036,545.742,607.05,600.55
376,29.7789,531.792,609.95,604.55
380,29.0313,538.97,614.35,608.45
384,28.3412,527.386,619.65,612.55
388,27.6571,522.374,623.95,617.15
392,26.8462,548.083,628.55,622.35
396,26.0516,561.808,634.75,625.45
400,25.22755,547.925,645.05,628.25
404,24.4061,548.189,,
408,23.6024,560.357,,
412,22.6801,539.278,,
416,22.6258,527.007,,
420,22.086,518.973,,
424,21.2336,520.462,,
428,20.5024,528.051,,
432,19.7453,509.198,,
436,18.9768,475.636,,
440,18.21806,439.267,,
444,17.6415,410.521,,
448,17.1732,369.391,,
452,16.5215,335.443,,
456,16.39248,295.808,,
460,15.9576,274.104,,
464,15.5434,246.309,,
468,15.0561,225.409,,
472,14.58811,218.086,,
476,14.2952,204.651,,
480,14.0585,184.928,,
484,13.6643,168.236,,
488,13.4536,153.902,,
492,13.2519,151.273,,
496,13.0587,146.297,,
500,12.8334,138.046,,
504,12.6487,132.741,,
508,12.45012,127.873,,
512,12.2549,125.015,,
516,12.0447,119.918,,
520,11.88947,119.352,,
524,11.7248,116.581,,
528,11.5351,116.663,,
532,11.3608,114.462,,
536,11.1966,115.376,,
540,11.0289,111.313,,
544,10.8547,112.719,,
548,10.743,106.508,,
552,10.5496,104.133,,
556,10.4023,103.89,,
560,10.3044,103.511,,
564,10.6154,98.0891,,
568,10.4834,98.6044,,
572,10.3252,96.6748,,
576,10.2065,97.5973,,
580,10.06771,95.2799,,
584,9.885487,93.003,,
588,9.732983,93.2912,,
592,9.615465,94.5466,,
596,9.485591,94.6151,,
600,9.355269,88.1375,,
604,9.21138,88.5038,,
608,9.09144,90.0695,,
612,8.956507,91.147,,
616,8.858645,91.0751,,
620,8.715116,88.2275,,
624,8.625428,90.3342,,
628,8.503956,85.2611,,
632,8.372558,80.0941,,
636,8.267042,81.1601,,
640,8.168164,81.0424,,
644,8.041858,79.8011,,
648,7.943219,81.3644,,
652,7.810381,80.995,,
656,7.696958,81.1803,,
660,7.602453,81.5014,,
664,7.46464,81.9889,,
668,7.342635,80.0619,,
672,7.224939,83.3552,,
676,7.120741,83.2405,,
680,6.977235,82.3618,,
684,6.918022,82.1951,,
688,6.771248,82.0075,,
692,6.700353,83.764,,
696,6.573475,79.8614,,
700,6.443556,81.5682,,
704,6.323278,80.717,,
708,6.236872,75.7905,,
712,6.065902,75.8146,,
716,5.999924,83.5156,,
720,5.872749,81.5497,,
724,5.779142,76.7046,,
728,5.675272,73.7713,,
732,5.57487,69.9236,,
736,5.516946,67.7478,,
740,5.440058,64.4502,,
744,5.334086,64.1258,,
748,5.238196,60.7806,,
752,5.155321,60.215,,
756,5.094984,57.7747,,
760,5.028604,56.4209,,
764,4.966124,53.9788,,
768,4.886547,55.3988,,
772,4.830165,50.5577,,
776,4.767396,51.47652,,
780,4.692314,51.1523,,
784,4.639605,48.5544,,
788,4.566646,47.7795,,
792,4.519159,46.1678,,
796,4.466824,44.7466,,
800,4.415239,43.9183,,
804,4.359531,43.1716,,
808,4.289876,40.391,,
812,4.227042,40.5424,,
816,4.178406,39.6447,,
820,4.126615,39.0166,,
824,4.067148,37.9335,,
828,4.01726,36.011,,
832,3.956962,36.0649,,
836,3.905546,36.2068,,
840,3.858579,36.2029,,
844,3.799002,36.1106,,
848,3.755035,35.8716,,
852,3.697734,35.0269,,
856,3.669138,35.4993,,
860,3.613066,34.8555,,
864,3.564016,33.9603,,
868,3.517,32.7326,,
872,3.487464,30.2588,,
876,3.410944,30.2103,,
880,3.393635,30.1523,,
884,3.336517,28.1702,,
888,3.321643,25.5101,,
892,3.272994,25.6441,,
896,3.263483,25.4851,,
900,3.22092,23.4292,,
904,3.191174,24.108,,
908,3.17319,22.1348,,
912,3.165412,20.9236,,
916,3.137059,21.1531,,
920,3.111815,22.2914,,
924,3.101623,21.1225,,
928,3.070216,19.5227,,
932,3.055321,18.6592,,
936,3.038899,16.8022,,
940,3.068924,17.6312,,
944,3.02685,15.9624,,
948,2.990431,15.37041,,
952,2.992824,12.6956,,
956,2.869425,12.4043,,
960,2.922656,11.0404,,
964,2.862453,10.0412,,
968,2.838022,9.16976,,
972,2.810145,9.63814,,
976,2.78783,8.02461,,
980,2.771351,9.35105,,
984,2.749886,10.2412,,
988,2.756396,9.59709,,
992,2.737417,8.53142,,
996,2.736127,8.93279,,
1000,2.748599,8.72793,,

File: TIFP_Cone_25kW_3.csv
Time,Mass,HRR,HRR,Back Surface Temperature 1,Back Surface Temperature 2
[s],[g],[kW/m2],[K],[K]
0,69.88,-1.03571,299.15,299.45
4,70.1129,-0.833333,299.05,299.35
8,69.7776,-0.309524,298.85,299.05
12,69.6676,-0.583333,298.85,299.05
16,69.598,0.25,298.95,299.15
20,69.6149,1.65476,299.35,299.55
24,69.5419,0.607143,300.35,300.45
28,69.5276,-0.77381,302.95,302.35
32,69.5038,-0.690476,305.25,304.85
36,69.4872,2.15476,307.95,307.25
40,69.5145,2.85714,310.95,309.95
44,69.4755,4.05952,314.25,312.95
48,69.5071,3.47619,317.85,316.05
52,69.4777,1.95238,321.55,319.25
56,69.4949,2.91667,325.35,322.55
60,69.4734,4.35714,329.25,326.05
64,69.4874,5.09524,333.35,329.55
68,69.4988,5.2619,337.35,333.05
72,69.5689,3.64286,342.75,336.65
76,69.6217,3.02381,346.85,340.15
80,69.6214,2.05952,350.75,343.75
84,69.6705,7.09524,354.85,348.65
88,69.7006,7.39286,358.75,352.35
92,69.7403,4.90476,362.55,355.95
96,69.7356,0.75,366.25,359.55
100,69.6934,38.2857,369.95,363.05
104,69.5941,132.738,373.35,366.55
108,69.3114,226.667,376.85,369.85
112,68.9108,286.476,380.15,373.15
116,68.4161,313,383.45,376.35
120,67.9969,321.75,386.55,379.45
124,67.5863,343.048,389.85,382.45
128,67.1819,346.036,393.35,385.55
132,66.7961,352.619,396.85,388.45
136,66.286,362.643,400.55,391.25
140,65.7509,367.786,404.15,394.45
144,65.2641,366.774,407.75,397.95
148,64.759,367.048,411.25,401.45
152,64.2541,365.869,414.75,404.95
156,63.7529,364.381,418.25,408.35
160,63.2189,371.833,421.65,411.85
164,62.7122,373.286,426.15,415.35
168,62.2273,387.643,429.55,418.65
172,61.6293,384.893,432.95,423.35
176,61.1663,386.25,436.55,426.55
180,60.61,384.131,440.05,429.95
184,60.0634,395.036,443.45,433.25
188,59.5292,398.321,447.05,436.65
192,58.9893,379.095,450.55,440.05
196,58.4656,391.786,453.95,443.15
200,57.9078,397.238,457.35,446.35
204,57.3625,398.048,460.75,449.55
208,56.8098,402.667,463.85,452.65
212,56.2497,411.119,467.15,455.45
216,55.6747,409.464,469.85,456.95
220,55.1196,411.262,472.55,457.55
224,54.5216,404.869,475.55,460.65
228,53.9589,406.464,478.15,463.75
232,53.3205,412.345,480.75,467.05
236,52.7481,420.131,482.85,470.35
240,52.0907,428.476,486.75,474.25
244,51.4529,456.488,488.85,481.15
248,50.7684,458.202,485.25,485.85
252,50.1096,452.679,489.15,489.75
256,49.4539,449.857,492.15,492.35
260,48.7665,463.488,495.55,493.25
264,48.3504,477.048,497.65,497.55
268,47.6962,474.155,499.65,498.75
272,46.8847,467.762,503.95,501.05
276,46.1904,489.75,508.45,503.25
280,45.6378,487.333,513.05,505.95
284,44.9464,498.762,517.65,511.05
288,44.4694,492.845,522.25,513.15
292,43.7628,518.452,525.65,515.95
296,43.0669,513.298,529.85,519.45
300,42.3088,513.714,532.15,523.85
304,41.6152,508.476,535.65,527.75
308,40.9077,506.619,540.15,535.05
312,40.2049,510.619,544.35,542.65
316,39.4467,507.869,548.05,552.55
320,38.7031,524.286,552.25,556.15
324,37.9591,506.381,558.65,559.45
328,37.1755,506.548,565.95,562.05
332,36.4731,539.214,572.05,564.95
336,35.7728,521.94,580.25,567.65
340,35.2322,524.56,588.15,570.35
344,34.5677,518.286,586.45,572.95
348,33.7311,528.905,584.35,574.85
352,33.1338,528.702,589.35,575.55
356,32.3365,522.155,593.05,575.35
360,31.571,547.952,597.05,578.25
364,30.8354,535.726,600.35,581.25
368,30.1168,535.131,607.35,584.25
372,29.3465,537.726,613.25,587.55
376,28.5991,534.75,618.05,590.65
380,27.8232,542.143,623.15,594.05
384,27.2034,556.595,626.75,597.85
388,26.3056,541.298,631.05,601.45
392,25.5933,521.857,636.45,605.35
396,25.2001,545.429,643.35,608.85
400,24.4717,534.988,652.85,613.55
404,23.6878,550.774,,
408,22.9166,528.452,,
412,22.1257,550.69,,
416,21.3839,543.155,,
420,20.656,529.107,,
424,19.9333,533.619,,
428,19.1373,537.321,,
432,18.3877,544.619,,
436,17.6914,498.405,,
440,17.0264,462.31,,
444,16.3865,422.5,,
448,15.8562,383.381,,
452,15.3205,331.274,,
456,14.8625,308.56,,
460,14.4571,268.619,,
464,14.0887,243.81,,
468,13.7407,225.488,,
472,13.4678,209.095,,
476,13.1817,193,,
480,12.9366,186.417,,
484,12.6709,178.798,,
488,12.4287,175.798,,
492,12.1617,172.44,,
496,11.9513,169.298,,
500,11.7166,166.155,,
504,11.5025,165.607,,
508,11.2637,160.75,,
512,11.0596,161.024,,
516,10.8694,150.536,,
520,10.6395,154.071,,
524,10.4137,155.905,,
528,10.1861,154.119,,
532,9.9846,152.905,,
536,9.7811,148.548,,
540,9.5743,147.071,,
544,9.3707,142.107,,
548,9.1746,133.405,,
552,9.0071,123.488,,
556,8.8318,121.393,,
560,8.6673,116.857,,
564,8.5278,111.548,,
568,8.3899,108.75,,
572,8.25,104.929,,
576,8.0941,106.071,,
580,7.93,104.94,,
584,7.7822,101.333,,
588,7.6478,100.81,,
592,7.5022,104.048,,
596,7.3721,102.964,,
600,7.2188,101.869,,
604,7.0909,100.214,,
608,6.9416,102.012,,
612,6.7957,102.226,,
616,6.6482,100.512,,
620,6.5194,100.286,,
624,6.4079,99.9167,,
628,6.2622,96.0476,,
632,6.1374,97.0357,,
636,5.9965,99.7738,,
640,5.8794,99.7381,,
644,5.715,98.0952,,
648,5.5408,101.25,,
652,5.4247,99.2857,,
656,5.2986,95.6548,,
660,5.1692,94.2619,,
664,5.0512,89.2857,,
668,4.9138,85.1667,,
672,4.7858,87.9643,,
676,4.6752,86.2857,,
680,4.5587,83.1429,,
684,4.4244,80.2381,,
688,4.367,79.6071,,
692,4.2255,77.0595,,
696,4.1073,77.6548,,
700,4.0567,76.9048,,
704,3.9482,73.9167,,
708,3.8723,72.869,,
712,3.7696,68.25,,
716,3.6796,65.0119,,
720,3.571,60.7024,,
724,3.5122,57.3095,,
728,3.4233,56.6905,,
732,3.3686,57.0357,,
736,3.2877,51.131,,
740,3.2356,48,,
744,3.1763,44.75,,
748,3.1248,42.4643,,
752,3.0873,40.2619,,
756,3.0195,38.2024,,
760,2.9702,37.119,,
764,2.934,38.7738,,
768,2.9282,37.5833,,
772,2.8367,37.119,,
776,2.8045,37.2262,,
780,2.7148,35.8929,,
784,2.6979,33.7738,,
788,2.6504,32.0476,,
792,2.6027,30.25,,
796,2.5386,30.0595,,
800,2.5018,29.3214,,
804,2.4716,27.2857,,
808,2.4462,24.9881,,
812,2.4083,24.9167,,
816,2.3973,23.4524,,
820,2.3455,20.6786,,
824,2.3368,19.8571,,
828,2.3207,19.5,,
832,2.2804,21.4643,,
836,2.2696,21.4524,,
840,2.2422,19.4286,,
844,2.2395,18.7619,,
848,2.2126,17.1667,,
852,2.2025,16.7619,,
856,2.1732,16.6667,,
860,2.1584,17.2024,,
864,2.1485,17.9405,,
868,2.142,19.369,,
872,2.1123,17.5,,
876,2.0931,15.7976,,
880,2.0701,14.5476,,
884,2.0571,14.4881,,
888,2.05,13.1905,,
892,2.0296,13.0714,,
896,1.9696,11.2976,,
900,1.9615,11.2024,,
904,1.9371,13.1667,,
908,1.9212,13.5952,,
912,1.9057,14.4881,,
916,1.8521,15.0238,,
920,1.8249,13.2262,,
924,1.8224,11.5952,,
928,1.8181,9.66667,,
932,1.8104,8.2619,,
936,1.7946,6.96429,,
940,1.7916,6.95238,,
944,1.8014,6.41667,,
948,1.784,5.21429,,
952,1.7421,5.80952,,
956,1.7836,6.60714,,
960,1.7517,6.39286,,
964,1.7714,4.35714,,
968,1.7321,5.03571,,
972,1.7164,4.4881,,
976,1.7034,4.25,,
980,1.6886,5.32143,,
984,1.69,5.54762,,
988,1.6916,4.19048,,
992,1.6638,3.52381,,
996,1.6561,4.94048,,
1000,1.655,4.35714,,