Folder: matl-db/PMMA/Calibration_Data/UClan

Note: PMMA/Calibration_Data/UClan/README.md
# University of Central Lancashire (UClan)

### Experimental Conditions: TGA, DSC
[Number of tests // instrument used (manufacturer // STA or TGA and DSC separately) ?]
* Heating Rate: 10 K/min
* Temperature program
  - Initial Temperature: 300 K
  - Initial Isotherm: None
  - Maximum Temperature: 973 K
  - Final Isotherm: None
* Sample mass: 2-6 mg
* Sample geometry: powdered
* Calibration: Method of temperature calibration: Onset temperature, 5 calibration points; Temperature range of the calibration Indium - 100-200C, Zinc - 360-480C; Frequency of calibration: Known samples run every three months, full calibration only then performed if these are out of tolerance. Otherwise yearly or after maintenance and/or config change
* Crucible
  - Type: Alumina
  - Volume: 150 ÂµL
  - Diameter: None
  - Mass: None
  - Lid: None
  - Note: None
* Carrier Gas
  - Type: Nitrogen
  - Flow rate: 40 ml/min
  - Note: None
* Instrument
  - Type: None [?]
  - Note: None


### Experimental Conditions: Cone Calorimeter
Note: Cone HRR data was provided as HRR [kW] as originally requested. This dataset was then scaled to provide [kW/m2] assuming a sample surface area of 0.0088m2 (standard for cone calorimeter tests with a sample holder cover)
Additionally, back surface temperature measurements were originally output at 2Hz, they have been linearaly interpolated here to provide estimates of Temperature at 1Hz.
[Type of cone, open/closed, number of replicate tests?]
* Extraction flow rate: [?]
* Sample holder dimensions:
    - steel frame 10 x 10 cm
    - Retainer frame/grid: [None?]
* Backing Insulation: glass wool [thickness / density / thermal properties?]
* Thermocouple location:
    - [?]

###### Test Heating Conditions  
|Test Name | Heat Flux (kW/m2)| Heater Temperature (K)|
|----------|:------:| :---: |
|UClan_Cone_25| 25 | 898 |
|UClan_Cone_65| 65 | 1083 |

File: UClan_Cone_25kW.csv
Time,Sample Mass,HRR,Back Surface Temperature
[s],[g],[kW m-2],[K]
0,74.12,1.74E-07,314.15
4,74.2,0.292643,316.15
8,74.1899,1.39694,316.65
12,74.1699,1.4378,316.65
16,74.1899,1.00922,317.65
20,74.1899,1.81061,318.65
24,74.16,2.47148,319.65
28,74.14,2.40772,320.15
32,74.15,0.966314,321.15
36,74.14,-0.533265,322.15
40,74.14,0.237404,322.65
44,74.14,0.032279,323.65
48,74.14,-0.976785,325.15
52,74.13,-1.45822,327.15
56,74.13,-1.704225,326.15
60,74.12,-0.56418,328.15
64,74.12,0.289177,328.65
68,74.12,0.4464,329.15
72,74.12,0.474529,330.15
76,74.0699,0.879315,331.15
80,74.0699,1.80646,331.65
84,74.08,0.4685,332.15
88,74.1,0.145652,333.65
92,74.0499,0.0857227,334.65
96,74.0699,0.0789865,336.15
100,74.0699,-0.238705,337.65
104,74.04,-0.34292,338.65
108,74.01,-0.344106,341.15
112,73.97,0.457201,342.65
116,73.9399,1.25644,344.65
120,73.8201,7.4409,346.15
124,73.6501,39.1775,348.15
128,73.3102,113.133,350.15
132,72.9503,180.89,352.15
136,72.5105,234.495,354.65
140,72.0605,262.663,357.65
144,71.6407,279.806,360.15
148,71.1509,295.022,362.65
152,70.751,288.225,364.15
156,70.2811,303.299,367.15
160,69.8312,304.418,369.15
164,69.3713,303.559,371.15
168,68.9015,304.795,374.65
172,68.4117,316.745,376.15
176,67.9218,321.177,378.15
180,67.412,319.07,380.15
184,66.9821,322.544,381.65
188,66.4822,327.42,383.65
192,65.9923,312.803,385.15
196,65.5024,332.145,386.65
200,64.9626,338.888,389.65
204,64.4628,339.585,391.65
208,63.9629,335.154,392.65
212,63.4131,339.696,395.15
216,62.8633,338.056,397.65
220,62.3934,347.455,399.15
224,61.8535,357.034,401.15
228,61.3436,355.056,403.65
232,60.8138,356.298,405.15
236,60.234,361.221,407.65
240,59.6642,376.501,409.15
244,59.1244,382.408,411.65
248,58.5645,375.183,412.15
252,57.9746,385.16,415.65
256,58.5745,377.418,417.15
260,57.8748,383.319,419.15
264,57.3749,386.323,420.15
268,56.795,398.155,422.15
272,56.1952,403.434,424.15
276,55.6154,412.521,426.15
280,54.9855,423.722,427.65
284,54.3857,405.98,429.65
288,53.7759,412.867,431.65
292,53.1561,412.467,433.15
296,52.4762,423.764,436.15
300,51.8164,435.982,437.65
304,51.0967,443.23,439.65
308,50.5369,430.935,441.15
312,49.887,432.188,443.65
316,49.2772,434.872,446.15
320,48.5874,440.203,447.15
324,47.9275,433.902,449.65
328,47.2178,450.511,450.65
332,46.6079,445.98,453.65
336,45.9581,447.508,454.65
340,45.2584,452.985,456.65
344,44.5985,454.647,459.15
348,43.9487,440.742,461.15
352,43.2889,452.481,463.15
356,42.5692,457.825,465.65
360,41.9293,456.436,467.15
364,41.1895,452.233,470.65
368,40.5797,450.624,471.65
372,39.8699,465.533,475.15
376,39.2501,461.636,477.65
380,38.6202,454.707,479.65
384,37.9405,479.738,482.15
388,37.2007,486.282,484.15
392,36.4609,488.173,487.15
396,35.7711,491.083,489.65
400,35.03125,487.235,492.65
404,34.3015,506.576,495.15
408,33.5917,498.574,498.65
412,32.882,507.317,502.15
416,32.2021,502.334,505.65
420,31.5323,500.718,509.15
424,30.8525,475.27,512.65
428,30.1927,467.787,517.15
432,29.4629,493.577,520.65
436,28.7131,480.189,525.15
440,27.9733,498.176,529.15
444,25.9439,478.882,533.65
448,26.6537,496.198,538.15
452,25.8439,499.12,542.65
456,25.1241,499.967,548.15
460,24.4244,503.248,554.65
464,23.6646,531.526,561.15
468,22.095,529.729,568.65
472,21.3752,518.959,574.65
476,20.7454,486.947,582.15
480,20.0556,497.491,587.15
484,19.4558,475.121,593.15
488,18.856,453.536,598.15
492,18.3661,430.176,604.15
496,17.8163,418.2,608.15
500,17.2765,406.959,612.65
504,16.8166,373.956,617.65
508,16.4167,349.935,621.15
512,15.9968,338.76,625.15
516,15.587,332.09,630.15
520,15.197,319.981,638.65
524,14.8671,298.612,647.65
528,14.5073,288.955,658.15
532,14.1273,281.034,674.65
536,13.8474,266.086,700.15
540,13.5375,256.116,734.65
544,13.1876,255.308,777.15
548,12.9077,256.615,808.15
552,12.6677,238.754,835.15
556,12.3879,230.9,853.15
560,12.1179,225.789,880.65
564,11.828,224.124,888.15
568,11.618,216.785,895.65
572,11.3881,204.168,905.65
576,11.1582,202.394,916.15
580,10.9383,197.015,924.15
584,10.7583,184.204,935.15
588,10.5084,177.583,948.65
592,10.3684,174.419,945.15
596,10.1785,172.644,935.65
600,10.0186,171.002,931.15
604,9.79858,164.69,926.15
608,9.56866,166.502,919.65
612,9.43872,162.068,919.65
616,9.29871,159.622,915.15
620,9.12878,157.468,905.65
624,8.90881,151.424,890.65
628,8.79889,153.153,874.15
632,8.59894,153.442,857.65
636,8.43896,152.639,843.65
640,8.289,147.654,831.15
644,8.14911,148.486,817.15
648,7.99915,147.902,805.65
652,7.83917,143.964,798.15
656,7.72919,142.287,792.65
660,7.53925,144.033,779.65
664,7.39929,141.479,768.65
668,7.26935,139.547,763.15
672,7.01941,141.588,753.65
676,6.89948,139.14,746.65
680,6.80945,138.254,738.65
684,6.68951,135.615,733.15
688,6.48956,133.65,730.15
692,6.38959,135.046,726.15
696,6.22961,135.907,724.15
700,6.09967,130.186,715.15
704,5.99969,130.154,709.65
708,5.83978,126.8,707.15
712,5.74976,125.46,704.65
716,5.59979,125.262,702.65
720,5.42987,122.25,701.65
724,5.36987,123.007,699.15
728,5.19995,121.789,700.15
732,5.13995,117.134,697.65
736,5.01001,114.029,694.15
740,4.92999,115.273,689.15
744,4.78009,116.569,684.65
748,4.62012,115.561,682.65
752,4.52014,114.257,684.15
756,4.3902,112.024,678.65
760,4.3302,108.123,675.65
764,4.21021,107.077,671.15
768,4.10022,106.296,671.15
772,3.9903,105.822,670.15
776,3.91028,103.175,666.15
780,3.70038,100.831,663.15
784,3.60034,100.438,659.65
788,3.59039,97.9185,656.65
792,3.51044,96.8222,654.15
796,3.4104,97.0955,653.65
800,3.3205,93.6705,652.15
804,3.24048,91.843,650.15
808,3.10052,89.1037,649.15
812,3.02057,87.0635,647.15
816,3.01056,84.7563,646.15
820,2.90063,82.5007,646.65
824,2.87061,80.3125,646.15
828,2.71069,79.2018,646.65
832,2.70068,75.3604,644.65
836,2.66064,76.0677,643.15
840,2.62067,74.4935,642.15
844,-0.12854,73.6833,640.65
848,3.2605,72.9999,640.15
852,3.2605,70.8541,638.65
856,3.19049,71.5484,637.65
860,3.10052,71.4577,636.15
864,3.05054,69.8358,634.65
868,2.98053,69.3763,632.65
872,2.96057,67.3641,632.65
876,2.90063,66.9631,630.15
880,2.84064,64.437,630.15
884,2.81061,63.8717,629.15
888,2.70068,64.1401,626.65
892,2.68066,63.2379,625.65
896,2.64069,64.1841,627.65
900,2.52075,63.3655,628.15
904,2.51074,63.0643,626.65
908,2.52075,63.0305,625.15
912,2.42072,62.5539,624.15
916,2.41071,59.6955,622.65
920,2.32074,58.8273,624.15
924,2.28082,58.6187,623.15
928,2.24078,56.39459,624.15
932,2.17078,55.7074,622.15
936,2.18079,54.2936,620.15
940,2.15082,52.97386,619.15
944,2.09088,51.8374,618.15
948,2.06085,50.8423,618.15
952,2.01086,50.4055,618.15
956,1.95087,49.3128,617.65
960,1.92084,47.543,618.65
964,1.89087,46.0293,618.65
968,1.92084,45.9506,619.15
972,1.82092,45.1985,619.65
976,1.85089,44.1091,618.15
980,1.81091,45.8325,617.65
984,1.71094,45.1205,615.65
988,1.75092,45.203,614.15
992,1.74091,44.8211,615.65
996,1.64099,43.5209,615.65
1000,1.67096,42.0296,615.15
1004,1.68091,39.4609,614.15
1008,1.62097,36.6491,613.15
1012,1.63098,36.7938,610.65
1016,1.62097,36.0984,610.65
1020,1.56097,34.9045,610.15
1024,1.521,34.5697,608.15
1028,1.47095,34.3671,610.15
1032,1.521,34.7428,611.65
1036,1.53101,34.685,612.65
1040,1.51099,33.757,611.65
1044,1.45105,33.5782,611.65
1048,1.49097,32.5339,610.65
1052,1.47095,31.3813,609.65
1056,1.43103,30.0278,609.65
1060,1.43103,30.3999,609.15
1064,1.39105,30.2017,608.15
1068,1.41101,30.484,607.15
1072,1.40106,28.9728,608.15
1076,1.42102,28.773,609.65
1080,1.35101,28.5791,610.15
1084,1.36102,28.4413,609.65
1088,1.32104,26.9782,610.65
1092,1.30103,26.7618,610.15
1096,1.30103,28.4518,608.15
1100,1.30103,29.335,609.15
1104,1.2511,28.4274,607.15
1108,1.2511,27.8744,608.15
1112,1.22107,27.4869,608.15
1116,1.1311,27.16,608.15
1120,1.26105,26.7651,607.15
1122,1.22107,26.6889,607.15

File: UClan_Cone_65kW.csv
Time,Sample Mass,HRR,Back Surface Temperature
[s],[g],[kW m-2],[K]
0,71.12,1.61E-07,323.65
2,71.2,0.263535,0
4,71.1699,0.368965,0
6,71.1599,0.421286,0
8,71.1699,0.442209,0
10,71.1699,0.348698,0
12,71.0399,2.36251,0
14,70.8201,25.4142,0
16,70.5002,85.805,0
18,70.0303,178.858,0
20,69.7603,251.669,0
22,69.3805,336.47,0
24,68.9005,389.826,0
26,68.5007,452.738,0
28,68.0109,497.036,0
30,67.571,547.367,332.15
32,67.1012,590.839,0
34,66.6013,598.454,0
36,66.1514,604.082,0
38,65.6316,599.624,0
40,65.1516,650.939,0
42,64.6119,650.458,0
44,64.142,651.585,0
46,63.6821,673.944,0
48,63.1823,657.029,0
50,62.6624,667.466,0
52,62.1625,673.102,0
54,61.6328,656.541,0
56,61.1729,643.808,0
58,60.623,649.501,0
60,60.1631,685.364,342.15
62,59.6632,667.844,0
64,59.1934,682.464,0
66,58.5836,705.161,0
68,58.0337,674.426,0
70,57.5939,703.115,0
72,57.104,693.238,0
74,56.5942,723.4,0
76,56.0243,687.476,0
78,55.4945,681.39,0
80,55.0046,678.501,0
82,54.4648,707.562,0
84,53.8949,728.713,0
86,53.415,695,0
88,52.8452,730.603,0
90,52.3354,704.746,353.65
92,51.8256,720.755,0
94,51.1957,744.396,0
96,50.7258,715.978,0
98,50.196,717.156,0
100,49.6661,727.549,0
102,49.1663,718.26,0
104,48.6066,725.355,0
106,48.0266,741.872,0
108,47.4368,706.048,0
110,46.917,717.468,0
112,46.3271,760.341,0
114,45.8073,756.631,0
116,45.2175,722.909,0
118,44.6476,778.474,0
120,44.0778,751.889,378.15
122,43.528,786.043,0
124,42.8881,770.293,0
126,42.3383,801.318,0
128,41.6785,768.203,0
130,41.1087,771.104,0
132,40.5588,806.716,0
134,39.8491,817.668,0
136,42.8781,783.906,0
138,47.4568,856.056,0
140,46.817,818.977,0
142,45.9872,822.432,0
144,45.3174,831.113,0
146,44.3477,853.789,0
148,43.0981,890.895,0
150,34.4406,849.217,405.65
152,33.7308,932.891,0
154,33.061,916.76,0
156,32.3712,869.504,0
158,31.7214,922.599,0
160,30.9716,938.182,0
162,30.2618,905.803,0
164,29.5519,966.044,0
166,28.8222,908.992,0
168,28.1524,979.641,0
170,27.4626,933.696,0
172,26.7628,976.716,0
174,26.063,954.405,0
176,25.3832,964.168,0
178,24.6635,977.809,0
180,23.9436,965.672,436.15
182,23.2138,901.461,0
184,22.4741,926.436,0
186,21.7343,965.08,0
188,20.9545,1010.53,0
190,20.2247,1018.57,0
192,19.4349,996.065,0
194,18.6851,963.049,0
196,17.9254,1027.79,0
198,17.0856,1088.4,0
200,16.3358,1006.51,0
202,15.5361,1065.99,0
204,14.8262,1099.51,0
206,14.1964,1111.42,0
208,13.5966,1112.96,0
210,13.0867,1108.24,469.65
212,12.5869,1052.17,0
214,12.227,991.749,0
216,11.8571,867.47,0
218,11.4772,787.474,0
220,11.0974,711.933,0
222,10.8274,654.565,0
224,10.4975,619.445,0
226,10.1576,545.147,0
228,9.83771,530.725,0
230,9.51776,517.059,0
232,9.17792,482.716,0
234,8.89795,477.426,0
236,8.6181,466.768,0
238,8.34814,461.789,0
240,8.0882,456.385,530.15
242,7.82825,438.744,0
244,7.55835,447.297,0
246,7.32843,438.623,0
248,7.05847,414.432,0
250,6.90857,406.416,0
252,6.70862,395.112,0
254,6.49866,373.449,0
256,6.30872,359.545,0
258,6.14874,336.452,0
260,5.9588,320.61,0
262,5.77887,307.401,0
264,5.60895,297.404,0
266,5.45898,287.664,0
268,5.33899,279.617,0
270,5.12903,270.278,703.65
272,4.98914,259.91,0
274,4.82916,259.325,0
276,4.70917,261.724,0
278,4.5592,250.603,0
280,4.43921,258.576,0
282,4.28931,248.292,0
284,4.109375,244.226,0
286,3.98944,243.23,0
288,3.84943,241.505,0
290,3.6795,237.787,0
292,3.53955,233.559,0
294,3.43951,231.929,0
296,3.26959,232.02,0
298,3.16962,231.062,0
300,3.03967,226.203,1003.15
302,2.92975,228.95,0
304,2.71979,222.295,0
306,2.67981,217.45,0
308,1.61011,212.262,0
310,2.55975,208.357,0
312,2.45984,206.883,0
314,2.36987,199.396,0
316,2.25989,194.465,0
318,2.16992,192.52,0
320,2.05994,189.577,0
322,1.94995,184.376,0
324,1.86005,184.542,0
326,1.78003,184.496,0
328,1.69,183.108,0
330,1.57007,182.428,1087.15
332,1.4801,178.95,0
334,1.41016,177.745,0
336,1.32013,173.878,0
338,1.24023,171.61,0
340,1.11023,170.943,0
342,1.03027,167.104,0
344,0.940247,164.074,0
346,0.860291,160.614,0
348,0.780334,155.788,0
350,0.700317,151.855,0
352,0.660339,149.542,0
354,0.600403,148.681,0
356,0.530396,146.729,0
358,0.470398,144.898,0
360,0.400452,145.876,1060.65
362,0.330444,139.167,0
364,0.250427,138.592,0
366,0.220459,130.484,0
368,0.140503,129.577,0
370,0.110535,127.437,0
372,0.0305176,125.233,0
374,-0.01940918,119.6,0
376,-0.109436,116.801,0
378,-0.109436,114.784,0
380,-0.159424,109.948,0
382,-0.109436,106.402,0
384,-0.149414,99.0463,0
386,-0.159424,95.11,0
388,-0.339355,91.9117,0
390,-0.289368,88.0049,994.15
392,-0.259338,85.4649,0
394,-0.23938,82.0794,0
396,-0.329346,79.0201,0
398,-0.349365,76.2777,0
400,-0.299377,75.1683,0
402,-0.359375,72.9593,0
404,-0.359375,71.2198,0
406,-0.419373,69.0395,0
408,-0.419373,66.306,0
410,-0.399353,64.7549,0
412,-0.479309,63.7455,0
414,-0.399353,61.7481,0
416,-0.439331,59.0129,0
418,-0.479309,58.5152,0
420,-0.479309,56.5315,983.15
422,-0.44928,56.5411,0
424,-0.45929,54.9136,0
426,-0.45929,53.2912,0
428,-0.479309,51.238,0
430,-0.489319,48.943,0
432,-0.509277,49.0494,0
434,-0.499329,48.9522,0
436,-0.519287,47.7486,0
438,-0.489319,46.7651,0
440,-0.549316,45.3312,0
442,-0.539307,44.1705,0
444,-0.559326,43.2682,0
446,-0.589294,41.9397,0
448,-0.559326,40.5017,0
450,-0.619324,39.7803,927.65
452,-0.559326,39.0142,0
454,-0.529297,38.2501,0
456,-0.559326,37.2516,0
458,-0.529297,37.0197,0
460,-0.569275,36.9257,0
462,-0.519287,36.662,0
464,-0.549316,35.0708,0
466,-0.579285,33.871,0
468,-0.559326,33.1995,0
470,-0.539307,32.5378,0
472,-0.559326,32.1259,0
474,-0.559326,32.3322,0
476,-0.569275,31.7425,0
478,-0.629272,31.2585,0
480,-0.589294,30.0114,898.65
482,-0.549316,29.9931,0
484,-0.569275,29.7078,0
486,-0.569275,29.1883,0
488,-0.549316,28.981,0
489,-0.539307,28.9921,0

File: UClan_Cone_65kW_1.csv
Time,Mass,HRR,Back Surface Temperature 1
[s],[g],[kW/m2],[K]
0,71.12,1.61E-07,323.65
2,71.2,0.263535,0
4,71.1699,0.368965,0
6,71.1599,0.421286,0
8,71.1699,0.442209,0
10,71.1699,0.348698,0
12,71.0399,2.36251,0
14,70.8201,25.4142,0
16,70.5002,85.805,0
18,70.0303,178.858,0
20,69.7603,251.669,0
22,69.3805,336.47,0
24,68.9005,389.826,0
26,68.5007,452.738,0
28,68.0109,497.036,0
30,67.571,547.367,332.15
32,67.1012,590.839,0
34,66.6013,598.454,0
36,66.1514,604.082,0
38,65.6316,599.624,0
40,65.1516,650.939,0
42,64.6119,650.458,0
44,64.142,651.585,0
46,63.6821,673.944,0
48,63.1823,657.029,0
50,62.6624,667.466,0
52,62.1625,673.102,0
54,61.6328,656.541,0
56,61.1729,643.808,0
58,60.623,649.501,0
60,60.1631,685.364,342.15
62,59.6632,667.844,0
64,59.1934,682.464,0
66,58.5836,705.161,0
68,58.0337,674.426,0
70,57.5939,703.115,0
72,57.104,693.238,0
74,56.5942,723.4,0
76,56.0243,687.476,0
78,55.4945,681.39,0
80,55.0046,678.501,0
82,54.4648,707.562,0
84,53.8949,728.713,0
86,53.415,695,0
88,52.8452,730.603,0
90,52.3354,704.746,353.65
92,51.8256,720.755,0
94,51.1957,744.396,0
96,50.7258,715.978,0
98,50.196,717.156,0
100,49.6661,727.549,0
102,49.1663,718.26,0
104,48.6066,725.355,0
106,48.0266,741.872,0
108,47.4368,706.048,0
110,46.917,717.468,0
112,46.3271,760.341,0
114,45.8073,756.631,0
116,45.2175,722.909,0
118,44.6476,778.474,0
120,44.0778,751.889,378.15
122,43.528,786.043,0
124,42.8881,770.293,0
126,42.3383,801.318,0
128,41.6785,768.203,0
130,41.1087,771.104,0
132,40.5588,806.716,0
134,39.8491,817.668,0
136,42.8781,783.906,0
138,47.4568,856.056,0
140,46.817,818.977,0
142,45.9872,822.432,0
144,45.3174,831.113,0
146,44.3477,853.789,0
148,43.0981,890.895,0
150,34.4406,849.217,405.65
152,33.7308,932.891,0
154,33.061,916.76,0
156,32.3712,869.504,0
158,31.7214,922.599,0
160,30.9716,938.182,0
162,30.2618,905.803,0
164,29.5519,966.044,0
166,28.8222,908.992,0
168,28.1524,979.641,0
170,27.4626,933.696,0
172,26.7628,976.716,0
174,26.063,954.405,0
176,25.3832,964.168,0
178,24.6635,977.809,0
180,23.9436,965.672,436.15
182,23.2138,901.461,0
184,22.4741,926.436,0
186,21.7343,965.08,0
188,20.9545,1010.53,0
190,20.2247,1018.57,0
192,19.4349,996.065,0
194,18.6851,963.049,0
196,17.9254,1027.79,0
198,17.0856,1088.4,0
200,16.3358,1006.51,0
202,15.5361,1065.99,0
204,14.8262,1099.51,0
206,14.1964,1111.42,0
208,13.5966,1112.96,0
210,13.0867,1108.24,469.65
212,12.5869,1052.17,0
214,12.227,991.749,0
216,11.8571,867.47,0
218,11.4772,787.474,0
220,11.0974,711.933,0
222,10.8274,654.565,0
224,10.4975,619.445,0
226,10.1576,545.147,0
228,9.83771,530.725,0
230,9.51776,517.059,0
232,9.17792,482.716,0
234,8.89795,477.426,0
236,8.6181,466.768,0
238,8.34814,461.789,0
240,8.0882,456.385,530.15
242,7.82825,438.744,0
244,7.55835,447.297,0
246,7.32843,438.623,0
248,7.05847,414.432,0
250,6.90857,406.416,0
252,6.70862,395.112,0
254,6.49866,373.449,0
256,6.30872,359.545,0
258,6.14874,336.452,0
260,5.9588,320.61,0
262,5.77887,307.401,0
264,5.60895,297.404,0
266,5.45898,287.664,0
268,5.33899,279.617,0
270,5.12903,270.278,703.65
272,4.98914,259.91,0
274,4.82916,259.325,0
276,4.70917,261.724,0
278,4.5592,250.603,0
280,4.43921,258.576,0
282,4.28931,248.292,0
284,4.109375,244.226,0
286,3.98944,243.23,0
288,3.84943,241.505,0
290,3.6795,237.787,0
292,3.53955,233.559,0
294,3.43951,231.929,0
296,3.26959,232.02,0
298,3.16962,231.062,0
300,3.03967,226.203,1003.15
302,2.92975,228.95,0
304,2.71979,222.295,0
306,2.67981,217.45,0
308,1.61011,212.262,0
310,2.55975,208.357,0
312,2.45984,206.883,0
314,2.36987,199.396,0
316,2.25989,194.465,0
318,2.16992,192.52,0
320,2.05994,189.577,0
322,1.94995,184.376,0
324,1.86005,184.542,0
326,1.78003,184.496,0
328,1.69,183.108,0
330,1.57007,182.428,1087.15
332,1.4801,178.95,0
334,1.41016,177.745,0
336,1.32013,173.878,0
338,1.24023,171.61,0
340,1.11023,170.943,0
342,1.03027,167.104,0
344,0.940247,164.074,0
346,0.860291,160.614,0
348,0.780334,155.788,0
350,0.700317,151.855,0
352,0.660339,149.542,0
354,0.600403,148.681,0
356,0.530396,146.729,0
358,0.470398,144.898,0
360,0.400452,145.876,1060.65
362,0.330444,139.167,0
364,0.250427,138.592,0
366,0.220459,130.484,0
368,0.140503,129.577,0
370,0.110535,127.437,0
372,0.0305176,125.233,0
374,-0.01940918,119.6,0
376,-0.109436,116.801,0
378,-0.109436,114.784,0
380,-0.159424,109.948,0
382,-0.109436,106.402,0
384,-0.149414,99.0463,0
386,-0.159424,95.11,0
388,-0.339355,91.9117,0
390,-0.289368,88.0049,994.15
392,-0.259338,85.4649,0
394,-0.23938,82.0794,0
396,-0.329346,79.0201,0
398,-0.349365,76.2777,0
400,-0.299377,75.1683,0
402,-0.359375,72.9593,0
404,-0.359375,71.2198,0
406,-0.419373,69.0395,0
408,-0.419373,66.306,0
410,-0.399353,64.7549,0
412,-0.479309,63.7455,0
414,-0.399353,61.7481,0
416,-0.439331,59.0129,0
418,-0.479309,58.5152,0
420,-0.479309,56.5315,983.15
422,-0.44928,56.5411,0
424,-0.45929,54.9136,0
426,-0.45929,53.2912,0
428,-0.479309,51.238,0
430,-0.489319,48.943,0
432,-0.509277,49.0494,0
434,-0.499329,48.9522,0
436,-0.519287,47.7486,0
438,-0.489319,46.7651,0
440,-0.549316,45.3312,0
442,-0.539307,44.1705,0
444,-0.559326,43.2682,0
446,-0.589294,41.9397,0
448,-0.559326,40.5017,0
450,-0.619324,39.7803,927.65
452,-0.559326,39.0142,0
454,-0.529297,38.2501,0
456,-0.559326,37.2516,0
458,-0.529297,37.0197,0
460,-0.569275,36.9257,0
462,-0.519287,36.662,0
464,-0.549316,35.0708,0
466,-0.579285,33.871,0
468,-0.559326,33.1995,0
470,-0.539307,32.5378,0
472,-0.559326,32.1259,0
474,-0.559326,32.3322,0
476,-0.569275,31.7425,0
478,-0.629272,31.2585,0
480,-0.589294,30.0114,898.65
482,-0.549316,29.9931,0
484,-0.569275,29.7078,0
486,-0.569275,29.1883,0
488,-0.549316,28.981,0
489,-0.539307,28.9921,0

File: UClan_DSC_N2_10K.csv
Time,Temperature,Heat Flow
[s],[K],[W/g]
0,309.042,-0.163522
40,314.009,-0.315116
80,320.326,-0.324401
120,326.832,-0.305509
160,333.35,-0.277392
200,339.859,-0.248109
240,346.359,-0.211112
280,352.837,-0.175878
320,359.336,-0.134478
360,365.858,-0.0882832
400,372.374,-0.0482526
440,378.928,-0.005037376
480,385.473,0.0416991
520,392.045,0.0827182
560,398.62,0.116189
600,405.225,0.171206
640,411.853,0.238724
680,418.496,0.303579
720,425.146,0.36
760,431.809,0.423142
800,438.493,0.477358
840,445.19,0.539298
880,451.888,0.594156
920,458.593,0.656639
960,465.312,0.728264
1000,472.042,0.805493
1040,478.768,0.857773
1080,485.512,0.9234
1120,492.262,0.98974
1160,499.018,1.07819
1200,505.787,1.15515
1240,512.54,1.23765
1280,519.291,1.28449
1320,526.049,1.3422
1360,532.806,1.3837
1400,539.57,1.4334
1440,546.326,1.46377
1480,553.095,1.48992
1520,559.874,1.51613
1560,566.629,1.47816
1600,573.372,1.50748
1640,580.104,1.54148
1680,586.822,1.58086
1720,593.515,1.58841
1760,600.196,1.56315
1800,606.854,1.50761
1840,613.481,1.38931
1880,620.09,1.24602
1920,626.682,1.05092
1960,633.289,0.928654
2000,639.927,1.0948
2040,646.624,1.72701
2080,653.364,3.55396
2120,660.152,7.32435
2160,666.921,13.6669
2200,673.696,22.6421
2240,680.42,32.277
2280,687.131,40.2369
2320,693.816,45.6822
2360,700.46,48.7628
2400,707.109,50.7936
2440,713.729,52.7682
2480,720.317,52.8128
2520,726.914,52.816
2560,733.512,51.8295
2600,740.096,51.0367
2640,746.685,50.2033
2680,753.288,49.901
2720,759.889,49.5164
2760,766.495,48.8676
2800,773.099,48.0672
2840,779.713,47.8568
2880,786.306,47.3088
2920,792.897,46.5876
2960,799.492,45.6161
3000,806.1,44.5149
3040,812.691,43.634
3080,819.26,42.4322
3120,825.838,41.7661
3160,832.425,41.4556
3200,839.001,40.5857
3240,845.572,40.2972
3280,852.117,39.6869
3320,858.657,38.7401
3360,865.196,37.7744
3400,871.731,36.6027
3440,878.261,35.5104
3480,884.792,33.9261
3520,891.325,32.3398
3560,897.852,31.0709
3600,904.386,29.5272
3640,910.912,27.9972
3680,917.439,25.7987
3720,923.969,24.2359
3760,930.498,22.8944
3800,937.029,21.4633
3840,943.56,20.3107
3880,950.096,19.2067
3920,956.615,18.5774
3960,963.139,17.3698