Folder: matl-db/PMMA/Calibration_Data/UDRI

Note: PMMA/Calibration_Data/UDRI/README.md
# University of Dayton Research Institute (UDRI)

### Experimental Conditions, TGA

* Heating Rate: 10 K/min
* Temperature program
  - Initial Temperature: 298.15 K
  - Initial Isotherm: None  
  - Maximum Temperature: 1123.15 K
  - Final Isotherm: None
* Sample mass: 6.63 - 7.16 mg
* Sample geometry: Powdered
* Calibration type: None [?]
* Crucible
  - Type: Platinum
  - Volume: None
  - Diameter: None
  - Mass: None
  - Lid: None
  - Note: None
* Carrier Gas
  - Type: Nitrogen
  - Flow rate: None [?]
  - Note: None
* Instrument
  - Type: None [?]
  - Note: None

###### Tests Conducted in Nitrogen 

|Test Name | Initial Sample Mass (mg)|  
|----------|:------:|  
|UDRI\_TGA\_N2\_10K\_1 | 7.157|  
|UDRI\_TGA\_N2\_10K\_2 | 6.630|  
|UDRI\_TGA\_N2\_10K\_3 | 6.906|  



### Experimental Conditions, Cone calorimeter
* Extraction flow rate: 24L/s
* Sample Surface Area: 0.00884
* Sample holder dimensions:
    - Square pan: 106mm x 106mm x 25mm
    - Retainer frame: 111mm x 111mm x 54mm (opening dimensions: 94mm x 94mm)
    - Retaining grid: 2mm grid, 20mm spacing
* Backing Insulation: Ceramic wool thermal conductivity (measured via guarded hot plate:  0.04 W/m-K at  30 C) 
* Sample back side temperature was not measured. 
* Note - Aluminum foil damaged in many tests, so mass losses appear to be more than 100% as some of the aluminum foil was oxidized/lost during testing



###### Test Heating Conditions  
|Test Name | Heat Flux (kW/m2)| Heater Temperature (K) 
|----------|:------:| :---: |
|UDRI\_Cone\_25kW\_1 | 25| 856  
|UDRI\_Cone\_25kW\_2 | 25| 856  
|UDRI\_Cone\_25kW\_3 | 25| 856  
|UDRI\_Cone\_65kW\_1 | 65| 1110  
|UDRI\_Cone\_65kW\_2 | 65| 1110
|UDRI\_Cone\_65kW\_3 | 65| 1110  
|UDRI\_Cone\_65kW\_4 | 65| 1110

File: UDRI_Cone_25kW_1.csv
Time,Mass,HRR
[s],[g],[kW/m2]
0,71.62,0.511768
3,71.7127,0.83262
6,71.5023,2.35232
9,71.4556,3.88916
12,71.4278,-0.288754
15,71.3981,0.345357
18,71.3855,3.01178
21,71.3376,1.99104
24,71.344,1.64926
27,71.3069,5.04718
30,71.3166,1.45459
33,71.2913,-0.4582
36,71.2984,2.27759
39,71.3128,0.647345
42,71.2627,-0.730961
45,71.2586,0.0685247
48,71.2517,-1.24544
51,71.24113,0.207195
54,71.2664,1.70846
57,71.2038,2.50019
60,71.2214,0.68413
63,71.2255,2.66747
66,71.2253,2.58915
69,71.573,-1.81761
72,71.1689,-0.166749
75,71.1751,1.59768
78,71.1598,1.02894
81,71.2739,-2.31871
84,71.2042,-2.67807
87,71.1303,0.119893
90,71.1598,-1.99476
93,71.1257,-2.35394
96,71.1488,-0.779227
99,71.0975,0.689607
102,71.0466,-2.31686
105,71.0491,1.40108
108,70.8401,15.9847
111,70.6681,38.6618
114,70.4358,94.1572
117,70.1343,146.538
120,69.8548,178.09
123,69.5436,206.53
126,69.2316,226.766
129,68.8763,242.691
132,68.5562,250.943
135,68.2276,265.83
138,67.8342,274.681
141,67.4696,279.907
144,67.1177,285.145
147,66.7261,292.311
150,66.341,299.12
153,65.9681,302.619
156,65.557,300.482
159,65.2011,311.69
162,64.7897,320.409
165,64.3489,325.243
168,63.9933,330.353
171,63.5032,336.571
174,63.1012,338.897
177,62.6761,345.714
180,62.2323,349.702
183,61.8105,353.252
186,61.381,355.015
189,60.9026,362.092
192,60.4481,372.908
195,59.9832,365.368
198,59.5104,380.725
201,59.07,373.7
204,58.6081,367.81
207,58.0972,373.703
210,57.606,381.307
213,57.1601,402.248
216,56.6452,388.847
219,56.1913,395.184
222,55.6686,406.056
225,55.1867,404.808
228,54.6962,401.427
231,54.2269,406.702
234,53.72088,408.573
237,53.1547,416.43
240,52.6519,423.577
243,52.1584,423.483
246,51.6807,431.065
249,51.0727,428.348
252,50.562,436.752
255,50.058,440.972
258,49.5304,444.196
261,48.9672,443.417
264,48.4142,443.912
267,47.8533,440.219
270,47.2699,457.73
273,46.71433,473.012
276,46.1044,461.231
279,45.4771,492.55
282,44.9307,474.093
285,44.3171,476.005
288,43.7528,493.349
291,43.1047,502.58
294,42.4945,492.877
297,41.8647,503.862
300,41.2277,542.487
303,40.61044,524.617
306,39.9771,528.601
309,39.3568,533.053
312,38.6787,526.197
315,38.0705,522.246
318,37.4135,530.401
321,36.7899,534.076
324,36.102,526.924
327,35.4872,533.794
330,34.8604,521.563
333,34.2051,538.758
336,33.5768,525.139
339,32.9214,544.744
342,32.2506,537.385
345,31.5768,536.281
348,30.9118,566.206
351,30.225,541.101
354,29.6316,545.726
357,28.9042,565.154
360,28.2153,562.31
363,27.5134,566.856
366,26.8688,573.695
369,26.1535,565.068
372,25.4451,578.115
375,24.7496,581.104
378,24.0139,584.586
381,23.3422,594.184
384,22.5953,605.76
387,21.8408,592.119
390,21.1251,599.149
393,20.3933,604.636
396,19.6767,604.198
399,18.9283,585.654
402,18.1535,635.743
405,17.4747,618.704
408,16.6925,634.591
411,15.9184,617.425
414,15.1905,613.965
417,14.4168,616.763
420,13.669,634.288
423,12.8961,640.519
426,12.127,642.66
429,11.3625,627.522
432,10.5903,627.07
435,9.785067,644.058
438,8.964236,677.995
441,8.19208,655.16
444,7.42666,639.703
447,6.661319,652.784
450,5.923776,634.25
453,5.185112,627.114
456,4.431664,637.729
459,3.742471,625.495
462,3.0609,613.379
465,2.42335,599.499
468,1.867296,575.819
471,1.266314,536.092
474,0.783778,505.149
477,0.300187,471.01
480,-0.083622,460.791
483,-0.29299,434.777
486,-0.377376,341.889
489,-0.411835,215.233
492,-0.45907,121.552
495,-0.47084,74.2447
498,-0.535458,51.5065
501,-0.493212,38.2111
504,-0.545748,28.4453
507,-0.567853,23.3369
510,-0.610025,21.6366
513,-0.572635,18.2144
516,-0.582792,14.4433
519,-0.621318,16.0903
522,-0.499194,11.7758
525,-0.532752,7.33519
528,-0.508141,7.75152
531,-0.519055,5.19608
534,-0.513002,-0.128599
537,-0.521595,1.56258
540,-0.536999,1.9359
543,-0.54156,-1.56007
546,-0.522577,-0.0818131
549,-0.515718,2.7242
552,-0.498446,-0.909505
555,-0.521588,-1.94451
558,-0.519631,-1.94578
561,-0.520275,-1.85421
564,-0.549831,-3.56388
567,-0.479423,-0.657734
570,-0.498993,-1.68582
573,-0.502529,-2.17822
576,-0.53181,-0.206839
579,-0.562756,0.440484
582,-0.521716,-1.18456
585,-0.493052,-0.582434
588,-0.539384,1.73776
591,-0.495091,-1.781
594,-0.542441,-2.40089
597,-0.535572,-0.509019
600,-0.503817,0.674516
603,-0.57532,-2.93188
606,-0.530214,-0.703608
609,-0.542398,1.76458
610,-0.526207,0.023065

File: UDRI_Cone_25kW_2.csv
Time,Mass,HRR
[s],[g],[kW/m2]
0,74.09,1.93226
3,73.7835,6.84988
6,73.9203,8.3331
9,73.9238,5.54537
12,73.9026,3.04961
15,73.8884,4.96565
18,73.8729,3.60236
21,73.88568,5.23973
24,73.8822,2.20375
27,73.8771,3.42663
30,73.867,-0.519523
33,73.8563,2.68968
36,73.841,-0.563873
39,73.8384,1.58454
42,73.8225,-2.63349
45,73.8152,0.321699
48,73.81859,-2.51229
51,73.8022,1.17944
54,73.7988,-2.37537
57,73.7976,0.92317
60,73.77527,-2.78106
63,73.786,1.6865
66,73.7846,-1.03024
69,73.7857,3.22192
72,73.7626,0.855315
75,73.7659,3.42923
78,73.76052,-0.152784
81,73.753,1.88032
84,73.7358,-2.18352
87,73.7403,2.55335
90,73.7376,1.34552
93,73.719,2.7818
96,73.7134,-0.0169904
99,73.7096,0.545154
102,73.6707,0.0638873
105,73.6599,-0.006527707
108,73.6162,-3.16298
111,73.5328,-8.08215
114,73.3757,8.36741
117,73.2069,44.6111
120,72.92494,92.4219
123,72.6013,138.414
126,72.282,193.104
129,71.9396,222.607
132,71.5824,242.226
135,71.231,268.252
138,70.83688,283.505
141,70.4517,284.708
144,70.0659,302.475
147,69.6596,313.858
150,69.2416,324.334
153,68.8257,320.749
156,68.4122,330.12
159,67.9775,329.544
162,67.5846,334.201
165,67.1454,342.363
168,66.6709,340.266
171,66.2049,350.2339
174,65.7466,372.199
177,65.2587,376.543
180,64.78174,381.797
183,64.3047,384.243
186,63.8293,395.123
189,63.334,402.71
192,62.823,393.434
195,62.32914,403.31
198,61.8283,394.836
201,61.3178,414.695
204,60.8151,417.436
207,60.2802,418.46
210,59.7927,409.923
213,59.2579,419.596
216,58.73747,405.754
219,58.1811,430.952
222,57.6605,437.304
225,57.0901,438.622
228,56.5417,433.89
231,56.0267,443.981
234,55.4616,458.45
237,54.9198,435.764
240,54.3463,460.236
243,53.7685,446.331
246,53.228,456.131
249,52.63287,463.709
252,52.0561,468.572
255,51.4496,465.929
258,50.8797,475.971
261,50.2691,475.945
264,49.6718,486.375
267,49.078,483.418
270,48.4531,485.468
273,47.8409,492.27
276,47.2132,491.821
279,46.6005,510.757
282,45.9665,511.152
285,45.33706,505.161
288,44.6723,518.165
291,44.028,525.049
294,43.3825,505.982
297,42.7367,514.708
300,42.0391,540.963
303,41.3852,537.346
306,40.7143,524.085
309,40.0557,525.328
312,39.3658,540.536
315,38.6777,553.264
318,37.983,550.073
321,37.3058,550.979
324,36.6178,559.256
327,35.9403,579.749
330,35.2507,547.844
333,34.56194,562.877
336,33.84758,567.314
339,33.1522,579.052
342,32.4561,572.371
345,31.7675,552.911
348,31.0314,568.675
351,30.3266,547.491
354,29.6189,574.725
357,28.90789,576.459
360,28.1589,581.762
363,27.4328,599.85
366,26.6993,587.368
369,25.9463,607.618
372,25.2137,618.286
375,24.4467,605.987
378,23.66008,608.469
381,22.8749,607.5
384,22.0847,616.461
387,21.2741,627.729
390,20.4807,679.072
393,19.6847,662.6
396,18.9054,663.272
399,18.1121,665.102
402,17.3005,652.351
405,16.5096,665.306
408,15.7093,628.899
411,14.8992,635.744
414,14.0914,687.364
417,13.3047,644.835
420,12.50359,642.864
423,11.6925,670.927
426,10.8658,654.493
429,10.0593,646.072
432,9.239422,678.562
435,8.458044,671.086
438,7.648026,647.817
441,6.869906,642.954
444,6.10893,647.864
447,5.36872,641.43
450,4.63607,656.327
453,3.900314,628.099
456,3.229861,634.038
459,2.578121,617.071
462,1.995182,582.576
465,1.466687,542.315
468,0.985191,519.848
471,0.607978,476.526
474,0.300952,427.067
477,0.083673,347.054
480,-0.078864,282.935
483,-0.200159,224.91
486,-0.361125,162.957
489,-0.461975,136.447
492,-0.546835,109.1
495,-0.616478,91.708
498,-0.675278,71.4741
501,-0.704101,60.3909
504,-0.742407,44.564
507,-0.753097,34.937
510,-0.768296,23.5599
513,-0.744223,16.4862
516,-0.684024,9.91351
519,-0.741941,5.3078
522,-0.71179,1.48838
525,-0.703371,2.6313
528,-0.682214,2.13046
531,-0.706954,1.09572
534,-0.70477,0.56543
537,-0.700808,-0.397418
540,-0.691417,0.807305
543,-0.70513,-0.474017
546,-0.712262,0.0601595
549,-0.70527,-0.53359
552,-0.713697,1.63843
555,-0.716309,-0.675345
558,-0.702376,2.54762
561,-0.705842,1.09333
564,-0.703274,4.55622
567,-0.715975,0.474496
570,-0.71,2.68179
573,-0.714306,-0.0255592
576,-0.714901,3.36881
579,-0.712367,-1.37152
582,-0.722065,1.68814
585,-0.72742,-1.67879
588,-0.734152,2.48197
591,-0.727395,-0.902612
594,-0.725867,2.44947
597,-0.734054,-1.26337
600,-0.733925,0.993137
603,-0.734313,-1.45513
606,-0.743,1.92556
609,-0.735206,-0.783233
610,-0.738226,0.825467

File: UDRI_Cone_25kW_3.csv
Time,Mass,HRR
[s],[g],[kW/m2]
0,70.85,-3.83413
3,70.7123,0.725819
6,70.6451,-0.647577
9,70.6352,2.03833
12,70.6414,-0.667752
15,70.6238,3.50029
18,70.6052,-0.565028
21,70.5871,1.4701
24,70.576,-1.51351
27,70.57653,0.849243
30,70.5687,-2.31212
33,70.5473,-0.126322
36,70.56033,-2.70893
39,70.5555,-1.07951
42,70.5316,-3.90925
45,70.5421,-0.298609
48,70.5281,-2.11731
51,70.4996,-0.148557
54,70.4924,-2.63939
57,70.4848,-0.431183
60,70.4922,0.118029
63,70.4717,-0.694211
66,70.4692,-1.70857
69,70.45733,-1.81074
72,70.4617,-1.07387
75,70.45119,-2.43938
78,70.4423,-1.04459
81,70.4461,-3.00709
84,70.4351,-1.78425
87,70.4183,-3.57423
90,70.4152,-1.02459
93,70.39795,-3.67245
96,70.3772,-0.548568
99,70.368,-3.93553
102,70.3507,-0.588432
105,70.31057,-2.92651
108,70.3071,-2.10096
111,70.2009,-12.8636
114,70.1185,-9.03253
117,69.9022,24.6106
120,69.6446,81.311
123,69.3176,133.777
126,68.9466,198.905
129,68.5924,240.302
132,68.2493,263.698
135,67.832,268.724
138,67.4571,290.335
141,67.0201,305.492
144,66.6383,313.065
147,66.23086,318.9
150,65.8035,322.396
153,65.365,331.186
156,64.9335,341.559
159,64.5209,341.48
162,64.063,351.788
165,63.6185,344.398
168,63.1686,362.94
171,62.7081,362.422
174,62.2324,369.117
177,61.7416,377.092
180,61.2647,377.586
183,60.7782,386.911
186,60.2835,407.179
189,59.7708,407.294
192,59.2518,396.255
195,58.759,398.122
198,58.2753,406.762
201,57.7792,407.459
204,57.2448,409.33
207,56.7388,421.289
210,56.1706,416.66
213,55.6335,436.405
216,55.1252,434.797
219,54.57725,444.1
222,54.0454,431.586
225,53.4937,432.026
228,52.932,434.958
231,52.3649,430.284
234,51.8206,454.18
237,51.2292,470.21
240,50.6597,449.175
243,50.0814,476.17
246,49.5534,466.072
249,48.9368,485.854
252,48.352,457.807
255,47.7482,484.498
258,47.1759,482.685
261,46.5686,489.839
264,45.9683,495.335
267,45.3734,479.692
270,44.7679,477.717
273,44.1429,489.539
276,43.5019,502.959
279,42.8815,505.46
282,42.2379,523.658
285,41.6043,510.897
288,40.9299,516.41
291,40.3081,516.042
294,39.6364,522.105
297,38.9968,528.628
300,38.3114,548.562
303,37.6621,537.45
306,36.9931,536.678
309,36.3334,537.343
312,35.6648,518.617
315,34.9818,557.327
318,34.3045,567.526
321,33.6177,533.963
324,32.94698,561.805
327,32.2803,555.956
330,31.61409,549.819
333,30.8978,564.91
336,30.2235,562.368
339,29.5247,565.532
342,28.8399,580.323
345,28.1259,560.137
348,27.4174,570.504
351,26.73,555.889
354,26.0321,574.043
357,25.3013,571.144
360,24.5912,574.722
363,23.8422,591.387
366,23.1069,601.345
369,22.3375,602.894
372,21.5633,599.392
375,20.80479,638.139
378,20.026,623.413
381,19.2327,611.553
384,18.4753,654.001
387,17.69422,619.536
390,16.9377,662.609
393,16.1468,635.946
396,15.3898,643.863
399,14.5648,640.542
402,13.82257,623.278
405,13.0315,643.492
408,12.2524,645.296
411,11.4709,645.732
414,10.7172,619.815
417,9.946164,653.065
420,9.189146,636.703
423,8.459868,652.74
426,7.763793,609.363
429,7.06447,583.725
432,6.3808,585.041
435,5.672549,585.148
438,5.005368,579.803
441,4.32425,572.614
444,3.643245,571.816
447,3.008778,582.634
450,2.416908,566.103
453,1.83084,533.868
456,1.293059,496.681
459,0.811252,512.691
462,0.406174,489.39
465,0.067895,439.554
468,-0.171552,379.843
471,-0.397658,310.347
474,-0.551603,237.803
477,-0.665889,188.034
480,-0.721912,145.384
483,-0.746343,102.974
486,-0.778635,67.4734
489,-0.77714,45.5777
492,-0.814947,32.2468
495,-0.828607,23.3954
498,-0.850286,18.9319
501,-0.86953,14.0496
504,-0.875405,13.5059
507,-0.870255,9.6868
510,-0.888395,10.6711
513,-0.898763,6.93509
516,-0.44773,7.06243
519,-0.834673,2.27321
522,-0.831019,3.71769
525,-0.817889,1.4679
528,-0.821763,4.0874
531,-0.828917,0.327802
534,-0.82256,3.22339
537,-0.817362,-1.30872
540,-0.854266,1.53245
543,-0.825098,-0.687323
546,-0.835093,2.33306
549,-0.839996,-0.745697
552,-0.841277,2.30222
555,-0.832227,-0.774987
558,-0.837104,2.80813
561,-0.827889,-0.833325
564,-0.832519,0.38103
567,-0.829442,-0.626029
570,-0.832696,2.51155
573,-0.824228,0.830818
576,-0.837889,2.35503
579,-0.84153,1.00317
582,-0.834121,1.72791
585,-0.839961,2.68682
588,-0.836366,3.15318
591,-0.836901,1.80004
594,-0.861575,1.03067
597,-0.828153,0.396015
600,-0.853019,0.266224
603,-0.85889,1.52652
606,-0.832875,0.25664
609,-0.839216,2.11324
611,-0.843889,2.23128

File: UDRI_Cone_65kW_1.csv
Time,Mass,HRR
[s],[g],[kW/m2]
0,72.47,0.109528
2,73.176,0.746082
4,73.1109,2.27148
6,73.1819,0.501485
8,73.1778,3.39107
10,73.1545,1.20638
12,73.0964,2.11246
14,73.1484,2.20238
16,73.1117,-10.5395
18,72.9519,-28.8309
20,72.6938,-44.418
22,72.6662,-3.6422
24,72.1142,108.319
26,71.674,240.102
28,71.2639,320.804
30,70.8142,420.181
32,70.3472,454.082
34,69.8546,511.354
36,69.378,520.757
38,68.8802,547.363
40,68.3312,555.313
42,67.8375,581.002
44,67.31353,590.266
46,66.8205,601.182
48,66.2778,620.729
50,65.7187,628.459
52,65.1111,672.852
54,64.6143,658.212
56,64.0698,672.636
58,63.4525,647.649
60,62.8841,651.073
62,62.3492,677.083
64,61.8058,685.186
66,61.2229,671.038
68,60.5933,653.914
70,60.07516,709.808
72,59.5262,698.324
74,58.9593,689.083
76,58.3457,687.053
78,57.75959,761.066
80,57.1554,695.205
82,56.6068,713.206
84,56.022,706.013
86,55.39015,729.091
88,54.7909,703.171
90,54.1577,724.726
92,53.61798,721.651
94,52.9907,750.638
96,52.328,727.518
98,51.6643,757.881
100,51.099,796.984
102,50.38898,774.982
104,49.7327,756.739
106,49.15368,795.411
108,48.485,797.056
110,47.8424,777.931
112,47.2058,777.721
114,46.5234,839.472
116,45.8268,831.368
118,45.158,869.289
120,44.5117,826.745
122,43.8242,835.792
124,43.1032,810.034
126,42.4119,858.77
128,41.6998,855.05
130,40.9964,844.493
132,40.3522,902.109
134,39.6066,842.678
136,38.7884,824.702
138,38.1409,936.584
140,37.4122,885.597
142,36.6068,907.958
144,35.85483,894.226
146,35.0411,923.007
148,34.3201,975.447
150,33.5404,982.284
152,32.7836,946.033
154,31.9287,979.812
156,31.04851,1017.06
158,30.2694,981.717
160,29.33883,890.667
162,28.5522,1073.98
164,27.6969,1112.05
166,26.8048,1046.79
168,25.8975,1127.56
170,25.0569,975.167
172,24.0995,1097.41
174,23.2522,1128.65
176,22.3751,1189.54
178,21.4641,1092.27
180,20.5689,1215.35
182,19.7072,1020.12
184,18.8079,1078.45
186,17.9339,1121.9
188,17.0036,1130.07
190,16.1382,1072.32
192,15.1868,1052.9
194,14.1862,1142.05
196,13.1706,1166.23
198,12.2602,1215.76
200,11.1931,1317.09
202,10.1586,1304.43
204,9.148497,1223
206,8.114917,1258.73
208,7.125219,1243.25
210,6.130058,1196.08
212,5.150454,1290.1
214,4.292889,1348.11
216,3.520685,1314.87
218,2.849543,1335.07
220,2.424434,1188.96
222,2.044911,1071.48
224,1.738642,933.907
226,1.495353,772.63
228,1.228438,622.149
230,1.11107,502.458
232,0.949351,419.455
234,0.86231,307.16
236,0.840415,236.611
238,0.675142,191.179
240,0.689884,160.629
242,0.558583,130.936
244,0.585401,115.938
246,0.513695,101.359
248,0.462751,91.7222
250,0.385086,81.1368
252,0.363338,78.1167
254,0.32662,70.6364
256,0.302645,64.2177
258,0.306099,56.7516
260,0.241469,48.6157
262,0.167352,43.1084
264,0.197192,36.9765
266,0.185077,36.193
268,0.176893,29.7677
270,0.179981,28.3806
272,0.126022,24.1144
274,0.165318,23.8093
276,0.032211,18.1323
278,0.260479,17.6392
280,0.031418,12.0894
282,0.211209,9.12851
284,0.18025,8.24028
286,0.211519,7.17972
288,0.217103,7.15775
290,0.176415,6.81021
292,0.157727,8.95502
294,0.185041,7.78014
296,0.15688,6.76201
298,0.205248,4.56986
300,0.142167,6.84885
302,0.144532,5.05782
304,0.148609,6.74515
306,0.154688,5.32001
308,0.178932,7.60981
310,0.153366,4.71802
312,0.134382,8.612
314,0.162272,5.52634
316,0.137734,7.96133
318,0.168676,6.31992
320,0.137212,7.4172
322,0.169299,6.61741
324,0.197242,6.28564
326,0.124558,6.94133
328,0.073655,6.12146
330,0.14307,7.70453
332,0.130332,4.95431
334,0.1201,8.25813
336,0.121114,6.05363
338,0.192236,7.43378
340,0.078259,6.01901
342,0.135333,7.30688
344,0.112187,5.24058
346,0.177635,7.50723
348,0.127325,5.9634
350,0.098055,4.48447
352,0.145226,7.59947
354,0.08747,6.12911
356,0.128694,9.86759
358,0.133469,6.78219
360,0.101301,8.51482
362,0.113943,6.41228
364,0.096211,6.35111
366,0.079747,7.92371
368,0.069105,6.90166
370,0.120794,8.54866
372,0.045702,5.32124
374,0.080836,7.80954
376,0.024348,6.4103
378,0.068645,8.7741
380,0.017128,5.72561
382,0.027166,6.70213
384,0.001468,6.32516
386,0.007563,5.22836
388,0.064201,8.13466
390,0.060436,6.44908
392,-0.028631,7.82325
394,0.035388,8.26337
396,-0.001325,8.04079
398,0.038653,9.73193
400,0.00768,6.23651
402,0.01557,8.60058
404,-0.007566,6.33019
406,-0.028395,9.33622
408,-0.064848,7.08061
410,-0.045074,9.13226
412,-0.03654,7.16995
414,-0.029576,8.42036
416,-0.035843,7.57241
418,-0.046996,8.74381
420,-0.047421,8.35358
422,-0.026968,8.18211
424,-0.035733,10.4133
426,-0.063893,6.17465
428,-0.088926,8.9928
430,-0.098462,7.44275
432,-0.009397,8.4453
434,-0.062135,7.41861
436,-0.040823,8.09893
438,-0.07385,8.03188
440,-0.094359,5.52337
442,-0.129627,8.98762
444,-0.109641,6.00165
446,-0.075202,9.66184
448,-0.107399,7.62978
450,-0.068556,9.46227
452,-0.119719,7.03479
454,-0.098648,10.3378
456,-0.138154,9.08512
458,-0.117365,11.3218
460,-0.175974,8.42959
462,-0.109805,10.1568

File: UDRI_Cone_65kW_2.csv
Time,Mass,HRR
[s],[g],[kW/m2]
0,69.91,-0.429485
2,70.2741,1.65122
4,70.4565,0.501434
6,70.3774,0.439185
8,70.4532,5.23804
10,70.2883,4.2921
12,70.2135,5.94892
14,70.5392,-0.0137838
16,70.3067,-12.6391
18,69.6852,-38.1346
20,69.7834,-24.5444
22,69.5675,34.1089
24,69.116,145.957
26,68.6735,257.816
28,68.2132,344.097
30,67.8018,431.737
32,67.305,479.256
34,66.8061,533.025
36,66.245,545.662
38,65.773,560.114
40,65.3105,552.063
42,64.8323,582.826
44,64.2264,618.802
46,63.707,604.805
48,63.1687,626.495
50,62.5855,652.045
52,61.9718,700.74
54,61.4743,645.626
56,60.9173,689.788
58,60.2477,704.211
60,59.7094,688.617
62,59.1194,687.299
64,58.5096,725.577
66,57.9196,771.946
68,57.4176,726.513
70,56.74652,741.164
72,56.2232,739.801
74,55.5599,729.746
76,54.9986,704.173
78,54.3321,745.097
80,53.8117,726.703
82,53.1242,706.302
84,52.4728,737.683
86,51.8976,771.794
88,51.2232,770.084
90,50.6179,779.108
92,49.9698,794.561
94,49.2853,763.54
96,48.6782,774.34
98,47.9296,819.904
100,47.2154,774.032
102,46.695,766.175
104,45.9273,822.824
106,45.3332,791.246
108,44.6547,814.275
110,43.9524,817.001
112,43.2837,810.824
114,42.6104,794.394
116,41.9956,844.462
118,41.2038,796.739
120,40.5283,878.406
122,39.8637,861.792
124,39.0882,871.861
126,38.3062,895.112
128,37.65,847.215
130,36.8408,870.746
132,36.1437,853.332
134,35.3891,885.107
136,34.5928,937.318
138,33.8773,966.225
140,33.0688,917.596
142,32.26,898.7
144,31.6058,932.79
146,30.7196,919.653
148,29.80359,929.641
150,29.0222,968.285
152,28.2534,965.37
154,27.356,951.496
156,26.4713,1000.88
158,25.7042,1020.04
160,24.7217,1111.33
162,23.8156,1007.79
164,22.97,1031.41
166,22.1095,1115.68
168,21.1987,1124.07
170,20.3548,988.538
172,19.4346,1083.11
174,18.4489,1026.2
176,17.6165,1117.42
178,16.6536,1035.37
180,15.786,1067.18
182,14.884,1044.2
184,13.9174,1171.89
186,12.9074,1040.87
188,11.8747,1156.01
190,10.7975,1198.95
192,9.749527,1093.21
194,8.670719,1384.29
196,7.681522,1310.42
198,6.679357,1224.94
200,5.554901,1385.66
202,4.617485,1410.81
204,3.654384,1267.69
206,2.747216,1469.7
208,2.117538,1359.24
210,1.620467,1325.8
212,1.132577,1257.07
214,0.878624,1095.91
216,0.640087,838.883
218,0.474859,632.333
220,0.366744,497.033
222,0.176012,371.859
224,0.152677,274.905
226,0.06828,216.923
228,-0.0041,167.754
230,-0.002452,126.213
232,-0.024983,96.625
234,-0.072243,75.4835
236,-0.081461,61.4577
238,-0.089998,51.0712
240,-0.126263,39.3444
242,-0.26565,30.5855
244,-0.067615,23.8056
246,-0.114179,20.4888
248,-0.210678,15.0598
250,-0.110733,12.6406
252,-0.195159,11.1042
254,-0.094476,8.17698
256,-0.126079,6.85414
258,-0.046957,5.02549
260,-0.09485,6.58753
262,-0.10304,4.01548
264,-0.0762,5.95261
266,-0.072637,4.25906
268,-0.17247,4.52659
270,-0.083234,2.54296
272,-0.091533,2.83398
274,-0.103331,1.61613
276,-0.107619,1.90104
278,-0.084467,3.72455
280,-0.096595,0.912315
282,-0.054071,3.14111
284,-0.087444,1.46373
286,-0.109444,0.0554896
288,-0.077422,0.889513
290,-0.055043,-1.53842
292,-0.107513,0.0583704
294,-0.088628,-2.26973
296,-0.098615,0.495168
298,-0.143869,-1.88943
300,-0.080551,1.09631
302,-0.065496,-1.10804
304,-0.114321,1.51651
306,-0.101424,-0.5409707
308,-0.098279,1.03005
310,-0.180094,1.72607
312,-0.108234,-1.11384
314,-0.190436,2.563
316,-0.168061,0.329173
318,-0.163782,1.0819
320,-0.149902,1.41329
322,-0.153483,0.144305
324,-0.194613,0.783124
326,-0.132695,0.0362266
328,-0.14343,1.34787
330,-0.142862,0.162781
332,-0.145078,3.301
334,-0.156035,0.698504
336,-0.240715,1.45602
338,-0.158211,1.94487
340,-0.163865,-0.023396