Folder: matl-db/PMMA/Calibration_Data/UDRI (part 2)

File: UDRI_Cone_65kW_3.csv
Time,Mass,HRR
[s],[g],[kW/m2]
0,73.45,-1.88922
2,72.7107,1.69806
4,72.8584,-0.443663
6,72.907,2.57171
8,72.82943,4.17761
10,72.8366,3.83241
12,72.7804,3.88959
14,72.7634,0.877691
16,72.7526,0.0654758
18,72.7045,-15.4546
20,72.5541,-32.8235
22,72.3409,-43.4552
24,72.0115,13.2743
26,71.6273,141.718
28,71.242,262.291
30,70.7919,347.223
32,70.3456,412.529
34,69.8211,452.433
36,69.3447,502.448
38,68.8447,530.242
40,68.3332,581.519
42,67.8016,596.428
44,67.29016,621.139
46,66.7486,641.935
48,66.269,627.495
50,65.7459,618.107
52,65.1922,644.731
54,64.6262,655.13
56,64.0618,655.738
58,63.5014,658.04
60,62.9186,664.357
62,62.328,698.138
64,61.8031,697.502
66,61.2056,664.95
68,60.6285,712.93
70,60.0124,711.963
72,59.4515,710.156
74,58.875,707.91
76,58.2863,682.628
78,57.6276,692.008
80,57.07476,680.676
82,56.4629,735.273
84,55.8641,712.253
86,55.2579,742.119
88,54.6456,745.051
90,54.008,726.116
92,53.4096,742.692
94,52.7619,723.433
96,52.2282,747.583
98,51.5431,771.027
100,50.833,803.994
102,50.1956,738.709
104,49.5674,761.699
106,48.8954,764.661
108,48.2292,791.421
110,47.51231,820.732
112,46.8672,818.711
114,46.1573,825.948
116,45.4857,822.004
118,44.8123,808.94
120,44.108,836.455
122,43.4429,829.054
124,42.7392,815.242
126,41.9755,819.997
128,41.3216,819.046
130,40.5763,816.776
132,39.8804,851.845
134,39.1834,821.016
136,38.4738,866.421
138,37.74722,921.893
140,37.0407,899.555
142,36.14754,885.586
144,35.4285,926.994
146,34.6614,959.373
148,33.90075,882.269
150,33.1577,977.508
152,32.3954,923.025
154,31.5773,931.786
156,30.7855,970.498
158,30.00748,997.215
160,29.1632,1043.93
162,28.31931,950.244
164,27.5393,1038.75
166,26.6639,987.521
168,25.8246,1156.82
170,24.9337,1034.41
172,24.0626,1003.42
174,23.268,1133.78
176,22.3228,1094.17
178,21.4917,1066.25
180,20.6346,1045.46
182,19.7094,1053.15
184,18.8522,1046.9
186,17.9932,1045.85
188,17.1117,1125.71
190,16.1963,1086.09
192,15.3244,1145.11
194,14.3887,1159.36
196,13.4231,1077.97
198,12.4707,1125.51
200,11.52983,1134.49
202,10.5292,991.261
204,9.545875,1116.34
206,8.548534,1303.77
208,7.526745,1258.98
210,6.486265,1361.11
212,5.529917,1182.42
214,4.534832,1188.27
216,3.50742,1378.08
218,2.607383,1318.41
220,1.855204,1344.11
222,1.224632,1336.3
224,0.725375,1223.89
226,0.404541,1091.39
228,0.096397,929.514
230,-0.169179,747.449
232,-0.283935,567.114
234,-0.417792,439.531
236,-0.599049,363.672
238,-0.709581,300.918
240,-0.866982,244.259
242,-0.938169,200.643
244,-1.021813,176.92
246,-1.051663,155.16
248,-1.082867,130.96
250,-1.10487,102.954
252,-1.116935,76.8996
254,-1.140035,56.8851
256,-1.195633,45.6869
258,-1.180732,36.8686
260,-1.196793,33.8257
262,-1.269,27.8525
264,-1.188801,24.5067
266,-1.250163,21.272
268,-1.307163,21.8006
270,-1.253763,20.0988
272,-1.247269,20.6851
274,-1.049869,16.487
276,-1.361309,16.1349
278,-1.245103,8.64812
280,-1.257845,9.4965
282,-1.236512,6.47962
284,-1.280848,7.47088
286,-1.302038,4.2969
288,-1.281361,5.06859
290,-1.292543,2.26461
292,-1.250767,3.71545
294,-1.297544,1.81321
296,-1.233247,0.709993
298,-1.265402,2.96149
300,-1.293356,-0.597985
302,-1.325485,1.60466
304,-1.281754,-0.581404
306,-1.297922,1.96008
308,-1.311886,-0.58484
310,-1.284593,1.27254
312,-1.320312,-0.807125
314,-1.310374,0.148886
316,-1.304791,-0.203145
318,-1.342023,-1.31248
320,-1.274841,0.803637
322,-1.354102,-1.41689
324,-1.344627,1.39396
326,-1.308516,0.239337
328,-1.322327,2.81889
330,-1.34584,0.0355188
332,-1.34352,1.48504
334,-1.389751,-0.278354
336,-1.328319,-1.09103
338,-1.340716,1.24213
340,-1.344727,3.12823
342,-1.346569,8.05995
344,-1.33674,5.102
346,-1.388998,6.51721
348,-1.373118,3.95296
350,-1.372826,5.6314
352,-1.373718,1.23513
354,-1.36456,2.06394
356,-1.356,-0.258865
358,-1.384505,0.933069
360,-1.381682,-0.174604
362,-1.369995,1.47337
364,-1.489021,-0.0594751
365,-1.491344,-0.368712

File: UDRI_Cone_65kW_4.csv
Time,Mass,HRR
[s],[g],[kW/m2]
0,74.67,-0.333476
2,74.9483,1.92449
4,74.7296,0.694066
6,74.64423,4.37942
8,74.66977,2.49624
10,74.6085,4.65261
12,74.66,2.29403
14,74.5875,-1.29712
16,74.5428,-9.97227
18,74.2834,-28.6219
20,74.1107,-40.3555
22,73.9576,-17.9228
24,73.6733,53.7478
26,73.2877,191.333
28,72.8715,274.094
30,72.4188,366.776
32,71.9593,424.397
34,71.5252,475.851
36,71.0328,496.215
38,70.5087,528.017
40,70.0236,547.552
42,69.51426,582.721
44,69.0588,604.56
46,68.50979,601.622
48,67.9894,610.379
50,67.4368,611.077
52,66.9166,627.928
54,66.3715,679.717
56,65.8336,659.421
58,65.2871,663.621
60,64.791,640.41
62,64.2086,630.119
64,63.6186,654.366
66,63.0515,680.714
68,62.49129,656.796
70,61.9239,670.504
72,61.3561,681.67
74,60.8035,744.394
76,60.1574,693.354
78,59.631,677.366
80,59.04112,685.708
82,58.4076,702.872
84,57.8211,745.447
86,57.2476,744.067
88,56.60924,761.894
90,56.0496,707.77
92,55.4397,746.192
94,54.8682,689.777
96,54.2362,708.187
98,53.5475,729.995
100,52.9382,769.505
102,52.341,763.711
104,51.7049,757.108
106,51.0812,741.774
108,50.3678,752.835
110,49.7783,802.62
112,49.1253,799.804
114,48.385,796.083
116,47.7364,819.315
118,47.0799,797.046
120,46.4356,784.107
122,45.719,785.103
124,45.0492,821.307
126,44.3827,800.842
128,43.7395,882.828
130,42.9385,805.509
132,42.2452,881.999
134,41.5501,863.187
136,40.8421,820.566
138,40.1071,868.9
140,39.39124,863.346
142,38.6722,872.38
144,37.8851,964.804
146,37.1368,856.198
148,36.4601,892.62
150,35.7313,916.283
152,34.939,820.403
154,34.0886,925.502
156,33.34576,904.893
158,32.501,985.266
160,31.7012,856.776
162,30.9097,984.888
164,30.0498,1009.02
166,29.2491,1056.5
168,28.3699,957.437
170,27.5663,962.129
172,26.6587,1027.46
174,25.8107,1019.66
176,24.8899,979.419
178,23.9825,1068.57
180,23.1268,1073
182,22.3068,1114.86
184,21.4153,1194.32
186,20.5531,1174.85
188,19.7422,1010.54
190,18.7855,1031.73
192,17.922,1134.33
194,16.9815,1109.03
196,16.0696,1031.11
198,15.14525,1148.58
200,14.1628,1105.23
202,13.2024,1145.64
204,12.1905,1033.82
206,11.1885,1171.26
208,10.1495,1234.07
210,9.08222,1168.22
212,8.082222,1294.09
214,7.009407,1140.6
216,5.908574,1285.89
218,4.918789,1390.23
220,3.93656,1401.76
222,2.978601,1294.56
224,2.160686,1373.4
226,1.522184,1409.08
228,1.108367,1354.95
230,0.727239,1157.98
232,0.420569,923.076
234,0.18701,716.147
236,-0.04958,565.026
238,-0.239097,451.225
240,-0.321619,373.347
242,-0.430043,303.414
244,-0.516621,248.221
246,-0.592602,203.843
248,-0.626233,159.604
250,-0.657502,119.122
252,-0.69589,91.1032
254,-0.663839,72.1988
256,-0.719838,51.0452
258,-0.701431,40.7335
260,-0.732099,27.6745
262,-0.693228,23.4408
264,-0.845973,13.0337
266,-0.510168,10.7628
268,-0.67134,6.79789
270,-0.714842,8.20061
272,-0.639258,4.57007
274,-0.705509,6.28902
276,-0.707965,3.69712
278,-0.724781,5.61835
280,-0.633397,3.27088
282,-0.658829,4.29195
284,-0.68323,1.18805
286,-0.680923,3.31437
288,-0.641768,1.51924
290,-0.671382,2.87855
292,-0.663142,3.51094
294,-0.683813,2.71389
296,-0.676757,4.49815
298,-0.650263,2.51348
300,-0.683382,5.0244
302,-0.680135,3.3991
304,-0.708892,4.77819
306,-0.71797,1.57569
308,-0.670487,3.67907
310,-0.740992,0.526977
312,-0.754865,2.16745
314,-0.729432,1.63985
316,-0.736679,3.25961
318,-0.738781,2.62657
320,-0.736573,2.16469
322,-0.748741,1.53806
324,-0.740396,1.3836
326,-0.748469,1.88595
328,-0.749176,2.03419
330,-0.763839,2.7056
332,-0.776938,1.29979
334,-0.754918,2.17272
336,-0.745732,1.94674
338,-0.714805,4.46115
340,-0.749189,3.21764
342,-0.76569,4.94161
344,-0.720474,3.09643
346,-0.679532,5.11032
348,-0.743249,2.45001
350,-0.776546,4.84229
352,-0.790954,3.75741
354,-0.808282,5.61989
356,-0.801495,1.70775
358,-0.794817,3.51619
359,-0.783293,3.41425

File: UDRI_TGA_N2_10K_1.csv
Time,Temperature,Mass
[s],[K],[mg]
15.6,299.15,7.148
32.4,302.15,7.15
48.6,305.15,7.149
66,308.15,7.146
84,311.15,7.143
101.4,314.15,7.141
119.4,317.15,7.139
137.4,320.15,7.137
154.8,323.15,7.135
172.8,326.15,7.134
190.8,329.15,7.133
208.8,332.15,7.132
226.8,335.15,7.131
244.8,338.15,7.13
262.8,341.15,7.129
280.8,344.15,7.129
298.8,347.15,7.128
316.8,350.15,7.128
334.8,353.15,7.127
352.8,356.15,7.127
370.8,359.15,7.126
388.8,362.15,7.126
406.8,365.15,7.125
424.8,368.15,7.125
442.8,371.15,7.124
461.4,374.15,7.123
479.4,377.15,7.122
497.4,380.15,7.12
515.4,383.15,7.119
533.4,386.15,7.117
551.4,389.15,7.115
569.4,392.15,7.113
587.4,395.15,7.111
605.4,398.15,7.108
623.4,401.15,7.106
641.4,404.15,7.104
659.4,407.15,7.101
678,410.15,7.097
696,413.15,7.094
714,416.15,7.09
732,419.15,7.085
750,422.15,7.08
768,425.15,7.074
786,428.15,7.067
804,431.15,7.058
822,434.15,7.049
840,437.15,7.038
858,440.15,7.026
876,443.15,7.014
894,446.15,7.003
912,449.15,6.991
930.6,452.15,6.979
948.6,455.15,6.964
966.6,458.15,6.95
984.6,461.15,6.938
1002.6,464.15,6.926
1020.6,467.15,6.916
1038.6,470.15,6.908
1056.6,473.15,6.903
1074.6,476.15,6.899
1092.6,479.15,6.896
1110.6,482.15,6.893
1128.6,485.15,6.89
1146.6,488.15,6.887
1164.6,491.15,6.885
1182.6,494.15,6.882
1200.6,497.15,6.878
1218.6,500.15,6.874
1237.2,503.15,6.87
1255.2,506.15,6.865
1273.2,509.15,6.859
1291.2,512.15,6.853
1309.2,515.15,6.846
1327.2,518.15,6.837
1345.2,521.15,6.828
1363.2,524.15,6.817
1381.2,527.15,6.805
1399.2,530.15,6.79
1417.2,533.15,6.774
1435.2,536.15,6.756
1453.2,539.15,6.736
1471.2,542.15,6.713
1489.2,545.15,6.689
1507.2,548.15,6.663
1525.8,551.15,6.636
1543.8,554.15,6.609
1561.8,557.15,6.578
1579.8,560.15,6.542
1597.8,563.15,6.503
1615.8,566.15,6.46
1633.8,569.15,6.41
1651.8,572.15,6.353
1669.8,575.15,6.286
1687.8,578.15,6.208
1705.8,581.15,6.117
1723.8,584.15,6.012
1741.8,587.15,5.89
1759.8,590.15,5.748
1777.8,593.15,5.585
1796.4,596.15,5.399
1814.4,599.15,5.186
1832.4,602.15,4.945
1850.4,605.15,4.679
1868.4,608.15,4.387
1886.4,611.15,4.072
1904.4,614.15,3.742
1922.4,617.15,3.402
1940.4,620.15,3.057
1958.4,623.15,2.706
1976.4,626.15,2.359
1994.4,629.15,2.027
2013,632.15,1.712
2031,635.15,1.424
2049,638.15,1.165
2067,641.15,0.9391
2085,644.15,0.7499
2103,647.15,0.5911
2121,650.15,0.4635
2139,653.15,0.3629
2157,656.15,0.2866
2175,659.15,0.2286
2193.6,662.15,0.188
2211.6,665.15,0.1558
2229.6,668.15,0.1286
2247.6,671.15,0.1132
2265.6,674.15,0.1004
2283.6,677.15,0.0904
2301.6,680.15,0.08329
2319.6,683.15,0.07846
2338.2,686.15,0.07527
2356.2,689.15,0.07345
2374.2,692.15,0.07252
2392.2,695.15,0.0718
2410.2,698.15,0.07138
2428.2,701.15,0.07114
2446.2,704.15,0.07081
2464.8,707.15,0.07053
2482.8,710.15,0.07032
2500.8,713.15,0.07019
2518.8,716.15,0.06999
2536.8,719.15,0.06994
2554.8,722.15,0.06978
2572.8,725.15,0.06968
2591.4,728.15,0.06959
2609.4,731.15,0.06956
2627.4,734.15,0.06958
2645.4,737.15,0.06945
2663.4,740.15,0.06953
2681.4,743.15,0.06952
2700,746.15,0.06947
2718,749.15,0.06944
2736,752.15,0.06934
2754,755.15,0.06939
2772,758.15,0.06933
2790.6,761.15,0.06928
2808.6,764.15,0.06927
2826.6,767.15,0.06922
2844.6,770.15,0.06913
2862.6,773.15,0.06908
2880.6,776.15,0.06905
2899.2,779.15,0.0689
2917.2,782.15,0.06892
2935.2,785.15,0.06987
2953.2,788.15,0.07004
2971.2,791.15,0.0701
2989.8,794.15,0.07005
3007.8,797.15,0.06997
3025.8,800.15,0.0699
3043.8,803.15,0.06986
3061.8,806.15,0.0698
3080.4,809.15,0.06967
3098.4,812.15,0.06969
3116.4,815.15,0.06967
3134.4,818.15,0.06961
3152.4,821.15,0.06966
3171,824.15,0.06957
3189,827.15,0.06952
3207,830.15,0.06946
3225,833.15,0.06943
3243.6,836.15,0.06946
3261.6,839.15,0.0693
3279.6,842.15,0.06934
3297.6,845.15,0.06931
3315.6,848.15,0.06924
3334.2,851.15,0.06913
3352.2,854.15,0.06921
3370.2,857.15,0.0692
3388.2,860.15,0.06923
3406.8,863.15,0.06936
3424.8,866.15,0.06935
3442.8,869.15,0.06939
3460.8,872.15,0.06931
3478.8,875.15,0.06932
3497.4,878.15,0.0694
3515.4,881.15,0.06943
3533.4,884.15,0.06949
3551.4,887.15,0.06951
3570,890.15,0.06948
3588,893.15,0.06958
3606,896.15,0.06964
3624,899.15,0.06964
3642.6,902.15,0.06973
3660.6,905.15,0.06983
3678.6,908.15,0.06979
3696.6,911.15,0.06988
3715.2,914.15,0.06996
3733.2,917.15,0.07019
3751.2,920.15,0.07015
3769.2,923.15,0.07014
3787.8,926.15,0.07015
3805.8,929.15,0.07023
3823.8,932.15,0.07039
3841.8,935.15,0.07047
3860.4,938.15,0.0705
3878.4,941.15,0.07055
3896.4,944.15,0.07071
3914.4,947.15,0.07072
3933,950.15,0.07078
3951,953.15,0.07086
3969,956.15,0.07093
3987,959.15,0.07104
4005.6,962.15,0.0711
4023.6,965.15,0.07106
4041.6,968.15,0.07119
4059.6,971.15,0.07119
4078.2,974.15,0.07136
4096.2,977.15,0.0715
4114.2,980.15,0.0716
4132.8,983.15,0.07158
4150.8,986.15,0.07161
4168.8,989.15,0.07172
4186.8,992.15,0.07172
4205.4,995.15,0.07173
4223.4,998.15,0.07181
4235.4,1000.15,0.07189

File: UDRI_TGA_N2_10K_2.csv
Time,Temperature,Mass
[s],[K],[mg]
4.2,312.15,6.625
28.8,315.15,6.619
43.8,318.15,6.617
61.8,321.15,6.615
79.2,324.15,6.614
97.2,327.15,6.612
114.6,330.15,6.611
132.6,333.15,6.61
150.6,336.15,6.61
168.6,339.15,6.609
186.6,342.15,6.609
204.6,345.15,6.608
222.6,348.15,6.608
240.6,351.15,6.608
258.6,354.15,6.607
276.6,357.15,6.607
294.6,360.15,6.607
312.6,363.15,6.606
330.6,366.15,6.606
348.6,369.15,6.605
366.6,372.15,6.604
384.6,375.15,6.603
402.6,378.15,6.602
420.6,381.15,6.601
438.6,384.15,6.599
457.2,387.15,6.598
475.2,390.15,6.596
493.2,393.15,6.594
511.2,396.15,6.592
529.2,399.15,6.59
547.2,402.15,6.587
565.2,405.15,6.585
583.2,408.15,6.583
601.2,411.15,6.58
619.2,414.15,6.577
637.2,417.15,6.574
655.8,420.15,6.57
673.8,423.15,6.565
691.8,426.15,6.56
709.8,429.15,6.553
727.8,432.15,6.545
745.8,435.15,6.537
763.8,438.15,6.527
781.8,441.15,6.516
799.8,444.15,6.506
817.8,447.15,6.495
835.8,450.15,6.484
853.8,453.15,6.473
871.8,456.15,6.461
889.8,459.15,6.447
907.8,462.15,6.434
925.8,465.15,6.422
944.4,468.15,6.412
962.4,471.15,6.405
980.4,474.15,6.399
998.4,477.15,6.395
1016.4,480.15,6.392
1034.4,483.15,6.389
1052.4,486.15,6.387
1070.4,489.15,6.384
1088.4,492.15,6.382
1106.4,495.15,6.379
1124.4,498.15,6.376
1142.4,501.15,6.372
1160.4,504.15,6.368
1178.4,507.15,6.364
1196.4,510.15,6.359
1214.4,513.15,6.353
1233,516.15,6.346
1251,519.15,6.338
1269,522.15,6.33
1287,525.15,6.32
1305,528.15,6.308
1323,531.15,6.295
1341,534.15,6.28
1359,537.15,6.264
1377,540.15,6.245
1395,543.15,6.223
1413,546.15,6.202
1431,549.15,6.178
1449,552.15,6.153
1467,555.15,6.126
1485,558.15,6.098
1503,561.15,6.068
1521.6,564.15,6.033
1539.6,567.15,5.994
1557.6,570.15,5.949
1575.6,573.15,5.895
1593.6,576.15,5.832
1611.6,579.15,5.759
1629.6,582.15,5.675
1647.6,585.15,5.577
1665.6,588.15,5.463
1683.6,591.15,5.331
1701.6,594.15,5.179
1719.6,597.15,5.004
1737.6,600.15,4.806
1755.6,603.15,4.581
1774.2,606.15,4.332
1792.2,609.15,4.059
1810.2,612.15,3.769
1828.2,615.15,3.466
1846.2,618.15,3.165
1864.2,621.15,2.852
1882.2,624.15,2.54
1900.2,627.15,2.225
1918.2,630.15,1.917
1936.2,633.15,1.629
1954.2,636.15,1.351
1972.2,639.15,1.106
1990.8,642.15,0.891
2008.8,645.15,0.7117
2026.8,648.15,0.5643
2044.8,651.15,0.4459
2062.8,654.15,0.3542
2080.8,657.15,0.2842
2098.8,660.15,0.2324
2116.8,663.15,0.1932
2134.8,666.15,0.1619
2152.8,669.15,0.1375
2171.4,672.15,0.1181
2189.4,675.15,0.1027
2207.4,678.15,0.09083
2225.4,681.15,0.08167
2243.4,684.15,0.07494
2261.4,687.15,0.07102
2279.4,690.15,0.06892
2297.4,693.15,0.06774
2316,696.15,0.06701
2334,699.15,0.06642
2352,702.15,0.06595
2370,705.15,0.06558
2388,708.15,0.06536
2406,711.15,0.06506
2424,714.15,0.06479
2442.6,717.15,0.06456
2460.6,720.15,0.06436
2478.6,723.15,0.06426
2496.6,726.15,0.06409
2514.6,729.15,0.06401
2532.6,732.15,0.06376
2551.2,735.15,0.06364
2569.2,738.15,0.06353
2587.2,741.15,0.06343
2605.2,744.15,0.06319
2623.2,747.15,0.06306
2641.2,750.15,0.06298
2659.2,753.15,0.06284
2677.8,756.15,0.06268
2695.8,759.15,0.06259
2713.8,762.15,0.06251
2731.8,765.15,0.06241
2749.8,768.15,0.06228
2768.4,771.15,0.06214
2786.4,774.15,0.0621
2804.4,777.15,0.06198
2822.4,780.15,0.06192
2840.4,783.15,0.06176
2859,786.15,0.06167
2877,789.15,0.06162
2895,792.15,0.06156
2913,795.15,0.06152
2931,798.15,0.06143
2949.6,801.15,0.06133
2967.6,804.15,0.0613
2985.6,807.15,0.06122
3003.6,810.15,0.06116
3021.6,813.15,0.06105
3040.2,816.15,0.06109
3058.2,819.15,0.06101
3076.2,822.15,0.06097
3094.2,825.15,0.06093
3112.2,828.15,0.06095
3130.8,831.15,0.06087
3148.8,834.15,0.06088
3166.8,837.15,0.06077
3184.8,840.15,0.0607
3203.4,843.15,0.06063
3221.4,846.15,0.06066
3239.4,849.15,0.06065
3257.4,852.15,0.06064
3275.4,855.15,0.06057
3294,858.15,0.06047
3312,861.15,0.06036
3330,864.15,0.06039
3348,867.15,0.06033
3366.6,870.15,0.0603
3384.6,873.15,0.0603
3402.6,876.15,0.06027
3420.6,879.15,0.06022
3439.2,882.15,0.06014
3457.2,885.15,0.06019
3475.2,888.15,0.06009
3493.2,891.15,0.06005
3511.2,894.15,0.05999
3529.8,897.15,0.05993
3547.8,900.15,0.05995
3565.8,903.15,0.05991
3583.8,906.15,0.0598
3602.4,909.15,0.05977
3620.4,912.15,0.05973
3638.4,915.15,0.05975
3656.4,918.15,0.05969
3675,921.15,0.05969
3693,924.15,0.05964
3711,927.15,0.05965
3729,930.15,0.05961
3747.6,933.15,0.05956
3765.6,936.15,0.05953
3783.6,939.15,0.05948
3801.6,942.15,0.05942
3820.2,945.15,0.05944
3838.2,948.15,0.0594
3856.2,951.15,0.05938
3874.2,954.15,0.05944
3892.8,957.15,0.05946
3910.8,960.15,0.0594
3928.8,963.15,0.05944
3946.8,966.15,0.05935
3965.4,969.15,0.05927
3983.4,972.15,0.05933
4001.4,975.15,0.05927
4020,978.15,0.05929
4038,981.15,0.05922
4056,984.15,0.0592
4074,987.15,0.05922
4092.6,990.15,0.05922
4110.6,993.15,0.05925
4128.6,996.15,0.05924
4146.6,999.15,0.05922
4153.2,1000.15,0.05925

File: UDRI_TGA_N2_10K_3.csv
Time,Temperature,Mass
[s],[K],[mg]
10.2,312.15,6.903
30,315.15,6.902
45.6,318.15,6.902
63,321.15,6.9
81,324.15,6.898
98.4,327.15,6.897
116.4,330.15,6.897
134.4,333.15,6.896
152.4,336.15,6.895
169.8,339.15,6.895
187.8,342.15,6.895
205.8,345.15,6.894
223.8,348.15,6.894
241.8,351.15,6.894
259.8,354.15,6.893
277.8,357.15,6.893
296.4,360.15,6.892
314.4,363.15,6.892
332.4,366.15,6.891
350.4,369.15,6.891
368.4,372.15,6.89
386.4,375.15,6.889
404.4,378.15,6.887
422.4,381.15,6.886
440.4,384.15,6.885
458.4,387.15,6.883
476.4,390.15,6.881
494.4,393.15,6.879
513,396.15,6.877
531,399.15,6.874
549,402.15,6.872
567,405.15,6.869
585,408.15,6.867
603,411.15,6.864
621,414.15,6.86
639,417.15,6.857
657,420.15,6.853
675,423.15,6.848
693.6,426.15,6.842
711.6,429.15,6.835
729.6,432.15,6.826
747.6,435.15,6.817
765.6,438.15,6.807
783.6,441.15,6.796
801.6,444.15,6.784
819.6,447.15,6.773
837.6,450.15,6.762
855.6,453.15,6.749
873.6,456.15,6.737
891.6,459.15,6.724
909.6,462.15,6.711
927.6,465.15,6.7
945.6,468.15,6.692
963.6,471.15,6.686
981.6,474.15,6.682
999.6,477.15,6.678
1018.2,480.15,6.676
1036.2,483.15,6.673
1054.2,486.15,6.671
1072.2,489.15,6.668
1090.2,492.15,6.666
1108.2,495.15,6.663
1126.2,498.15,6.659
1144.2,501.15,6.656
1162.2,504.15,6.652
1180.2,507.15,6.647
1198.2,510.15,6.641
1216.2,513.15,6.635
1234.2,516.15,6.628
1252.2,519.15,6.62
1270.2,522.15,6.611
1288.2,525.15,6.601
1306.8,528.15,6.589
1324.8,531.15,6.575
1342.8,534.15,6.56
1360.8,537.15,6.543
1378.8,540.15,6.523
1396.8,543.15,6.502
1414.8,546.15,6.48
1432.8,549.15,6.455
1450.8,552.15,6.43
1468.8,555.15,6.402
1486.8,558.15,6.374
1504.8,561.15,6.343
1522.8,564.15,6.308
1540.8,567.15,6.267
1558.8,570.15,6.218
1576.8,573.15,6.162
1595.4,576.15,6.097
1613.4,579.15,6.022
1631.4,582.15,5.934
1649.4,585.15,5.833
1667.4,588.15,5.715
1685.4,591.15,5.577
1703.4,594.15,5.418
1721.4,597.15,5.235
1739.4,600.15,5.026
1757.4,603.15,4.79
1775.4,606.15,4.529
1793.4,609.15,4.241
1811.4,612.15,3.934
1830,615.15,3.613
1848,618.15,3.29
1866,621.15,2.966
1884,624.15,2.637
1902,627.15,2.309
1920,630.15,1.996
1938,633.15,1.686
1956,636.15,1.397
1974,639.15,1.136
1992,642.15,0.9096
2010,645.15,0.7205
2028.6,648.15,0.5661
2046.6,651.15,0.4423
2064.6,654.15,0.3465
2082.6,657.15,0.2743
2100.6,660.15,0.2225
2118.6,663.15,0.1855
2136.6,666.15,0.1558
2154.6,669.15,0.1308
2172.6,672.15,0.112
2190.6,675.15,0.09801
2209.2,678.15,0.08763
2227.2,681.15,0.07972
2245.2,684.15,0.07419
2263.2,687.15,0.07101
2281.2,690.15,0.06944
2299.2,693.15,0.06867
2317.2,696.15,0.06832
2335.8,699.15,0.06803
2353.8,702.15,0.06775
2371.8,705.15,0.06757
2389.8,708.15,0.06748
2407.8,711.15,0.06728
2425.8,714.15,0.06715
2443.8,717.15,0.06705
2462.4,720.15,0.06699
2480.4,723.15,0.06691
2498.4,726.15,0.0669
2516.4,729.15,0.06686
2534.4,732.15,0.06678
2552.4,735.15,0.06669
2570.4,738.15,0.06663
2589,741.15,0.06654
2607,744.15,0.06653
2625,747.15,0.06651
2643,750.15,0.06641
2661,753.15,0.06636
2679.6,756.15,0.0663
2697.6,759.15,0.06621
2715.6,762.15,0.0662
2733.6,765.15,0.06622
2751.6,768.15,0.06619
2769.6,771.15,0.06611
2788.2,774.15,0.06624
2806.2,777.15,0.06602
2824.2,780.15,0.06595
2842.2,783.15,0.06583
2860.2,786.15,0.06582
2878.8,789.15,0.06579
2896.8,792.15,0.0658
2914.8,795.15,0.06572
2932.8,798.15,0.06567
2950.8,801.15,0.06567
2969.4,804.15,0.06564
2987.4,807.15,0.06554
3005.4,810.15,0.06558
3023.4,813.15,0.06553
3041.4,816.15,0.06557
3060,819.15,0.06549
3078,822.15,0.06554
3096,825.15,0.06536
3114,828.15,0.06535
3132,831.15,0.06535
3150.6,834.15,0.06528
3168.6,837.15,0.06518
3186.6,840.15,0.06511
3204.6,843.15,0.0651
3223.2,846.15,0.06511
3241.2,849.15,0.06497
3259.2,852.15,0.06494
3277.2,855.15,0.06495
3295.2,858.15,0.06489
3313.8,861.15,0.06486
3331.8,864.15,0.0647
3349.8,867.15,0.06467
3367.8,870.15,0.06465
3386.4,873.15,0.06465
3404.4,876.15,0.06462
3422.4,879.15,0.06447
3440.4,882.15,0.06445
3458.4,885.15,0.06438
3477,888.15,0.06434
3495,891.15,0.06433
3513,894.15,0.06427
3531,897.15,0.06429
3549.6,900.15,0.0642
3567.6,903.15,0.07786
3585.6,906.15,0.08027
3603.6,909.15,0.08119
3622.2,912.15,0.08109
3640.2,915.15,0.08097
3658.2,918.15,0.08085
3676.2,921.15,0.08084
3694.8,924.15,0.08091
3712.8,927.15,0.08087
3730.8,930.15,0.08087
3748.8,933.15,0.08083
3767.4,936.15,0.08072
3785.4,939.15,0.08073
3803.4,942.15,0.08068
3821.4,945.15,0.08065
3840,948.15,0.08072
3858,951.15,0.08066
3876,954.15,0.08061
3894,957.15,0.08059
3912.6,960.15,0.08053
3930.6,963.15,0.0805
3948.6,966.15,0.08046
3967.2,969.15,0.08052
3985.2,972.15,0.0805
4003.2,975.15,0.08046
4021.2,978.15,0.08044
4039.8,981.15,0.08047
4057.8,984.15,0.08044
4075.8,987.15,0.08045
4093.8,990.15,0.08041
4112.4,993.15,0.08035
4130.4,996.15,0.08039
4148.4,999.15,0.08045
4154.4,1000.15,0.08042