Folder: matl-db/PMMA/Calibration_Data/ULSTER

Note: PMMA/Calibration_Data/ULSTER/README.md
# (ULSTER)


### Experimental Conditions, Cone Calorimeter
* Extraction flow rate: [?]
* Sample surface area: [?]
* Sample holder dimensions:
    - Square pan: [?]
    - Retainer frame: [?]
    - Retaining grid: [?]
* Backing insulation: [?]
* Sample temperatures: [?]



###### Test Heating Conditions  
| Test Name | Heat Flux (kW/m2) | Heater Temperature (K) |
| :-------: | :---------------: | :--------------------: |
|ULSTER\_Cone\_25kW\_1 | 25 | [?] |
|ULSTER\_Cone\_25kW\_2 | 25 | [?] |
|ULSTER\_Cone\_25kW\_3 | 25 | [?] |
|ULSTER\_Cone\_65kW\_1 | 65 | [?] |
|ULSTER\_Cone\_65kW\_2 | 65 | [?] |
|ULSTER\_Cone\_65kW\_3 | 65 | [?] |
|ULSTER\_Cone\_65kW\_4 | 65 | [?] |
|ULSTER\_Cone\_65kW\_5 | 65 | [?] |

File: ULSTER_Cone_25kW_1.csv
Time,Mass,HRR
[s],[g],[kW/m2]
0,66.99,0
3,67.012,12.5
6,67.012,1.6
9,67.05,2.3
12,67.076,1.1
15,67.092,0
18,67.099,0.6
21,67.102,0.6
24,67.102,0.6
27,67.099,1.7
30,67.095,1.1
33,67.089,1.7
36,67.083,2.3
39,67.076,3.4
42,67.069,4
45,67.063,5.8
48,67.057,6.8
51,67.048,6.4
54,67.04,6.9
57,67.03,5.1
60,67.02,3.4
63,67.008,2.8
66,66.996,2.3
69,66.982,2.3
72,66.966,2.3
75,66.948,2.3
78,66.926,2.3
81,66.901,2.3
84,66.871,2.8
87,66.836,3.4
90,66.795,3.4
93,66.746,2.8
96,66.689,3.4
99,66.622,3.4
102,66.544,4.5
105,66.455,4.5
108,66.352,5.1
111,66.235,7.5
114,66.104,8
117,65.957,7.3
120,65.795,11.1
123,65.615,23.6
126,65.419,60.7
129,65.205,123.6
132,64.975,156.6
135,64.728,221.5
138,64.465,281
141,64.186,318.4
144,63.893,345.5
147,63.587,360.6
150,63.267,368.9
153,62.935,371.3
156,62.593,371.5
159,62.241,377.8
162,61.881,383.2
165,61.513,384.5
168,61.138,379.8
171,60.758,382.7
174,60.373,388.2
177,59.984,391.4
180,59.592,393
183,59.196,394
186,58.798,395
189,58.398,400
192,57.996,403.4
195,57.593,407.4
198,57.188,405.6
201,56.782,401.6
204,56.374,401.9
207,55.965,407.2
210,55.554,410.9
213,55.142,417.4
216,54.727,418.6
219,54.312,416.7
222,53.894,417.3
225,53.474,413.3
228,53.051,417.5
231,52.626,427
234,52.198,434.7
237,51.767,436.3
240,51.334,438.3
243,50.897,435.8
246,50.457,432.5
249,50.014,434.9
252,49.568,439.3
255,49.119,439.9
258,48.667,445
261,48.212,448.5
264,47.755,447.3
267,47.295,459.2
270,46.832,463.9
273,46.367,463.2
276,45.9,465.1
279,45.431,461.8
282,44.961,471
285,44.488,481.6
288,44.014,485.3
291,43.539,490.2
294,43.061,488.4
297,42.583,488.1
300,42.102,496.5
303,41.619,500.8
306,41.134,504.8
309,40.647,504
312,40.159,501
315,39.667,495.2
318,39.173,492.6
321,38.676,500.1
324,38.177,501.1
327,37.674,503.8
330,37.169,497.2
333,36.662,491.5
336,36.151,483.1
339,35.639,486.9
342,35.124,503.5
345,34.607,514.7
348,34.089,520.7
351,33.568,524.9
354,33.047,526.1
357,32.524,533.9
360,32,533.3
363,31.475,529.5
366,30.95,525.8
369,30.424,526.5
372,29.898,528.9
375,29.372,530.1
378,28.846,532.5
381,28.32,542.2
384,27.795,542.3
387,27.272,540
390,26.748,539.2
393,26.227,543.3
396,25.707,552.8
399,25.189,563.5
402,24.674,567.7
405,24.162,560.9
408,23.653,545.7
411,23.149,529.2
414,22.648,521.3
417,22.153,520.1
420,21.662,531.3
423,21.178,541.1
426,20.699,543.3
429,20.228,537
432,19.763,533.1
435,19.306,529.5
438,18.858,525
441,18.418,518.2
444,17.986,514.9
447,17.564,508.5
450,17.151,504.4
453,16.748,504.2
456,16.356,495.3
459,15.974,485.3
462,15.603,477.6
465,15.243,462.5
468,14.895,452.6
471,14.558,439.1
474,14.232,427
477,13.918,413.1
480,13.615,394.4
483,13.323,378.1
486,13.043,360.2
489,12.773,341.4
492,12.513,324.5
495,12.264,314.2
498,12.024,299.8
501,11.792,285.5
504,11.569,274.9
507,11.354,260.7
510,11.145,253.3
513,10.943,245.3
516,10.747,235.7
519,10.557,229.4
522,10.372,218.9
525,10.191,209.7
528,10.015,201.1
531,9.842,195.6
534,9.673,191.1
537,9.508,184.7
540,9.346,176.3
543,9.187,172
546,9.032,172
549,8.88,173.6
552,8.73,173.5
555,8.584,172.3
558,8.441,167.7
561,8.301,163.6
564,8.164,160
567,8.03,157.4
570,7.899,154.7
573,7.771,154.2
576,7.645,151.7
579,7.522,150
582,7.402,148.5
585,7.285,145.1
588,7.169,141.5
591,7.056,136.8
594,6.945,133.4
597,6.836,130.5
600,6.73,127.3
603,6.625,125.8
606,6.522,122.5
609,6.421,120.3
612,6.322,116.3
615,6.225,112.3
618,6.129,110.6
621,6.035,107.7
624,5.943,107.2
627,5.852,102.8
630,5.763,99.7
633,5.675,95.6
636,5.589,94.5
639,5.506,94.3
642,5.423,93.2
645,5.342,90.2
648,5.264,86.4
651,5.187,86
654,5.112,83.5
657,5.039,82.3
660,4.968,81
663,4.899,78.1
666,4.833,75.8
669,4.769,74.1
672,4.706,72
675,4.647,68.9
678,4.589,68.4
681,4.533,65.9
684,4.479,64.8
687,4.427,63.8
690,4.377,61.4
693,4.328,59
696,4.28,58.4
699,4.233,56.3
702,4.186,56.9
705,4.14,55
708,4.094,53.3
711,4.048,51.7
714,4.001,50.9
717,3.953,49.8
720,3.904,49.2
723,3.854,48.2
726,3.802,46.9
729,3.748,47.6
732,3.693,47.3
735,3.636,45
738,3.577,44.2
741,3.516,41.6
744,3.452,42.5
747,3.388,40.9
750,3.322,40.9
753,3.256,39.8
756,3.191,39.4
759,3.128,38.6
762,3.066,39.8
765,3.006,39.4
768,2.949,38.3
771,2.897,37.7
774,2.85,37
777,2.808,37.3
780,2.773,36.6
783,2.744,33.8
786,2.721,34.4
789,2.704,34.4
792,2.692,34.4
795,2.685,33.3
798,2.682,34.5
801,2.678,32.8
804,2.68,31.6
807,2.691,30.6
810,2.712,31.7
813,2.737,31
816,2.761,31.1
819,2.781,29.5
822,2.791,30.7
825,2.783,30.1
828,2.75,29
831,2.711,29.5
834,2.694,28.4
837,2.7,28.4
840,2.7,27.8
841,2.7,27.3

File: ULSTER_Cone_25kW_2.csv
Time,Mass,HRR
[s],[g],[kW/m2]
0,71.01,0
4,71.018,4.1
8,71.031,3.4
12,71.072,4.1
16,71.113,3.5
20,71.147,1.7
24,71.174,0
28,71.194,0
32,71.209,0
36,71.22,0
40,71.228,0
44,71.234,0
48,71.238,0
52,71.241,0
56,71.244,0.6
60,71.245,1.1
64,71.242,2.4
68,71.234,0.6
72,71.222,0.6
76,71.204,0.6
80,71.179,1.8
84,71.146,2.4
88,71.103,1.1
92,71.048,0.6
96,70.981,1.8
100,70.899,1.1
104,70.8,1.1
108,70.683,1.1
112,70.547,1.1
116,70.389,1.8
120,70.209,2.3
124,70.006,4
128,69.78,19.8
132,69.53,83
136,69.257,167.8
140,68.96,247.8
144,68.642,294.1
148,68.302,321.6
152,67.943,346.7
156,67.565,365.3
160,67.169,374.4
164,66.758,372.5
168,66.334,374
172,65.896,375.8
176,65.448,379.7
180,64.99,387.3
184,64.524,392.6
188,64.05,390.9
192,63.57,391.9
196,63.083,393.4
200,62.591,392.6
204,62.094,396.6
208,61.591,398.6
212,61.083,405.9
216,60.57,412.7
220,60.053,421.9
224,59.529,418.2
228,59,425
232,58.465,421.1
236,57.923,422
240,57.376,415.5
244,56.822,415.8
248,56.263,420.2
252,55.696,427.8
256,55.124,436.7
260,54.546,432.4
264,53.962,438.2
268,53.372,441.9
272,52.777,447.2
276,52.177,450
280,51.572,458.4
284,50.963,460.3
288,50.35,455.9
292,49.733,457.2
296,49.111,457.7
300,48.486,464.2
304,47.857,465
308,47.223,474
312,46.586,481.1
316,45.944,483.3
320,45.297,483
324,44.645,491
328,43.989,502.6
332,43.327,499.2
336,42.659,499.9
340,41.986,501.9
344,41.306,516.8
348,40.621,516.6
352,39.929,523.2
356,39.23,523.1
360,38.525,522.6
364,37.814,521.3
368,37.095,524.8
372,36.371,517.4
376,35.641,522.2
380,34.905,543.8
384,34.163,548.1
388,33.418,553.3
392,32.67,562.4
396,31.919,574.5
400,31.167,587.2
404,30.415,595.6
408,29.664,595
412,28.917,606.3
416,28.175,624.5
420,27.438,676.7
424,26.709,707
428,25.989,679.4
432,25.279,631.4
436,24.581,586.8
440,23.894,572.4
444,23.221,564.9
448,22.562,557.3
452,21.918,547
456,21.288,535.1
460,20.675,525
464,20.078,525.1
468,19.498,519.1
472,18.935,514.1
476,18.389,500.9
480,17.861,484.5
484,17.351,473.2
488,16.858,462.6
492,16.385,440.6
496,15.93,415.7
500,15.493,396.6
504,15.074,379.4
508,14.673,350.6
512,14.289,325.1
516,13.922,306.7
520,13.571,295.6
524,13.234,279
528,12.912,263.3
532,12.604,247.6
536,12.307,236.7
540,12.022,232
544,11.747,222
548,11.482,215.1
552,11.225,204.9
556,10.976,198.6
560,10.734,194.5
564,10.499,191.3
568,10.27,185.3
572,10.046,178.8
576,9.829,175.6
580,9.615,173.5
584,9.407,164.7
588,9.203,166.1
592,9.002,164.3
596,8.806,161.1
600,8.612,159.3
604,8.422,155.2
608,8.235,148.5
612,8.05,142.7
616,7.868,139.5
620,7.689,140.1
624,7.513,138.5
628,7.338,134.8
632,7.167,131.5
636,6.999,130.1
640,6.835,130.1
644,6.673,125.1
648,6.515,123.3
652,6.361,118.6
656,6.211,118.2
660,6.066,116.8
664,5.925,115.7
668,5.789,111.5
672,5.658,106.5
676,5.532,104.5
680,5.411,103.8
684,5.294,103.3
688,5.182,100.7
692,5.074,98.9
696,4.971,93.1
700,4.873,90.3
704,4.779,87.3
708,4.69,83.1
712,4.604,81.8
716,4.522,80.1
720,4.443,75.8
724,4.368,73
728,4.296,69
732,4.227,68
736,4.16,64.9
740,4.095,62.8
744,4.033,60.6
748,3.972,61.3
752,3.913,59.2
756,3.854,57.6
760,3.797,55.7
764,3.739,54.3
768,3.683,54
772,3.627,52.2
776,3.572,51.1
780,3.518,50.6
784,3.464,48.9
788,3.411,48.4
792,3.359,47.2
796,3.307,46
800,3.257,45.2
804,3.207,43.9
808,3.159,45
812,3.11,44
816,3.064,41.7
820,3.017,39.4
824,2.972,37.7
828,2.928,37.3
832,2.884,37.8
836,2.841,36.3
840,2.798,35.3
844,2.757,35.2
848,2.717,33.9
852,2.678,33
856,2.641,32.5
860,2.605,31.4
864,2.572,30.8
868,2.541,30.2
872,2.511,30.2
876,2.485,30.1
880,2.46,28.4
884,2.438,25.7
888,2.418,24.4
892,2.4,23.2
896,2.384,22
900,2.369,21
904,2.356,19.9
908,2.343,21.1
912,2.332,21.8
916,2.32,20.6
920,2.309,19.3
924,2.298,18.4
928,2.287,16
932,2.276,16.6
936,2.265,16.1
940,2.255,14.9
944,2.245,14.2
948,2.236,13.9
952,2.228,13.8
956,2.22,12.6
960,2.215,11.4
964,2.211,10.2
968,2.208,8.6
972,2.206,7.4
976,2.204,8.6
980,2.203,6.8
984,2.203,6.8
988,2.205,6.8
992,2.209,6.9
996,2.214,6.3
1000,2.22,6.8
1004,2.225,7.5
1008,2.228,7.4
1012,2.224,7.4
1016,2.205,9.2
1020,2.157,9.8
1024,2.1,9.2
1028,2.1,9.1
1030,2.1,9.7

File: ULSTER_Cone_25kW_3.csv
Time,Mass,HRR
[s],[g],[kW/m2]
0,70,0
4,69.987,9.4
8,69.99,6
12,69.998,3.4
16,69.998,2
20,69.993,0
24,69.982,0
28,69.969,2.7
32,69.955,6.1
36,69.941,8.2
40,69.925,9.4
44,69.907,10.9
48,69.884,10.9
52,69.853,8.9
56,69.818,6.1
60,69.781,6.1
64,69.737,6.1
68,69.683,7.5
72,69.618,7.5
76,69.541,4.1
80,69.449,2.7
84,69.34,2.7
88,69.214,2.7
92,69.066,2.7
96,68.897,4.8
100,68.705,6.7
104,68.489,10.1
108,68.248,25.2
112,67.981,88.1
116,67.688,189.8
120,67.37,254.1
124,67.027,297.8
128,66.661,334
132,66.272,357.7
136,65.861,379.4
140,65.431,388.4
144,64.984,385.8
148,64.52,389.3
152,64.042,391.6
156,63.552,392.5
160,63.049,390.1
164,62.537,389.2
168,62.016,398.8
172,61.488,406.9
176,60.953,408.3
180,60.412,406.1
184,59.866,406.1
188,59.315,414.7
192,58.759,423.2
196,58.198,424.1
200,57.633,424.3
204,57.063,419.7
208,56.489,420.3
212,55.91,421.3
216,55.327,426.4
220,54.739,433.6
224,54.146,440.5
228,53.549,446
232,52.948,450.8
236,52.342,447.4
240,51.732,447.4
244,51.117,453.3
248,50.498,458.6
252,49.874,460.7
256,49.246,465.1
260,48.614,467.7
264,47.979,471.6
268,47.339,483.3
272,46.695,486.8
276,46.048,483.6
280,45.397,480.1
284,44.742,489.2
288,44.083,500.9
292,43.419,503.4
296,42.752,509.4
300,42.081,509.3
304,41.406,514.1
308,40.726,520.2
312,40.042,521.1
316,39.354,519
320,38.66,514.7
324,37.962,515.5
328,37.258,520.1
332,36.55,517.7
336,35.837,524
340,35.118,530.6
344,34.396,535
348,33.669,542.3
352,32.939,547.2
356,32.204,548.6
360,31.468,553.6
364,30.729,555.7
368,29.989,561.4
372,29.25,564.5
376,28.51,570.5
380,27.773,580.8
384,27.038,602.2
388,26.308,621.9
392,25.582,646.1
396,24.864,650.7
400,24.153,625.9
404,23.451,594.4
408,22.759,569.7
412,22.078,558.4
416,21.41,553.2
420,20.754,548.2
424,20.113,537.2
428,19.486,533.1
432,18.876,529.9
436,18.282,531.8
440,17.705,532.4
444,17.145,522.7
448,16.603,508.8
452,16.079,487.2
456,15.572,472.4
460,15.084,456.5
464,14.614,439.1
468,14.162,418
472,13.727,398.1
476,13.31,378.1
480,12.91,360
484,12.526,340
488,12.158,319.3
492,11.806,301.3
496,11.468,282
500,11.144,272.6
504,10.833,255.1
508,10.535,241.1
512,10.25,227.6
516,9.975,219.9
520,9.712,211.4
524,9.458,204.3
528,9.213,196.3
532,8.977,191
536,8.749,184.4
540,8.529,177.5
544,8.315,168.1
548,8.108,164.7
552,7.908,161
556,7.713,156.3
560,7.523,150.9
564,7.338,146.9
568,7.158,143
572,6.983,139.8
576,6.811,136.8
580,6.644,132.2
584,6.481,130.5
588,6.321,125.8
592,6.164,124.3
596,6.012,121.1
600,5.862,119.3
604,5.716,115.5
608,5.572,111.6
612,5.432,109
616,5.296,109.3
620,5.163,106.6
624,5.032,101.9
628,4.905,98.6
632,4.782,100.1
636,4.661,96.7
640,4.544,94
644,4.43,93
648,4.319,92.8
652,4.211,93.6
656,4.107,91.9
660,4.007,88.2
664,3.908,84.9
668,3.814,83.9
672,3.722,81.6
676,3.633,78.4
680,3.547,74.1
684,3.464,69.7
688,3.384,67.8
692,3.306,66.9
696,3.231,63.5
700,3.158,60.9
704,3.088,58.9
708,3.021,56.4
712,2.956,52.4
716,2.893,49.7
720,2.833,48.1
724,2.776,46.9
728,2.721,45.1
732,2.669,44.4
736,2.618,43.8
740,2.57,39.1
744,2.525,38
748,2.481,36.6
752,2.44,35.1
756,2.4,31.8
760,2.363,29.2
764,2.327,28.6
768,2.292,27.4
772,2.259,26.5
776,2.228,25.2
780,2.197,23.9
784,2.168,21.8
788,2.14,21.8
792,2.113,21.3
796,2.086,20.1
800,2.06,19.3
804,2.035,18.1
808,2.012,18.1
812,1.989,16.6
816,1.966,15.2
820,1.945,14.5
824,1.925,16
828,1.905,15.3
832,1.887,14
836,1.87,13.3
840,1.853,14.1
844,1.838,13.4
848,1.823,12
852,1.81,11.9
856,1.797,10
860,1.785,11.4
864,1.774,10.7
868,1.764,10
872,1.754,10
876,1.745,10
880,1.736,10
884,1.728,8.8
888,1.72,8.1
892,1.712,6.7
896,1.705,6.7
900,1.698,5.3
904,1.691,5.3
908,1.684,5.3
912,1.678,5.3
916,1.671,5.2
920,1.665,7.4
924,1.66,6
928,1.654,5.3
932,1.649,4.7
936,1.644,4
940,1.64,3.3
944,1.635,3.3
948,1.632,3.9
952,1.629,2.6
956,1.625,1.9
960,1.622,4.1
964,1.619,4.7
968,1.616,3.3
972,1.613,3.3
976,1.61,3.3
980,1.607,3.3
984,1.604,2.6
988,1.6,2.6
992,1.596,3.3
996,1.592,4
1000,1.587,2.6
1004,1.582,1.9
1008,1.576,2.7
1012,1.57,2.6
1016,1.564,3.4
1020,1.557,2.7
1024,1.55,0.7
1028,1.541,2
1032,1.533,0.7
1036,1.525,0
1040,1.517,0
1044,1.508,1.5
1048,1.499,1.5
1052,1.489,1.5
1056,1.477,1.5
1060,1.464,1.5
1064,1.449,0
1068,1.427,0
1072,1.398,0.7
1076,1.361,0
1080,1.353,0
1084,1.353,0

File: ULSTER_Cone_50kW_1.csv
Time,Mass,HRR
[s],[g],[kW/m2]
0,70.44,0
3,70.486,0.6
6,70.486,1.8
9,70.471,0.6
12,70.42,1.3
15,70.312,0.6
18,70.151,0.6
21,69.94,1.1
24,69.691,1.1
27,69.41,1.7
30,69.097,2.8
33,68.754,10.1
36,68.383,30.3
39,68.023,180.6
42,67.658,318
45,67.267,403.2
48,66.851,470.6
51,66.413,520.7
54,65.953,558
57,65.473,585.2
60,64.976,599.1
63,64.461,591.9
66,63.931,586.3
69,63.387,593.8
72,62.83,613.9
75,62.261,628.5
78,61.681,635.3
81,61.091,644
84,60.492,627.6
87,59.885,610.1
90,59.271,618.5
93,58.649,655.7
96,58.021,686.8
99,57.387,688.8
102,56.747,679.8
105,56.1,669.3
108,55.446,676
111,54.787,683.6
114,54.12,692.6
117,53.448,688.6
120,52.768,678
123,52.081,676.7
126,51.388,684.7
129,50.688,699
132,49.981,706.7
135,49.267,711.1
138,48.546,715.9
141,47.818,722.6
144,47.084,731.1
147,46.343,749
150,45.594,759.3
153,44.839,760.1
156,44.077,756.5
159,43.308,754
162,42.533,773.9
165,41.751,791.5
168,40.962,795.3
171,40.167,804
174,39.366,795.7
177,38.559,800.1
180,37.745,823.9
183,36.927,855.6
186,36.102,869.3
189,35.273,870
192,34.44,867.5
195,33.602,866.9
198,32.761,869.8
201,31.916,876.1
204,31.07,891.1
207,30.222,881
210,29.375,857.2
213,28.529,862
216,27.686,864.5
219,26.848,882.8
222,26.017,892.7
225,25.194,911.6
228,24.383,924.7
231,23.586,936.3
234,22.805,948.8
237,22.042,971.6
240,21.299,991.4
243,20.579,982.5
246,19.883,959.2
249,19.213,944.3
252,18.57,940
255,17.954,947.7
258,17.367,938.9
261,16.807,890
264,16.275,853.1
267,15.77,765
270,15.289,674.8
273,14.833,605
276,14.4,543.2
279,13.986,485.3
282,13.592,436.8
285,13.215,400.3
288,12.853,373.5
291,12.505,355.7
294,12.169,343.8
297,11.843,330.6
300,11.526,316.8
303,11.217,307.2
306,10.917,306.7
309,10.624,304.5
312,10.338,303.5
315,10.059,296.4
318,9.786,289.3
321,9.521,281.6
324,9.262,276.5
327,9.011,275.5
330,8.767,273.9
333,8.53,271.5
336,8.3,259.9
339,8.077,250.1
342,7.861,245.5
345,7.652,239.1
348,7.449,233
351,7.253,226.5
354,7.062,215.5
357,6.877,203.9
360,6.696,197.3
363,6.521,195
366,6.35,192.2
369,6.184,184.7
372,6.022,175.9
375,5.864,171.7
378,5.71,169.3
381,5.56,166.8
384,5.414,164.4
387,5.272,161
390,5.135,155.9
393,5.001,149.5
396,4.871,145.5
399,4.745,144
402,4.623,140.8
405,4.506,138
408,4.392,131.1
411,4.283,128.8
414,4.177,123.8
417,4.076,120.6
420,3.978,115.5
423,3.885,110.7
426,3.795,105.7
429,3.709,100.7
432,3.628,95.2
435,3.549,93.3
438,3.475,91.8
441,3.404,89.1
444,3.336,85.6
447,3.272,80.2
450,3.21,78.4
453,3.151,76.3
456,3.094,71.5
459,3.04,69.4
462,2.987,65.1
465,2.936,61.4
468,2.887,57.8
471,2.839,58.1
474,2.793,55.7
477,2.747,55.2
480,2.703,53.5
483,2.661,51.5
486,2.619,48.4
489,2.578,46
492,2.539,46.8
495,2.502,45.1
498,2.465,43.4
501,2.43,41.8
504,2.396,40.6
507,2.363,40.7
510,2.332,40
513,2.301,38.9
516,2.272,39.1
519,2.243,36.6
522,2.216,35
525,2.189,33.9
528,2.163,33.3
531,2.137,32.7
534,2.113,31
537,2.089,29.2
540,2.065,26.9
543,2.042,27.6
546,2.02,26.4
549,1.999,25.2
552,1.979,22.8
555,1.959,21.7
558,1.94,20
561,1.922,20
564,1.904,20.1
567,1.887,20.1
570,1.87,19
573,1.854,18.3
576,1.837,17.7
579,1.821,18.4
582,1.805,18.4
585,1.789,17.7
588,1.774,16.6
591,1.758,16
594,1.742,15.6
597,1.726,15
600,1.711,15.6
603,1.695,15
606,1.68,15.5
609,1.666,15.6
612,1.652,14.3
615,1.639,13.8
618,1.627,12.6
621,1.616,12.6
624,1.605,11.5
627,1.595,12.6
630,1.586,11.5
633,1.577,10.9
636,1.569,10.9
639,1.561,9.8
642,1.554,9.8
645,1.547,10.9
648,1.54,9.2
651,1.533,8.6
654,1.526,8.6
657,1.519,8.1
660,1.513,7.4
663,1.506,8
666,1.499,6.8
669,1.493,8.1
672,1.487,7.5
675,1.481,6.4
678,1.476,5.8
681,1.47,5.1
684,1.466,5.1
687,1.461,3.4
690,1.457,3.4
693,1.452,2.3
696,1.448,1.6
699,1.445,1.6
702,1.443,1.7
705,1.441,1.7
708,1.438,1.7
711,1.435,1.7
714,1.432,1.7
717,1.429,1.7
720,1.424,1.1
723,1.419,1.1
726,1.415,1.1
729,1.421,1.1
732,1.45,1.1
735,1.501,0.6
738,1.501,0.6
741,1.501,0

File: ULSTER_Cone_50kW_2.csv
Time,Mass,HRR
[s],[g],[kW/m2]
0,67.15,0
3,67.16,0
6,67.16,0
9,67.13,0
12,67.062,0
15,66.983,0
18,66.879,0
21,66.736,0
24,66.552,0
27,66.324,0
30,66.053,1.1
33,65.741,5
36,65.415,44.7
39,65.101,111.3
42,64.756,258.2
45,64.382,371.5
48,63.979,445
51,63.55,487.4
54,63.095,514
57,62.617,530.1
60,62.118,547.6
63,61.6,564.1
66,61.066,573.6
69,60.519,574.2
72,59.958,571.5
75,59.386,580.7
78,58.805,596.4
81,58.216,606.9
84,57.62,610.5
87,57.017,618.8
90,56.41,625.6
93,55.797,627.4
96,55.179,638.6
99,54.557,650.8
102,53.93,654.1
105,53.3,648.1
108,52.665,646.7
111,52.025,654.4
114,51.381,661.5
117,50.732,678.3
120,50.077,679
123,49.416,667.4
126,48.748,662.4
129,48.072,668
132,47.389,682.2
135,46.698,701.4
138,45.998,709.1
141,45.289,714.1
144,44.57,706.6
147,43.841,712.8
150,43.101,717.4
153,42.352,735.8
156,41.592,759.1
159,40.822,760.9
162,40.043,764.7
165,39.254,778.3
168,38.456,796.8
171,37.65,815.6
174,36.835,830.6
177,36.011,834.3
180,35.181,841.5
183,34.343,849.9
186,33.499,868.6
189,32.648,894
192,31.792,896.7
195,30.931,896.5
198,30.065,892.6
201,29.195,880.8
204,28.323,883
207,27.45,892.6
210,26.578,891.4
213,25.709,887.8
216,24.846,892
219,23.992,892.3
222,23.148,914.3
225,22.319,930.1
228,21.506,942.7
231,20.714,951.1
234,19.947,954.5
237,19.205,953.4
240,18.492,981.8
243,17.809,998.1
246,17.159,1013.5
249,16.541,997.8
252,15.956,960.7
255,15.403,902.4
258,14.881,869.4
261,14.39,797.3
264,13.927,685.8
267,13.49,582.2
270,13.078,494.7
273,12.687,445.6
276,12.317,407.5
279,11.963,378.9
282,11.626,355.7
285,11.302,337.4
288,10.99,319.3
291,10.689,305.3
294,10.398,297
297,10.116,295.2
300,9.843,291.6
303,9.577,289
306,9.318,282.7
309,9.067,277.8
312,8.822,276.8
315,8.584,278.6
318,8.352,271.8
321,8.128,265.5
324,7.91,258
327,7.698,248.9
330,7.492,244.7
333,7.293,238.6
336,7.099,232.6
339,6.91,225.6
342,6.727,218.5
345,6.549,212.3
348,6.375,208.6
351,6.205,201.6
354,6.04,195
357,5.877,186.4
360,5.719,178.8
363,5.564,173.3
366,5.411,170.9
369,5.262,168.5
372,5.116,164.3
375,4.973,159.5
378,4.833,152.2
381,4.696,145.8
384,4.564,141
387,4.435,134.7
390,4.311,130.8
393,4.19,125.1
396,4.074,119.3
399,3.962,114
402,3.854,110.1
405,3.75,105.6
408,3.65,100.8
411,3.554,96.1
414,3.462,94.1
417,3.373,89.3
420,3.287,85.9
423,3.204,84.4
426,3.123,82.2
429,3.045,81
432,2.969,79.8
435,2.895,76.3
438,2.823,75.3
441,2.753,75.8
444,2.685,75.6
447,2.619,74.7
450,2.554,73.6
453,2.492,71.3
456,2.433,69.5
459,2.375,68.5
462,2.321,67.3
465,2.27,67.6
468,2.221,65.8
471,2.176,64.1
474,2.134,61.4
477,2.095,57.3
480,2.059,54
483,2.025,48.5
486,1.994,47.7
489,1.965,44.4
492,1.937,42.6
495,1.91,42.2
498,1.883,41
501,1.857,39.9
504,1.83,37
507,1.803,35.2
510,1.775,34.2
513,1.746,33.1
516,1.717,31.9
519,1.687,30.8
522,1.657,28.5
525,1.627,28.5
528,1.598,27.5
531,1.569,26.8
534,1.541,25.6
537,1.515,25.2
540,1.489,23.5
543,1.465,22.8
546,1.441,21
549,1.419,19.9
552,1.399,20.7
555,1.379,20.6
558,1.358,20.7
561,1.339,20
564,1.32,19.5
567,1.301,17.7
570,1.282,16.6
573,1.263,16
576,1.244,16
579,1.227,16
582,1.209,16.7
585,1.193,14.9
588,1.177,14.9
591,1.162,14.3
594,1.149,13.2
597,1.137,11.4
600,1.126,11.4
603,1.116,11.5
606,1.106,12.6
609,1.098,10.3
612,1.09,9.8
615,1.081,9.8
618,1.073,8.5
621,1.064,8.6
624,1.054,8.5
627,1.044,8.6
630,1.034,8.6
633,1.022,7.4
636,1.01,7.4
639,0.997,6.8
642,0.984,6.3
645,0.971,5.7
648,0.957,4.5
651,0.944,3.9
654,0.932,4
657,0.92,5.1
660,0.907,4
663,0.893,4
666,0.879,2.3
669,0.867,2.3
672,0.855,2.3
675,0.844,1
678,0.833,1.7
681,0.819,1.1
684,0.804,0.6
687,0.781,0
690,0.744,0
693,0.672,0
696,0.64,0
699,0.64,0
700,0.64,0

File: ULSTER_Cone_50kW_3.csv
Time,Mass,HRR
[s],[g],[kW/m2]
0,66.58,0
3,66.559,0
6,66.559,0
9,66.473,0
12,66.358,0.5
15,66.226,1.7
18,66.063,0.6
21,65.864,0
24,65.629,0
27,65.36,0
30,65.057,2.2
33,64.724,24.2
36,64.379,69.5
39,64.045,199.3
42,63.684,311
45,63.299,393.4
48,62.891,437.2
51,62.46,480.5
54,62.006,521.7
57,61.533,551.5
60,61.042,559.7
63,60.533,561
66,60.009,555.7
69,59.472,555.8
72,58.922,569.3
75,58.36,585.8
78,57.789,600.9
81,57.209,603.8
84,56.622,598.8
87,56.029,600.9
90,55.429,607.8
93,54.824,622.7
96,54.215,631.8
99,53.601,625
102,52.982,619.4
105,52.359,614.5
108,51.732,623.8
111,51.1,636.8
114,50.462,645.8
117,49.82,661.6
120,49.171,663.4
123,48.516,658.3
126,47.855,665.8
129,47.187,675.5
132,46.511,683.2
135,45.828,673.3
138,45.137,665.5
141,44.438,668
144,43.731,683.1
147,43.016,700
150,42.292,709.4
153,41.561,714.3
156,40.821,711.8
159,40.073,724.3
162,39.317,747.3
165,38.554,770.7
168,37.784,793.8
171,37.006,794.8
174,36.222,801.5
177,35.431,811.7
180,34.633,841.8
183,33.83,876.9
186,33.021,878.2
189,32.208,865
192,31.39,856.5
195,30.569,850
198,29.746,858.9
201,28.921,854.7
204,28.096,843.1
207,27.273,840.2
210,26.453,834.9
213,25.639,850
216,24.833,863.2
219,24.038,883.2
222,23.255,905.7
225,22.487,909.8
228,21.737,927.8
231,21.007,943.8
234,20.299,951.5
237,19.616,962.3
240,18.958,952.3
243,18.328,929.8
246,17.725,893.8
249,17.151,866.8
252,16.604,830.6
255,16.085,793.9
258,15.592,765.8
261,15.125,688.2
264,14.681,612.6
267,14.26,546.3
270,13.858,501.4
273,13.475,450.3
276,13.108,413.1
279,12.755,378.9
282,12.415,355.1
285,12.085,334
288,11.765,321
291,11.454,314.4
294,11.149,305.9
297,10.852,297.7
300,10.56,288.2
303,10.274,280.7
306,9.993,276.7
309,9.717,283
312,9.446,286.1
315,9.18,286.8
318,8.919,281.4
321,8.663,276
324,8.413,272.3
327,8.168,271.9
330,7.928,272.5
333,7.693,269.5
336,7.463,262.7
339,7.239,257.2
342,7.02,252.4
345,6.807,249.5
348,6.599,247.3
351,6.397,244.4
354,6.2,234.8
357,6.009,223.8
360,5.824,212
363,5.644,209.3
366,5.47,204.7
369,5.302,199.5
372,5.14,191
375,4.984,182
378,4.834,171.7
381,4.691,166.8
384,4.554,163.4
387,4.422,158.5
390,4.297,151.1
393,4.178,140.8
396,4.064,129
399,3.956,122.4
402,3.852,115
405,3.753,110.9
408,3.659,105.1
411,3.568,98.5
414,3.481,95
417,3.397,93.6
420,3.315,92.8
423,3.235,91.4
426,3.157,90.1
429,3.081,87.4
432,3.006,84.8
435,2.933,85.8
438,2.862,85.7
441,2.792,85.8
444,2.723,83.2
447,2.656,79.4
450,2.591,79
453,2.528,76.4
456,2.468,74.9
459,2.411,75.9
462,2.356,75
465,2.305,70.3
468,2.256,68.3
471,2.21,65.6
474,2.167,61.6
477,2.126,58.8
480,2.087,55.1
483,2.05,54.1
486,2.015,49.2
489,1.981,46.5
492,1.947,46.5
495,1.915,44.1
498,1.882,39.7
501,1.85,36.8
504,1.818,34
507,1.786,31.3
510,1.755,30.6
513,1.723,30.1
516,1.693,28.4
519,1.662,27.3
522,1.633,25
525,1.604,23.9
528,1.575,22
531,1.547,22.2
534,1.52,21
537,1.494,19.4
540,1.469,18.8
543,1.443,18.2
546,1.418,18.8
549,1.393,18.2
552,1.368,17
555,1.343,17.6
558,1.319,17.2
561,1.294,16.6
564,1.269,16.6
567,1.244,16
570,1.218,14.2
573,1.192,13.6
576,1.167,13.1
579,1.142,11.4
582,1.117,11.4
585,1.093,11.4
588,1.07,11.4
591,1.048,10.8
594,1.027,9.7
597,1.008,9
600,0.991,9.1
603,0.976,9.1
606,0.963,9.1
609,0.953,8
612,0.944,7.3
615,0.938,6.7
618,0.933,7.4
621,0.93,6.1
624,0.928,6.8
627,0.926,6.8
630,0.925,7.4
633,0.924,6.8
636,0.922,6.3
639,0.92,5.7
642,0.915,5.7
645,0.91,5.7
648,0.901,4.4
651,0.892,4.5
654,0.881,4.5
657,0.869,2.7
660,0.855,3.3
663,0.841,2.7
666,0.826,2.2
669,0.81,2.2
672,0.792,2.2
675,0.774,2.7
678,0.754,2.2
681,0.736,2.2
684,0.721,1.6
687,0.711,1.6
690,0.71,1.6
693,0.707,1
696,0.704,2.3
699,0.704,2.3
700,0.704,1