Folder: matl-db/PMMA/Calibration_Data/UMD

Note: PMMA/README.md
# Poly(methyl methacrylate), PMMA

This folder holds measurement data, calibrated material property datasets, and results of numerical simulations related to the pyrolysis of case black PMMA. The specific material of interest is a nominally 6 mm (0.236 inch) thick, black, cast PMMA manufactured by Evonik under the tradename: ACRYLITE cast black 9H01 GT. Note: the identification of any commercial product or trade name does not imply endorsement or recommendation by the National Institute of Standards and Technology, NIST (or any other contributing institution).

|Folder Name| Description|
|---|---|
|Calibration_Data| Experimental measurements (e.g., TGA, DSC, Cone Calorimeter) used for pyrolysis model calibration (i.e., material property determination)|
|Calibration_Results|Results of numerical simulations demonstrating the ability of proposed material property sets to accurately *reproduce* relevant model calibration data|
|Computational_Results|Model predictions of sample decomposition in response to idealized zero- and one-dimensional heating scenarios (used for model to model comparison)|
|Material_Properties|Pyrolysis models (i.e., material property sets) organized in a standard .json format|
|Validation_Data|Experimental Measurements (sample mass loss and back surface temperature rise during anaerobic gasification of PMMA under external thermal radiation) for Pyrolysis Model Validation |
|Validation_Results|Results of numerical simulations demonstrating the ability of proposed material property sets to *predict* measured material decomposition behavior (used for model validation)|

File: UMD_CAPA_25kW_Mass.csv
Time,MLR_mean,Temp_avg_all4,MLR_error,Temperature_Error
[s],[kg/s/m2],[K],[kg/s/m2],[K]
2.493585,-0.000938839,0,0.000540742,0
12.4411,0.000468942,0,0.000117623,0
22.3921,0.0004123,0,0.000121883,0
32.4232,0.000292289,0,8.77E-05,0
42.458,0.000253962,0,0.00017945,0
52.49583,0.000330686,0,0.000146755,0
62.5256,2.45E-05,0,0.000236052,0
72.5581,0.0003016,0,0.000152919,0
82.587,0.000213859,0,0.000126045,0
92.6179,0.000315268,0,0.00022529,0
102.65,0.000388278,0,0.000106028,0
112.68,0.000310262,0,0.000101064,0
122.715,0.000726266,0,0.000183317,0
132.499,0.000484197,0,0.000211978,0
142.278,0.001308147,0,0.000133317,0
152.314,0.001452347,0,0.000141828,0
162.348,0.001610469,0,0.000155318,0
172.377,0.002275585,0,0.000128158,0
182.409,0.003193513,0,0.000287445,0
192.441,0.003280541,0,0.000381812,0
202.47,0.003515247,0,0.000284727,0
212.5,0.004345897,0,0.000281083,0
222.531,0.004128328,0,0.000276753,0
232.563,0.004591777,0,0.000257827,0
242.592,0.004519994,0,0.000249993,0
252.624,0.005392246,0,0.000294357,0
262.651,0.00519802,0,0.000325449,0
272.68,0.00556278,0,0.000345061,0
282.627,0.005412027,0,0.000430688,0
292.572,0.005960452,0,0.000296702,0
302.435,0.005804532,0,0.000277453,0
312.376,0.005897648,0,0.000389319,0
322.329,0.006234084,0,0.000410814,0
332.363,0.005478886,0,0.000368106,0
342.397,0.006854029,0,0.000417884,0
352.43,0.006679915,0,0.000386477,0
362.464,0.006592617,0,0.000345284,0
372.497,0.006262168,0,0.000480806,0
382.53,0.006842806,0,0.000331439,0
392.56,0.006984449,0,0.000349038,0
402.589,0.00626725,0,0.000437754,0
412.621,0.008316793,0,0.000356153,0
422.652,0.006823627,0,0.000391952,0
432.683,0.007400208,0,0.000378544,0
442.381,0.007067332,0,0.000269531,0
452.416,0.007037665,0,0.000274886,0
462.447,0.00655642,0,0.000394711,0
472.476,0.007109928,0,0.000352595,0
482.418,0.007571637,0,0.000359444,0
492.368,0.007281411,0,0.000320934,0
502.403,0.007274772,0,0.000299438,0
512.437,0.007803093,0,0.0003373,0
522.467,0.007545438,0,0.000234185,0
532.498,0.006366305,0,0.000415614,0
542.533,0.007241456,0,0.000332137,0
552.566,0.007237778,0,0.000266435,0
562.594,0.007032848,0,0.000305445,0
572.547,0.007238977,0,0.000256291,0
582.501,0.007228486,0,0.000257477,0
592.537,0.007384795,0,0.000209308,0
602.573,0.007558178,0,0.000335539,0
612.44,0.007055606,0,0.000291401,0
622.477,0.007150828,0,0.000328408,0
632.51,0.007041907,0,0.000256249,0
642.54,0.007089974,0,0.000288078,0
652.5697,0.006994963,0,0.000301943,0
662.52,0.006684625,0,0.000346411,0
672.465,0.007399596,0,0.000455507,0
682.498,0.007357717,0,0.000390257,0
692.525,0.00734333,0,0.000305392,0
702.554,0.006747526,0,0.000375047,0
712.422,0.007300222,0,0.000327259,0
722.458,0.006284964,0,0.000353113,0
732.489,0.007600134,0,0.000463441,0
742.522,0.006751649,0,0.000361608,0
752.555,0.007495446,0,0.000382337,0
762.423,0.007042791,0,0.000286203,0
772.458,0.006771718,0,0.000331102,0
782.489,0.006898723,0,0.00033621,0
792.521,0.006978912,0,0.000316192,0
802.548,0.0072178,0,0.000306488,0
812.573,0.00693189,0,0.000301655,0
822.6,0.006849391,0,0.000495707,0
832.548,0.00726145,0,0.000413054,0
842.493,0.006625417,0,0.000283579,0
852.524,0.007743629,0,0.000481312,0
862.387,0.006804319,0,0.000299314,0
872.417,0.006952873,0,0.000245522,0
882.445,0.007264931,0,0.000399108,0
892.477,0.006996043,0,0.000298465,0
902.507,0.006832108,0,0.000269154,0
912.535,0.006936617,0,0.000250706,0
922.478,0.006906759,0,0.000241672,0
932.423,0.007171452,0,0.000265281,0
942.45,0.00697033,0,0.000333976,0
952.484,0.006412585,0,0.000306831,0
962.512,0.006545263,0,0.000275566,0
972.538,0.006652724,0,0.00028349,0
982.568,0.006637542,0,0.000315144,0
992.6,0.006825153,0,0.000316731,0
1002.63,0.006440976,0,0.000262823,0
1012.49,0.006112104,0,0.000504325,0
1022.52,0.00677334,0,0.000315091,0
1032.38,0.005904874,0,0.000285201,0
1042.42,0.006150418,0,0.000359261,0
1052.45,0.006107616,0,0.000424447,0
1062.48,0.005908161,0,0.000353434,0
1072.52,0.005449158,0,0.000239147,0
1082.46,0.005488405,0,0.000408713,0
1092.41,0.005297237,0,0.000348249,0
1102.44,0.004792896,0,0.000278351,0
1112.47,0.005005179,0,0.000389307,0
1122.5,0.004373915,0,0.000330411,0
1132.53,0.004766959,0,0.000371124,0
1142.56,0.00439553,0,0.000502216,0
1152.58,0.004146942,0,0.000333447,0
1162.61,0.004071744,0,0.000471701,0
1172.64,0.003880335,0,0.00046103,0
1182.59,0.0037243,0,0.000434938,0
1192.36,0.003471801,0,0.000392601,0
1202.4,0.003444591,0,0.000368149,0
1212.43,0.002558952,0,0.000391452,0
1222.46,0.002867144,0,0.000240127,0
1232.49,0.002465634,0,0.000329903,0
1242.52,0.002742845,0,0.000293195,0
1252.39,0.002031831,0,0.000270302,0
1262.42,0.001619913,0,0.000313473,0
1272.44,0.001422879,0,0.000279825,0
1282.48,0.002200714,0,0.000244517,0
1292.5,0.00154366,0,0.000308034,0
1302.53,0.001580303,0,0.000346075,0
1312.56,0.001131464,0,0.000227463,0
1322.59,0.001236126,0,0.000230489,0
1332.62,0.000909401,0,0.000235263,0
1342.65,0.001027229,0,0.000237798,0
1352.67,0.000966789,0,0.000187812,0
1362.45,0.000772343,0,0.00027106,0
1372.4,0.000407457,0,0.000228462,0
1382.43,0.000630153,0,0.000147959,0
1392.46,0.000784031,0,0.000125058,0
1402.49,0.000809679,0,0.000140504,0
1412.44,0.000850405,0,0.000159049,0
1422.39,0.000405341,0,9.85E-05,0
1432.41,0.000184743,0,0.000139666,0
1442.44,0.000256977,0,0.000151849,0
1452.48,0.000455227,0,0.00026911,0
1462.5,0.000459946,0,0.000121643,0
1472.53,0.000389098,0,0.000120056,0
1482.56,0.000145924,0,0.000178683,0
1492.59,0.000233954,0,0.000180943,0
1502.62,0.000171309,0,0.000203038,0
1512.66,0.000340532,0,0.00011236,0
1522.61,0.000270272,0,0.000137006,0
1532.38,0.000255886,0,0.000102994,0
1542.41,8.77E-05,0,0.000159325,0
1552.44,0.00020779,0,0.000129431,0
1562.47,0.000567547,0,0.000356085,0
1572.5,0.000299756,0,0.000216309,0
1582.52,1.83E-05,0,0.000155955,0
1592.39,-0.000178477,0,0.000210462,0
1602.41,0.000163166,0,0.000240251,0
1612.44,0.000308098,0,0.000138209,0
1622.46,-1.13E-05,0,0.000161153,0
1632.49,0.000153312,0,0.000164803,0
1642.52,0.000226947,0,0.00010308,0
1652.55,5.52E-05,0,0.000160518,0
1662.57,0.000584407,0,0.000300068,0
1672.6,0.000533149,0,0.000375924,0
1682.55,-0.000162649,0,0.000244549,0

File: UMD_CAPA_60kW_Mass.csv
Time,MLR_mean,Temp_avg_all4,MLR_error,Temperature_Error
[s],[kg/s/m2],[K],[kg/s/m2],[K]
2.49315,-0.000260366,0,0.001030198,0
7.50806,-0.0002508,0,0.000454634,0
12.5234,0.001199156,0,0.000289296,0
17.5398,0.000973333,0,0.000337859,0
22.55627,0.004774699,0,0.000927216,0
27.57311,0.01073036,0,0.001089449,0
32.5914,0.0156333,0,0.00069556,0
37.6118,0.0172381,0,0.00058606,0
42.6298,0.01814478,0,0.000399137,0
47.64548,0.0189136,0,0.000304719,0
52.6607,0.0205649,0,0.000364624,0
57.6754,0.0209623,0,0.000343216,0
62.5681,0.0226332,0,0.000691289,0
67.45539,0.02250719,0,0.000585457,0
72.4715,0.0228395,0,0.00071374,0
77.4877,0.0230462,0,0.000412467,0
82.5044,0.0221966,0,0.000592869,0
87.5186,0.023085,0,0.000342244,0
92.53275,0.0238895,0,0.000370589,0
97.54921,0.0241009,0,0.000748653,0
102.564,0.0234109,0,0.000630322,0
107.4496,0.0239424,0,0.0007359,0
112.342,0.0244553,0,0.000342419,0
117.36,0.0242955,0,0.000397993,0
122.377,0.0240836,0,0.000545008,0
127.394,0.02500547,0,0.000452827,0
132.409,0.0243988,0,0.000494299,0
137.423,0.0255058,0,0.000412429,0
142.439,0.0253787,0,0.000678547,0
147.456,0.0253273,0,0.000354926,0
152.47,0.0248779,0,0.00043408,0
157.485,0.0265038,0,0.000568927,0
162.5021,0.0262602,0,0.00040276,0
167.518,0.0267962,0,0.000324452,0
172.533,0.02711086,0,0.000432136,0
177.548,0.0273605,0,0.000420058,0
182.5651,0.02743618,0,0.000432462,0
187.581,0.0283264,0,0.000528299,0
192.599,0.0285004,0,0.000493924,0
197.616,0.028594,0,0.000610944,0
202.632,0.030101,0,0.000446942,0
207.647,0.0297525,0,0.000407067,0
212.663,0.0300825,0,0.000738712,0
217.678,0.0306388,0,0.000618145,0
222.691,0.0310901,0,0.000573707,0
227.585,0.0317358,0,0.000806875,0
232.471,0.0318161,0,0.000683193,0
237.486,0.0336127,0,0.000683338,0
242.505,0.0328179,0,0.000645993,0
247.399,0.0311889,0,0.000496448,0
252.298,0.0320065,0,0.000520398,0
257.316,0.031702,0,0.000572916,0
262.333,0.0317445,0,0.000656471,0
267.348,0.0295659,0,0.000658074,0
272.364,0.0279077,0,0.000555152,0
277.38,0.0214195,0,0.001515462,0
282.395,0.0194969,0,0.001064124,0
287.408,0.0122424,0,0.001137212,0
292.421,0.006669651,0,0.000769452,0
297.438,0.003084511,0,0.000419058,0
302.455,0.002055262,0,0.00053601,0
307.471,0.000547483,0,0.000117617,0
312.488,0.000442644,0,0.000154365,0
317.505,-2.57E-05,0,7.59E-05,0
322.521,0.000402156,0,7.62E-05,0
327.536,0.000171301,0,0.000169722,0
332.551,6.63E-05,0,0.000103988,0
337.568,0.000357048,0,0.000233377,0
342.587,-0.000455311,0,0.000257242,0
347.606,0.000117551,0,0.000105651,0
352.625,0.000141132,0,6.95E-05,0
357.643,0.001402371,0,0.001084554,0
362.544,0.002002406,0,0.001226431,0

File: UMD_MCC_N2_60K.csv
Time,Temperature,HRR,HRR error
[s],[K],[W/g],[W/g]
0,349.619,2.22E-16,4.44E-16
2,350.138,-0.0286044,0.23816
4,350.737,0.0617858,0.102023
6,351.419,0.157928,0.156786
8.001,352.13,0.245331,0.160805
10.001,352.906,0.30498,0.215998
12.001,353.724,0.306623,0.275144
14.001,354.627,0.346021,0.327499
16,355.537,0.426656,0.259623
18,356.53,0.38206,0.264059
20.002,357.577,0.519707,0.284336
22.001,358.647,0.5886,0.283263
24,359.777,0.674992,0.275715
26,360.954,0.671639,0.217632
28.001,362.203,0.726037,0.164635
30,363.433,0.800178,0.167319
32.001,364.738,0.896573,0.334457
34.001,366.115,0.941721,0.278254
36.001,367.509,0.899119,0.212691
38,368.926,0.819016,0.214902
40.001,370.422,0.918905,0.324396
42,371.959,0.965801,0.424392
44.001,373.499,0.977696,0.417997
46.002,375.098,0.883852,0.47137
48,376.746,0.956241,0.590675
50.001,378.429,0.970889,0.565272
52.001,380.115,1.02678,0.486557
54,381.884,1.12392,0.561982
56.001,383.689,1.12907,0.568172
58.001,385.48,1.11072,0.649537
60,387.326,1.30787,0.617573
62.001,389.239,1.36751,0.516833
64,391.16,1.52616,0.651857
66,393.042,1.60405,0.504678
68.001,395.029,1.72045,0.502235
70.001,397.055,2.08584,0.573411
72.001,399.018,2.29374,0.668006
74.002,401.024,2.62889,0.605328
76,403.119,2.85302,0.63219
78.001,405.17,3.10893,0.658997
80.002,407.211,3.38907,0.768444
82.001,409.349,3.60346,0.812423
84,411.517,3.79611,0.793478
86,413.597,4.07126,0.869172
88.001,415.75,4.3979,0.951095
90,417.936,4.70329,0.952111
92,420.097,4.95445,0.912066
94.001,422.235,5.38735,0.994601
96.001,424.427,5.97598,1.17996
98.001,426.65,6.57688,1.34319
100.001,428.799,7.04228,1.27546
102.001,430.985,7.52317,1.23343
104.001,433.189,7.95832,1.29451
106.001,435.378,8.59097,1.22924
108.001,437.501,9.23586,1.22668
110.001,439.731,9.80076,1.1631
112.001,441.927,10.2714,1.07638
114.001,444.058,10.6408,0.859874
116.001,446.236,11.0214,0.621184
118.001,448.428,11.3256,0.427458
120.001,450.594,11.4835,0.301505
122.001,452.7,11.5301,0.217944
124.001,454.899,11.5005,0.439075
126.001,457.07,11.3327,0.714548
128,459.178,11.0338,0.785644
130.001,461.305,10.7417,0.981291
132,463.499,10.2589,1.13145
134.001,465.614,9.6255,1.28486
136,467.713,8.9244,1.54876
138,469.882,8.10029,1.55865
140,472.029,7.31719,1.67214
142.001,474.105,6.55909,1.56468
144.001,476.168,5.63523,1.48171
146.001,478.293,5.02263,1.43891
148,480.349,4.57652,1.26358
150.001,482.356,4.11892,1.20264
152.001,484.455,3.76557,0.987145
154.001,486.533,3.31621,0.720265
156.001,488.54,3.00335,0.650396
158.001,490.572,2.91,0.590803
160,492.65,2.84639,0.500333
162.001,494.667,2.87304,0.446183
164.001,496.642,2.88269,0.471283
166.001,498.693,3.03258,0.371813
168,500.729,3.09773,0.408343
170,502.695,3.16262,0.441306
172,504.712,3.23927,0.316474
174.001,506.755,3.33266,0.311967
176,508.754,3.41831,0.380836
178,510.709,3.57545,0.469813
180.001,512.742,3.57661,0.462169
182.001,514.769,3.65275,0.42251
184,516.72,3.77864,0.363974
186,518.687,3.93653,0.419755
188,520.729,4.17443,0.443701
190.001,522.71,4.35083,0.447565
192.001,524.649,4.48347,0.548328
194.001,526.656,4.74112,0.629615
196,528.698,4.97701,0.686492
198.001,530.627,5.18191,0.86219
200.001,532.615,5.52256,0.898747
202,534.607,5.87545,0.984177
204.001,536.583,6.11285,1.08684
206.001,538.513,6.58749,1.11016
208.001,540.537,7.21814,1.24713
210.001,542.538,7.76754,1.3255
212.001,544.493,8.46443,1.43669
214.001,546.47,9.14808,1.58859
216.001,548.477,9.96672,1.61571
218.001,550.447,10.7226,1.78924
220.001,552.406,11.6943,1.9082
222.001,554.444,12.7487,2.16247
224.001,556.465,13.9291,2.43163
226.001,558.402,15.1964,2.68407
228.001,560.416,16.6221,3.07518
230.001,562.428,18.132,3.46331
232.001,564.44,19.8546,3.91188
234.001,566.412,21.7823,4.3502
236.001,568.444,23.7852,4.93956
238.001,570.494,26.1276,5.6219
240.001,572.451,28.7692,6.3421
242.001,574.443,31.6201,7.00856
244.001,576.488,34.8718,7.92491
246.001,578.508,38.3124,8.85901
248.001,580.483,42.1418,9.89285
250.001,582.531,46.5544,11.0999
252.001,584.571,51.4826,12.2464
254.001,586.537,56.889,13.4971
256.001,588.542,62.9176,14.7457
258.001,590.602,69.4028,15.8404
260.001,592.609,76.4942,16.9871
262.001,594.572,84.4661,17.9422
264.001,596.6,92.9167,19.0827
266.001,598.645,101.945,20.1059
268.001,600.597,111.617,20.7453
270.001,602.58,121.825,21.3736
272.001,604.603,132.624,21.8716
274.001,606.612,143.862,22.3829
276.001,608.568,155.617,22.7965
278.001,610.6,167.712,23.1876
280.001,612.628,180.092,23.4136
282.001,614.583,192.655,23.3787
284.001,616.568,205.309,23.3947
286.001,618.596,217.424,23.0462
288.001,620.577,229.341,22.3988
290.001,622.529,240.753,21.3436
292.001,624.544,251.635,19.7544
294.001,626.573,261.506,17.8715
296.001,628.519,270.173,15.3136
298.001,630.505,277.881,13.0735
300.001,632.517,283.951,10.768
302.001,634.479,288.295,7.82562
304.001,636.411,291.517,6.04796
306.001,638.416,293.307,5.80964
308.001,640.42,295.46,5.38296
310.001,642.358,295.432,7.10953
312.001,644.337,295.183,6.55164
314.001,646.34,292.581,8.39169
316.001,648.314,292.607,9.20496
318.001,650.251,293.069,7.49025
320.001,652.252,293.58,7.69479
322.001,654.276,292.469,9.05312
324.001,656.186,288.724,9.18074
326.001,658.169,286.34,10.8046
328.001,660.177,284.921,8.01844
330.001,662.143,284.201,8.68028
332.001,664.096,279.466,11.5504
334.001,666.127,270.525,15.6372
336.001,668.143,259.343,20.6934
338.001,670.1,245.58,23.2076
340.001,672.115,231.104,24.3788
342.001,674.159,216.397,25.5074
344.001,676.185,200.26,26.8154
346.001,678.179,183.05,29.1107
348.001,680.247,165.579,30.3905
350.001,682.329,148.885,29.8989
352.001,684.365,131.677,28.866
354.001,686.409,114.401,28.9986
356.001,688.506,98.4892,29.4847
358.001,690.559,83.8758,29.0134
360.001,692.601,70.3959,26.9201
362.001,694.733,58.0721,24.0244
364.001,696.865,47.248,20.9654
366.001,698.88,38.0296,17.7723
368.001,700.984,30.194,14.884
370.001,703.072,23.9012,12.2553
372.001,705.152,18.6798,9.83731
374.001,707.172,14.3322,7.78692
376.001,709.276,11.0406,6.14622
378.001,711.367,8.50226,4.69722
380.002,713.372,6.47841,3.39918
382.001,715.398,5.0343,2.40691
384.001,717.481,3.80445,1.86686
386.001,719.482,2.86609,1.34794
388.001,721.478,2.18449,1.06494
390.001,723.504,1.64389,0.82274
392.001,725.552,1.18803,0.644228
394.001,727.51,0.845674,0.466119
396.001,729.494,0.45482,0.363002
398.001,731.52,0.135465,0.155272
400.001,733.51,0.046361,0.215139
402.001,735.416,-0.0799934,0.0890467
404.001,737.445,-0.113598,0.07719308
406.001,739.424,-0.157202,0.144877
408.001,741.346,-0.132055,0.228075
410.001,743.304,-0.0749112,0.212617
412.001,745.306,-0.0982656,0.235842
414.001,747.261,-0.06512008,0.329561
416.001,749.186,-0.113475,0.291162
418.001,751.185,-0.088329,0.321547
420.001,753.148,-0.0599334,0.335261
422.001,755.099,-0.102788,0.353081
424.001,757.047,-0.0776423,0.417014
426.001,759.036,-0.176997,0.390848
428.001,761.009,-0.195349,0.341838
430.001,762.943,-0.164956,0.272073
432.001,764.935,-0.10206,0.343565
434.001,766.949,0.0148355,0.309615
436.001,768.872,0.0202331,0.423153
438.001,770.837,-0.0251234,0.327271
440.001,772.851,-0.0399779,0.30851
442.001,774.827,0.0201677,0.250153
444.001,776.782,0.0795653,0.238917
446.001,778.806,0.154711,0.2106334
448.001,780.809,0.0796043,0.127175
450.001,782.76,0.0542499,0.120136
452.001,784.76,0.0553955,0.267766
454.001,786.786,0.070041,0.258282
456.001,788.74,0.105687,0.13673
458.001,790.704,0.0845821,0.0574372
460.001,792.742,0.0502277,0.0583655