Folder: matl-db/PMMA/Calibration_Data/UMD (part 2)

File: UMD_TGA_N2_10K_1.csv
Time,Temperature,Mass fraction,Error
[s],[K],[g/g],[g/g]
0,313,0.9998,0.001198471
37.9164,315.004,0.9996,0.001293813
63.1614,317.008,0.9998,0.001365585
83.3904,319.012,0.9999,0.001118732
100.8498,321.016,1,0.001380561
116.4846,323.02,0.9998,0.001265987
130.8396,325.024,0.9998,0.001322176
144.2358,327.028,1.0001,0.001265841
156.8634,329.032,0.9995,0.00131636
168.8988,331.036,0.9997,0.001546361
180.4452,333.04,0.9995,0.001186004
191.5914,335.044,0.9998,0.001103124
202.3938,337.048,0.9996,0.001053358
212.8932,339.052,0.9997,0.001389616
223.1484,341.056,0.9998,0.00151285
233.1828,343.06,0.9997,0.001217349
243.0366,345.064,1.0001,0.001294516
252.729,347.068,1,0.001183509
262.2858,349.072,0.9996,0.001147352
271.7142,351.076,0.9998,0.001093361
281.0394,353.08,0.9999,0.001228348
290.2644,355.084,0.9996,0.00104906
299.4228,357.088,1.0001,0.001074589
308.523,359.092,0.9996,0.001374766
317.5584,361.096,1.0001,0.001284437
326.5482,363.1,1,0.001326996
335.5002,365.104,0.9995,0.001193706
344.4222,367.108,0.9998,0.001052528
353.3262,369.112,0.9999,0.001300991
362.2224,371.116,1,0.001342246
371.1114,373.12,0.9998,0.001363547
379.9956,375.124,0.9996,0.001407048
388.8828,377.128,0.9997,0.001154746
397.782,379.132,0.9996,0.001257354
406.7004,381.136,0.9998,0.001265686
415.641,383.14,0.9994,0.001380382
424.6044,385.144,0.9995,0.001252448
433.6074,387.148,0.9997,0.00119828
442.6548,389.152,0.9997,0.001623725
451.74,391.156,0.9995,0.001404444
460.8756,393.16,0.9996,0.001446118
470.0682,395.164,0.9989,0.001438119
479.3172,397.168,0.9995,0.001566402
488.6268,399.172,0.9996,0.001665496
498.0054,401.176,0.999,0.001311392
507.453,403.18,0.9991,0.001419695
516.975,405.184,0.9988,0.001470763
526.5732,407.188,0.9988,0.001270898
536.2428,409.192,0.9986,0.001482853
546.0012,411.196,0.9987,0.001500944
555.8508,413.2,0.9985,0.001550034
565.7856,415.204,0.9987,0.001728306
575.8182,417.208,0.9981,0.001621352
585.9492,419.212,0.998,0.001404917
596.178,421.216,0.9975,0.001401823
606.5046,423.22,0.9977,0.001564235
616.9332,425.224,0.9973,0.001532047
627.4626,427.228,0.9968,0.001388719
638.103,429.232,0.9968,0.001468175
648.8544,431.236,0.9962,0.001425998
659.7114,433.24,0.9961,0.001433161
670.6656,435.244,0.9957,0.001707643
681.726,437.248,0.9955,0.00153836
692.9016,439.252,0.9951,0.001504347
704.178,441.256,0.9945,0.001423738
715.5558,443.26,0.994,0.001404607
727.0296,445.264,0.9933,0.001458704
738.6012,447.268,0.9927,0.001507455
750.2676,449.272,0.9918,0.001547753
762.0156,451.276,0.991,0.001560247
773.8404,453.28,0.9902,0.001299803
785.7522,455.284,0.9891,0.001256126
797.733,457.288,0.9879,0.00140765
809.781,459.292,0.9865,0.001359962
821.8914,461.296,0.9854,0.001327356
834.054,463.3,0.984,0.001435021
846.2556,465.304,0.9827,0.001238888
858.5058,467.308,0.9816,0.001295756
870.7836,469.312,0.9805,0.001189875
883.0806,471.316,0.9795,0.001191368
895.4028,473.32,0.979,0.001148752
907.7406,475.324,0.9783,0.001104934
920.0838,477.328,0.9777,0.001005178
932.4414,479.332,0.9772,0.001291039
944.8026,481.336,0.977,0.001027656
957.1488,483.34,0.9769,0.001231744
969.4938,485.344,0.9763,0.001157926
981.8202,487.348,0.9759,0.001285023
994.1322,489.352,0.9754,0.001234848
1006.44,491.356,0.9751,0.001127937
1018.74,493.36,0.9754,0.00105389
1031.02,495.364,0.9751,0.00110553
1043.27,497.368,0.9746,0.001011854
1055.48,499.372,0.974,0.001453974
1067.68,501.376,0.9743,0.001390372
1079.856,503.38,0.974,0.001110095
1092,505.384,0.974,0.001123213
1104.11,507.388,0.9736,0.00104544
1116.2,509.392,0.9735,0.001336355
1128.25,511.396,0.9729,0.001105022
1140.27,513.4,0.9728,0.001147443
1152.27,515.404,0.9731,0.001146771
1164.231,517.408,0.9726,0.000878463
1176.17,519.412,0.9724,0.001245503
1188.08,521.416,0.9721,0.001408383
1199.96,523.42,0.9721,0.001327472
1211.82,525.424,0.9719,0.001188231
1223.646,527.428,0.9717,0.001170392
1235.45,529.432,0.9713,0.001397513
1247.23,531.436,0.9708,0.001399202
1259.004,533.44,0.9708,0.001469121
1270.75,535.444,0.9707,0.001259738
1282.48,537.448,0.9702,0.001129181
1294.197,539.452,0.9698,0.001324409
1305.9,541.456,0.969,0.001064544
1317.6,543.46,0.9685,0.00125881
1329.28,545.464,0.9683,0.001402379
1340.95,547.468,0.9671,0.001376242
1352.61,549.472,0.9666,0.001138603
1364.268,551.476,0.9662,0.001339772
1375.9,553.48,0.9652,0.001331467
1387.53,555.484,0.9644,0.001728955
1399.164,557.488,0.9631,0.001161015
1410.79,559.492,0.9622,0.001237761
1422.42,561.496,0.9611,0.001595475
1434.036,563.5,0.9591,0.001421055
1445.65,565.504,0.958,0.001766736
1457.27,567.508,0.9558,0.00134043
1468.88,569.512,0.9546,0.00180439
1480.49,571.516,0.9524,0.001727496
1492.11,573.52,0.9505,0.001735098
1503.72,575.524,0.9481,0.002086145
1515.33,577.528,0.9462,0.001691137
1526.96,579.532,0.9442,0.001594364
1538.58,581.536,0.9422,0.001976084
1550.21,583.54,0.9396,0.001889877
1561.863,585.544,0.9374,0.002389361
1573.51,587.548,0.934,0.001830164
1585.17,589.552,0.9311,0.002023874
1596.85,591.556,0.9272,0.002003738
1608.537,593.56,0.9234,0.002042449
1620.228,595.564,0.9186,0.002138393
1631.93,597.568,0.9122,0.003024609
1643.66,599.572,0.9062,0.002772381
1655.39,601.576,0.8987,0.00308442
1667.133,603.58,0.8896,0.003690708
1678.89,605.584,0.8804,0.003625264
1690.65,607.588,0.869,0.00485152
1702.413,609.592,0.8564,0.004989718
1714.18,611.596,0.842,0.00576092
1725.97,613.6,0.8265,0.006483893
1737.76,615.604,0.8093,0.007590087
1749.54,617.608,0.7898,0.007881365
1761.33,619.612,0.7685,0.008618026
1773.12,621.616,0.7454,0.009809563
1784.91,623.62,0.72,0.010125
1796.68,625.624,0.6936,0.0104692
1808.45,627.628,0.6657,0.0116566
1820.214,629.632,0.6362,0.0129499
1831.95,631.636,0.6042,0.0131988
1843.69,633.64,0.5726,0.0140058
1855.43,635.644,0.5392,0.0147793
1867.15,637.648,0.5047,0.0159153
1878.87,639.652,0.4706,0.0157585
1890.56,641.656,0.4351,0.0169089
1902.23,643.66,0.4007,0.0169643
1913.85,645.664,0.3662,0.0174355
1925.46,647.668,0.3345,0.017606
1937.07,649.672,0.3027,0.0171689
1948.7,651.676,0.2718,0.0177134
1960.35,653.68,0.2409,0.0178475
1972,655.684,0.2123,0.0181173
1983.63,657.688,0.1834,0.0174321
1995.22,659.692,0.1562,0.0159095
2006.799,661.696,0.1325,0.0141954
2018.39,663.7,0.1114,0.0126815
2029.99,665.704,0.0933,0.0111082
2041.6,667.708,0.0763,0.00928931
2053.24,669.712,0.0633,0.008403459
2064.91,671.716,0.0514,0.006868098
2076.61,673.72,0.0419,0.005512037
2088.35,675.724,0.0342,0.005324656
2100.13,677.728,0.0276,0.004620792
2111.93,679.732,0.0217,0.003785804
2123.78,681.736,0.0178,0.003489974
2135.66,683.74,0.0145,0.003100762
2147.59,685.744,0.0118,0.003204962
2159.55,687.748,0.0095,0.002862296
2171.55,689.752,0.0079,0.002825529
2183.586,691.756,0.0066,0.002808031
2195.67,693.76,0.0054,0.002613106
2207.769,695.764,0.0042,0.002670496
2219.92,697.768,0.0036,0.002486648
2232.078,699.772,0.0029,0.002859799
2244.28,701.776,0.0025,0.002195895
2256.51,703.78,0.0025,0.002631677
2268.717,705.784,0.0018,0.002200847
2280.972,707.788,0.0019,0.002308455
2293.296,709.792,0.0015,0.002271543
2305.67,711.796,0.0014,0.002142939
2318.1,713.8,0.0016,0.002139331
2330.54,715.804,0.0013,0.002545239
2342.976,717.808,0.0016,0.002476497
2355.44,719.812,0.0014,0.002399876
2367.93,721.816,0.0016,0.002351106
2380.43,723.82,0.0014,0.002289224
2392.95,725.824,0.001,0.002390184
2405.49,727.828,0.0016,0.002391217
2418.05,729.832,0.001,0.002306628
2430.61,731.836,0.0011,0.002483701
2443.18,733.84,0.0013,0.002428198
2455.75,735.844,0.001,0.002387971
2468.33,737.848,0.0012,0.00234265
2480.91,739.852,0.0009,0.002376626
2493.49,741.856,0.0012,0.002265934
2506.07,743.86,0.0012,0.00204378
2518.64,745.864,0.0008,0.002549349
2531.22,747.868,0.001,0.002564231
2543.78,749.872,0.0013,0.00242911
2556.34,751.876,0.0011,0.002324925
2568.91,753.88,0.0009,0.002337488
2581.47,755.884,0.0005,0.002345988
2594.01,757.888,0.0009,0.0023039
2606.56,759.892,0.0009,0.002260249
2619.09,761.896,0.0011,0.0021231
2631.61,763.9,0.0011,0.0021852
2644.116,765.904,0.0007,0.002121408
2656.62,767.908,0.0011,0.002315356
2669.12,769.912,0.0007,0.002440993
2681.61,771.916,0.0008,0.002182105
2694.093,773.92,0.0009,0.002497268
2706.558,775.924,0.0007,0.002327984
2719.02,777.928,0.001,0.002489984
2731.48,779.932,0.0009,0.002475817
2743.92,781.936,0.0005,0.002455161
2756.35,783.94,0.0007,0.002472607
2768.78,785.944,0.0005,0.002436769
2781.18,787.948,0.0005,0.002497211
2793.6,789.952,0.0006,0.002326771
2806,791.956,0.0005,0.002620481
2818.39,793.96,0.0004,0.002445971
2830.76,795.964,0.001,0.002341339
2843.13,797.968,0.001,0.002564797
2855.49,799.972,0.0005,0.002599377
2867.85,801.976,0.0006,0.002373425
2880.19,803.98,0.0009,0.002473859
2892.519,805.984,0.0007,0.002351028
2904.86,807.988,0.0009,0.002544615
2917.18,809.992,0.0007,0.002758066
2929.48,811.996,0.0007,0.002597848
2941.79,814,0.0005,0.002281053
2954.09,816.004,0.0006,0.00249708
2966.391,818.008,0.0007,0.00246183
2978.68,820.012,0.0007,0.002627866
2990.97,822.016,0.0008,0.002281159
3003.25,824.02,0.0007,0.00244976
3015.52,826.024,0.0007,0.002324163
3027.79,828.028,0.0011,0.002431746
3040.06,830.032,0.0012,0.002718363
3052.31,832.036,0.0009,0.002601462
3064.575,834.04,0.0008,0.002411965
3076.842,836.044,0.0006,0.002392278
3089.1,838.048,0.0007,0.002593659
3101.34,840.052,0.0007,0.002611441
3113.59,842.056,0.0009,0.002439358
3125.84,844.06,0.0007,0.00267121
3138.09,846.064,0.0009,0.002676944
3150.33,848.068,0.0008,0.002462772
3162.58,850.072,0.0007,0.002467097
3174.83,852.076,0.0007,0.00262246
3187.083,854.08,0.0005,0.002635925
3199.33,856.084,0.0008,0.002334484
3211.58,858.088,0.0007,0.002330347
3223.83,860.092,0.0008,0.002554441
3236.08,862.096,0.0005,0.00263104
3248.34,864.1,0.0009,0.002673003
3260.58,866.104,0.0009,0.002563073
3272.83,868.108,0.0008,0.002675361
3278.95,869.11,0.0008,0.002711199