Folder: matl-db/PMMA/Calibration_Data/UMET (part 3)

File: UMET_TGA_N2_100K_1.csv
Time,Temperature,Mass
[s],[K],[mg]
0,313.115,5.3644
1.2,315.115,5.3535
2.4,317.115,5.354
3.6,319.115,5.3545
4.8,321.115,5.35452
6,323.115,5.3546
7.2,325.115,5.35472
8.4,327.115,5.3546
9.6,329.115,5.35456
10.8,331.115,5.3546
12,333.115,5.35458
13.2,335.115,5.3548
14.4,337.115,5.35466
15.6,339.115,5.35462
16.8,341.115,5.35484
18,343.115,5.355
19.2,345.115,5.35494
20.4,347.115,5.35473
21.6,349.115,5.35496
22.8,351.115,5.35495
24,353.115,5.35473
25.2,355.115,5.35466
26.4,357.115,5.35473
27.6,359.115,5.35473
28.8,361.115,5.3544
30,363.115,5.35442
31.2,365.115,5.35444
32.4,367.115,5.35423
33.6,369.115,5.35438
34.8,371.115,5.3544
36,373.115,5.35445
37.2,375.115,5.35422
38.4,377.115,5.3544
39.6,379.115,5.35428
40.8,381.115,5.3544
42,383.115,5.3544
43.2,385.115,5.3543
44.4,387.115,5.3543
45.6,389.115,5.3542
46.8,391.115,5.354
48,393.115,5.3541
49.2,395.115,5.3541
50.4,397.115,5.35411
51.6,399.115,5.35397
52.8,401.115,5.354
54,403.115,5.3539
55.2,405.115,5.35392
56.4,407.115,5.35379
57.6,409.115,5.35358
58.8,411.115,5.35368
60,413.115,5.3536
61.2,415.115,5.35378
62.4,417.115,5.3534
63.6,419.115,5.35339
64.8,421.115,5.35327
66,423.115,5.3532
67.2,425.115,5.3526
68.4,427.115,5.35251
69.6,429.115,5.35198
70.8,431.115,5.35181
72,433.115,5.3513
73.2,435.115,5.3504
74.4,437.115,5.34959
75.6,439.115,5.34875
76.8,441.115,5.348
78,443.115,5.34717
79.2,445.115,5.34601
80.4,447.115,5.345
81.6,449.115,5.34404
82.8,451.115,5.34301
84,453.115,5.34192
85.2,455.115,5.3405
86.4,457.115,5.339
87.6,459.115,5.33763
88.8,461.115,5.33581
90,463.115,5.33366
91.2,465.115,5.33175
92.4,467.115,5.32919
93.6,469.115,5.32649
94.8,471.115,5.32393
96,473.115,5.32133
97.2,475.115,5.31813
98.4,477.115,5.31477
99.6,479.115,5.31148
100.8,481.115,5.30802
102,483.115,5.30447
103.2,485.115,5.30114
104.4,487.115,5.29765
105.6,489.115,5.29401
106.8,491.115,5.29063
108,493.115,5.28635
109.2,495.115,5.28339
110.4,497.115,5.27976
111.6,499.115,5.27628
112.8,501.115,5.27282
114,503.115,5.26941
115.2,505.115,5.26589
116.4,507.115,5.26269
117.6,509.115,5.25932
118.8,511.115,5.25645
120,513.115,5.25305
121.2,515.115,5.25011
122.4,517.115,5.24724
123.6,519.115,5.24459
124.8,521.115,5.24206
126,523.115,5.23962
127.2,525.115,5.2375
128.4,527.115,5.23538
129.6,529.115,5.23349
130.8,531.115,5.23172
132,533.115,5.22971
133.2,535.115,5.22791
134.4,537.115,5.2262
135.6,539.115,5.22452
136.8,541.115,5.22281
138,543.115,5.2208
139.2,545.115,5.21929
140.4,547.115,5.21757
141.6,549.115,5.2159
142.8,551.115,5.21414
144,553.115,5.21234
145.2,555.115,5.21047
146.4,557.115,5.20855
147.6,559.115,5.20663
148.8,561.115,5.2045
150,563.115,5.20219
151.2,565.115,5.19963
152.4,567.115,5.19687
153.6,569.115,5.19387
154.8,571.115,5.1904
156,573.115,5.18674
157.2,575.115,5.18303
158.4,577.115,5.17868
159.6,579.115,5.17378
160.8,581.115,5.16644
162,583.115,5.14665
163.2,585.115,5.13892
164.4,587.115,5.13089
165.6,589.115,5.12246
166.8,591.115,5.11422
168,593.115,5.10536
169.2,595.115,5.09591
170.4,597.115,5.08558
171.6,599.115,5.0741
172.8,601.115,5.06137
174,603.115,5.04738
175.2,605.115,5.03171
176.4,607.115,5.01372
177.6,609.115,4.99376
178.8,611.115,4.97117
180,613.115,4.94542
181.2,615.115,4.91589
182.4,617.115,4.88304
183.6,619.115,4.84665
184.8,621.115,4.80636
186,623.115,4.76151
187.2,625.115,4.71269
188.4,627.115,4.65883
189.6,629.115,4.59905
190.8,631.115,4.53292
192,633.115,4.45101
193.2,635.115,4.25872
194.4,637.115,4.16633
195.6,639.115,4.06389
196.8,641.115,3.95306
198,643.115,3.83723
199.2,645.115,3.72063
200.4,647.115,3.60065
201.6,649.115,3.4753
202.8,651.115,3.33977
204,653.115,3.19462
205.2,655.115,3.04508
206.4,657.115,2.89586
207.6,659.115,2.74733
208.8,661.115,2.59423
210,663.115,2.43335
211.2,665.115,2.26764
212.4,667.115,2.10576
213.6,669.115,1.95128
214.8,671.115,1.8027
216,673.115,1.66139
217.2,675.115,1.52338
218.4,677.115,1.39459
219.6,679.115,1.27428
220.8,681.115,1.1581
222,683.115,1.04162
223.2,685.115,0.922431
224.4,687.115,0.799366
225.6,689.115,0.662335
226.8,691.115,0.525232
228,693.115,0.407616
229.2,695.115,0.31618
230.4,697.115,0.237288
231.6,699.115,0.174068
232.8,701.115,0.127295
234,703.115,0.0946956
235.2,705.115,0.0693241
236.4,707.115,0.050494
237.6,709.115,0.0366775
238.8,711.115,0.0275296
240,713.115,0.0219779
241.2,715.115,0.0157595
242.4,717.115,0.0127512
243.6,719.115,0.00998744
244.8,721.115,0.008248301
246,723.115,0.006459274
247.2,725.115,0
248.4,727.115,0
249.6,729.115,0
250.8,731.115,0
252,733.115,0
253.2,735.115,0
254.4,737.115,0
255.6,739.115,0
256.8,741.115,0
258,743.115,0
259.2,745.115,0
260.4,747.115,0
261.6,749.115,0
262.8,751.115,0
264,753.115,0
265.2,755.115,0
266.4,757.115,0
267.6,759.115,0
268.8,761.115,0
270,763.115,0
271.2,765.115,0
272.4,767.115,0
273.6,769.115,0
274.8,771.115,0
276,773.115,0
276.3,773.615,0