Folder: matl-db/PMMA/Calibration_Data/UMET

Note: PMMA/Calibration_Data/UMET/README.md
# University of Lille - ENSCL - Unite Materiaux et Transformations (UMET)

### Experimental Conditions, TGA

* Heating Rates: 1, 2, 5, 10, 20, 50, and 100 K/min
* Temperature program
  - Initial Temperature: 313.15 K
  - Initial Isotherm: None
  - Maximum Temperature: 1273.15 K
  - Final Isotherm: None
* Sample mass: 3.93 – 5.98 mg
* Sample geometry: powdered
* Calibration type: Temperature calibration was performed every 6 months using a set of 5 reference materials with melting temperatures between 156.6 - 660 C
* Crucible
  - Type: Al2O3
  - Volume: 85 µL
  - Diameter: None
  - Mass: None
  - Lid: None
  - Note: None
* Carrier Gas
  - Type: Nitrogen
  - Flow rate: 40 ml/min
  - Note: Nitrogen (Vacuuming and filling according to the desired atmosphere)
* Instrument
  - Type: Netzsch TG 209 Libra
  - Note: None


|Test Name | Heating Rate (K/min) | Initial Sample Mass (mg)|  
|----------|:------:|  :------:| 
|UMET\_TGA\_N2\_1K\_1 | 1 | 4.336 |
|UMET\_TGA\_N2\_2K\_1 | 2 | 4.845 |
|UMET\_TGA\_N2\_5K\_1 | 5 | 4.093 |
|UMET\_TGA\_N2\_10K\_1 | 10 | 5.339  |
|UMET\_TGA\_N2\_20K\_1 | 20 | 3.929  |
|UMET\_TGA\_N2\_50K\_1 | 50 | 5.980 |
|UMET\_TGA\_N2\_100K\_1 | 100 | 5.364 |

NOTE: TGA time data was reported as [s] but appeared to be in units of [min]. Values were scaled by a factor of 60, accordingly.
### Experimental Conditions, DSC

* Measurement of cp was made by comparison with sapphire and using modulation
* Heating Rates: 3, 10, 20 K/min
* Temperature program
  - Initial temperature 243.15 K
  - Maximum Temperature 433.15 K
* Sample mass: ~5 mg
* Sample geometry: powdered
* Calibration type: Cp, enthalpy, melting point; calibration was performed every 6 months using sapphire (Cp) and Indium (enthalpy, melting point)
* Crucible type: Aluminum
* Carrier Gas
  - Nitrogen 
  - Flow rate = 50 ml/min
* Instrument type: Discovery TA


|Test Name | Heating Rate (K/min) | 
|----------|:------:|  
|UMET\_DSC\_N2\_3K\_1 | 3 | 
|UMET\_DSC\_N2\_10K\_1 | 10 |
|UMET\_DSC\_N2\_10K\_2 | 10 |
|UMET\_DSC\_N2\_20K\_1 | 20 |
|UMET\_DSC\_N2\_20K\_2 | 20 |

### Diffusivity (LFA 467 Hyperflash- Netzsch):
* Laser flash analysis
* 3 flash for each temperature
* Square sample 25.4*25.4cm²
* Both sides of the sample coated with graphite paint

### Conductivity (TPS 2500S-Hot Disk):
* Transient Plane Source (TPS) method
* Kapton sensor (radius 2.0mm)
* Ambient temperature measurement
* 2 plates for measurement
* Isotropic material
* The material is considered as semi-infinite when using the appropriate size of the sensor.
* Energy pulse:
  - Power: 35 mW
  - Duration: 20 s

File: UMET_DSC_N2_3K_1.csv
Time,Temperature,Heat Flow
[s],[K],[mW/mg]
0,273.15,0
75,279.189,-0.43273
150,251.653,-0.314221
225,231.327,-0.228212
300,216.365,-0.165016
375,205.551,-0.113586
450,198.531,-0.0692334
525,194.135,-0.0398791
600,192.908,0.0127725
675,193.173,0.00739126
750,193.185,0.00692929
825,193.187,0.00754765
900,193.177,0.00769269
975,193.183,0.00780264
1050,193.184,0.00793483
1125,193.185,0.00805025
1200,193.185,0.00804802
1275,195.655,0.0443832
1350,199.397,0.0483002
1425,203.148,0.0500196
1500,206.898,0.0512021
1575,210.65,0.0522614
1650,214.401,0.0528769
1725,218.151,0.0535868
1800,221.903,0.0545823
1875,225.656,0.0553666
1950,229.403,0.0558975
2025,233.147,0.0564309
2100,236.897,0.0582207
2175,240.654,0.0594112
2250,244.406,0.0606827
2325,248.157,0.0615998
2400,251.909,0.0629586
2475,255.66,0.0642608
2550,259.41,0.0664456
2625,263.159,0.0694841
2700,266.908,0.073785
2775,270.659,0.0783455
2850,274.408,0.0827084
2925,278.159,0.0858262
3000,281.909,0.089003
3075,285.659,0.0903193
3150,289.41,0.0919563
3225,293.16,0.0918329
3300,296.912,0.0910489
3375,300.663,0.0905639
3450,304.415,0.0907377
3525,308.166,0.0903568
3600,311.918,0.0902936
3675,315.668,0.0899742
3750,319.419,0.0901239
3825,323.168,0.089853
3900,326.919,0.0899314
3975,330.67,0.090375
4050,334.421,0.0909161
4125,338.173,0.0916096
4200,341.924,0.0923195
4275,345.675,0.0934951
4350,349.426,0.0946194
4425,353.175,0.0955476
4500,356.927,0.0964624
4575,360.677,0.0976218
4650,364.428,0.0997544
4725,368.178,0.101004
4800,371.928,0.102965
4875,375.677,0.104981
4950,379.427,0.107169
5025,383.177,0.108141
5100,386.93,0.1139
5175,390.678,0.118861
5250,394.427,0.123535
5325,398.177,0.128101
5400,401.927,0.130671
5475,405.679,0.131626
5550,409.43,0.132975
5625,413.179,0.134729
5700,416.927,0.135819
5775,420.676,0.136602
5850,424.424,0.137695
5925,428.176,0.138834
6000,431.927,0.135311
6075,433.195,0.0544246
6150,433.196,0.0515973
6225,433.197,0.0506541
6300,433.196,0.0502082
6375,433.197,0.0499302
6450,433.199,0.0496134
6525,433.198,0.0491545
6600,433.196,0.0490635
6675,430.755,-0.0320105
6750,427.013,-0.0340421
6825,423.263,-0.034543
6900,419.515,-0.0350889
6975,415.768,-0.0352831
7050,412.016,-0.0356961
7125,408.267,-0.0353382
7200,404.517,-0.0349935
7275,400.77,-0.0342582
7350,397.02,-0.0329094
7425,393.274,-0.0305897
7500,389.52,-0.0268773
7575,385.773,-0.0248968
7650,382.026,-0.0234653
7725,378.277,-0.0220556
7800,374.529,-0.0216341
7875,370.774,-0.0203809
7950,367.026,-0.0196391
8025,363.276,-0.0188124
8100,359.527,-0.0187469
8175,355.779,-0.019801
8250,352.029,-0.0206849
8325,348.28,-0.0213444
8400,344.532,-0.0221161
8475,340.785,-0.0229042
8550,337.037,-0.0234158
8625,333.288,-0.0237107
8700,329.539,-0.0242861
8775,325.788,-0.0243663
8850,322.037,-0.0247782
8925,318.288,-0.0245341
9000,314.538,-0.0248984
9075,310.79,-0.025055
9150,307.041,-0.0257563
9225,303.29,-0.0257344
9300,299.536,-0.0259843
9375,295.787,-0.0258399
9450,292.039,-0.0258235
9525,288.288,-0.0260965
9600,284.539,-0.0261402
9675,280.79,-0.0265533
9750,277.039,-0.0267387
9825,273.289,-0.0268205
9900,269.539,-0.027383
9975,265.789,-0.0272583
10050,262.039,-0.0276912
10125,258.29,-0.0279563
10200,254.539,-0.0285008
10275,250.788,-0.0288851
10350,247.038,-0.0290174
10425,243.288,-0.0294817
10500,239.537,-0.0297471
10575,235.787,-0.0301613
10650,232.036,-0.0306263
10725,228.285,-0.0309916
10800,224.535,-0.0313775
10875,220.783,-0.0317339
10950,217.032,-0.032334
11025,213.282,-0.0327038
11100,209.531,-0.0326164
11175,205.78,-0.033135
11250,202.029,-0.0331087
11325,198.278,-0.03314
11400,194.53,-0.0323205
11475,193.209,0.00455533
11550,193.194,0.00849836
11625,193.192,0.00918172
11700,193.192,0.00939466
11775,193.191,0.00921591
11850,193.191,0.00967511
11925,193.191,0.00969917
12000,193.191,0.00980775
12075,195.607,0.0460696
12150,199.346,0.0501884
12225,203.095,0.0519159
12300,206.847,0.0535494
12375,210.597,0.0547927
12450,214.348,0.0554365
12525,218.098,0.056329
12600,221.848,0.057266
12675,225.6,0.0578707
12750,229.349,0.0586133
12825,233.101,0.05948
12900,236.851,0.0605574
12975,240.602,0.0615264
13050,244.353,0.0624854
13125,248.103,0.0635108
13200,251.853,0.0645065
13275,255.603,0.0653824
13350,259.355,0.0663892
13425,263.104,0.0677105
13500,266.854,0.0687631
13575,270.606,0.0702851
13650,274.357,0.0714655
13725,278.109,0.0727672
13800,281.859,0.0739556
13875,285.611,0.0752754
13950,289.362,0.0765724
14025,293.112,0.0779311
14100,296.862,0.0791457
14175,300.614,0.080345
14250,304.364,0.0814788
14325,308.116,0.0828769
14400,311.866,0.0839726
14475,315.617,0.0850858
14550,319.367,0.0863792
14625,323.119,0.087407
14700,326.869,0.0887159
14775,330.62,0.0896923
14850,334.37,0.091105
14925,338.121,0.0923228
15000,341.871,0.0933723
15075,345.621,0.0946893
15150,349.372,0.0962627
15225,353.123,0.0972636
15300,356.874,0.0985921
15375,360.626,0.100208
15450,364.375,0.102472
15525,368.125,0.10393
15600,371.875,0.106015
15675,375.626,0.107828
15750,379.376,0.109809
15825,383.127,0.112668
15900,386.878,0.116104
15975,390.629,0.120699
16050,394.378,0.126102
16125,398.127,0.131261
16200,401.876,0.133843
16275,405.625,0.134271
16350,409.378,0.134108
16425,413.127,0.133898
16500,416.875,0.134306
16575,420.624,0.134446
16650,424.374,0.134973
16725,428.123,0.135132
16800,431.874,0.135501
16875,433.194,0.0545278
16950,433.197,0.0514898
17025,433.196,0.0508614
17100,433.196,0.0504103
17175,433.195,0.0498501
17250,433.196,0.0497915
17325,433.198,0.0497178
17400,433.197,0.0492022
17475,430.808,-0.0319945
17550,427.064,-0.0339827
17625,423.317,-0.034485
17700,419.568,-0.0352696
17775,415.815,-0.0343099
17850,412.067,-0.0339166
17925,408.325,-0.0338732
18000,404.573,-0.0349018
18075,400.82,-0.0334053
18150,397.073,-0.0315744
18225,393.323,-0.0291159
18300,389.575,-0.0263301
18375,385.828,-0.0246207
18450,382.077,-0.0228775
18525,378.324,-0.0211696
18600,374.578,-0.020392
18675,370.828,-0.0195109
18750,367.083,-0.0200653
18825,363.331,-0.0198941
18900,359.583,-0.0202174
18975,355.827,-0.020134
19050,352.082,-0.0212983
19125,348.333,-0.0227092
19200,344.585,-0.0232866
19275,340.836,-0.0243039
19350,337.086,-0.0251012
19425,333.334,-0.0259729
19500,329.587,-0.0265117
19575,325.839,-0.0266908
19650,322.089,-0.0265106
19725,318.339,-0.0268155
19800,314.591,-0.0267534
19875,310.84,-0.0272915
19950,307.091,-0.027441
20025,303.34,-0.0274135
20100,299.592,-0.0276303
20175,295.842,-0.0279119
20250,292.09,-0.0281302
20325,288.34,-0.0277884
20400,284.591,-0.0279631
20475,280.841,-0.0281257
20550,277.092,-0.028425
20625,273.341,-0.0289733
20700,269.59,-0.0288097
20775,265.84,-0.0288833
20850,262.091,-0.0289817
20925,258.341,-0.0293703
21000,254.591,-0.0298472
21075,250.84,-0.0300943
21150,247.09,-0.0302562
21225,243.339,-0.0305374
21300,239.589,-0.0312339
21375,235.838,-0.0313672
21450,232.088,-0.0320311
21525,228.337,-0.032342
21600,224.586,-0.0326786
21675,220.833,-0.033047
21750,217.086,-0.0331579
21825,213.334,-0.0335727
21900,209.583,-0.0339559
21975,205.832,-0.03408
22050,202.081,-0.034412
22125,198.33,-0.0340195
22200,194.582,-0.0334246
22215,193.835,-0.0333037

File: UMET_DSC_N2_20K_2.csv
Time,Temperature,Heat Flow
[s],[K],[mW/mg]
0,273.15,0
21,304.624,-0.587286
42,294.159,-0.531149
63,284.434,-0.425888
84,275.466,-0.399291
105,267.207,-0.375787
126,259.611,-0.349059
147,252.63,-0.321804
168,246.221,-0.295459
189,240.338,-0.270322
210,234.937,-0.247674
231,229.981,-0.227019
252,225.431,-0.208158
273,221.256,-0.188698
294,217.424,-0.173279
315,213.907,-0.158257
336,210.68,-0.144199
357,207.718,-0.131475
378,204.999,-0.119768
399,202.504,-0.108668
420,200.215,-0.098914
441,198.115,-0.0896862
462,196.185,-0.0813238
483,194.357,-0.0752786
504,193.317,-0.0298905
525,193.25,-0.00891194
546,193.22,-0.00259748
567,193.207,0.000958547
588,193.2,0.00286657
609,193.196,0.00416931
630,193.195,0.00504908
651,193.194,0.00575085
672,193.193,0.00601781
693,193.192,0.00634017
714,193.192,0.00641584
735,193.192,0.00656458
756,193.193,0.00667839
777,193.192,0.00668874
798,193.192,0.00673886
819,193.192,0.00679162
840,193.192,0.00679383
861,193.193,0.00694232
882,193.193,0.0070062
903,193.191,0.00701747
924,193.192,0.00703886
945,193.192,0.00685232
966,193.192,0.00692048
987,193.192,0.00692853
1008,193.19,0.00685562
1029,193.189,0.00692555
1050,193.191,0.0069687
1071,193.192,0.0070125
1092,193.19,0.00710546
1113,193.856,-0.0351335
1134,200.422,0.249054
1155,207.33,0.256404
1176,214.276,0.262751
1197,221.253,0.270014
1218,228.241,0.278356
1239,235.241,0.287972
1260,242.244,0.298061
1281,249.249,0.309628
1302,256.254,0.322101
1323,263.259,0.33443
1344,270.264,0.348778
1365,277.269,0.363537
1386,284.272,0.380212
1407,291.277,0.39673
1428,298.283,0.413418
1449,305.287,0.429767
1470,312.292,0.445964
1491,319.3,0.45703
1512,326.309,0.465338
1533,333.315,0.472983
1554,340.323,0.479817
1575,347.33,0.48617
1596,354.338,0.492066
1617,361.35,0.497916
1638,368.36,0.503566
1659,375.368,0.510077
1680,382.369,5.19E-01
1701,389.374,0.537045
1722,396.377,0.577341
1743,403.374,0.621983
1764,410.385,0.626019
1785,417.39,0.626892
1806,424.396,0.631074
1827,431.397,0.636582
1848,433.092,0.0937682
1869,433.143,0.0799902
1890,433.176,0.0737614
1911,433.189,0.068827
1932,433.194,0.0658691
1953,433.197,0.0640953
1974,433.2,0.0620636
1995,433.195,0.0607597
2016,433.195,0.0602918
2037,433.196,0.0596125
2058,433.194,0.0588562
2079,433.192,0.0583097
2100,433.195,0.0579654
2121,433.195,0.0574546
2142,433.196,0.0569047
2163,433.194,0.0563869
2184,433.194,0.0563271
2205,433.196,0.0561001
2226,433.196,0.0556261
2247,433.198,0.0552694
2268,433.197,0.0545556
2289,433.196,0.054134
2310,433.195,0.0540554
2331,433.195,0.0537286
2352,433.194,0.0533374
2373,433.195,0.0531537
2394,433.193,0.0528498
2415,433.193,0.0529351
2436,431.857,-0.275048
2457,425.101,-0.503734
2478,418.166,-0.509499
2499,411.198,-0.513557
2520,404.215,-0.513271
2541,397.221,-0.503064
2562,390.222,-0.472357
2583,383.225,-0.445615
2604,376.23,-0.427154
2625,369.235,-0.412647
2646,362.242,-0.40205
2667,355.246,-0.393167
2688,348.251,-0.385617
2709,341.255,-0.378573
2730,334.259,-0.372424
2751,327.263,-0.365281
2772,320.267,-0.35955
2793,313.273,-0.353693
2814,306.278,-0.349253
2835,299.283,-0.344645
2856,292.286,-0.340044
2877,285.289,-0.335891
2898,278.293,-0.332178
2919,271.299,-0.328266
2940,264.305,-0.3245
2961,257.31,-0.321783
2982,250.529,-0.311861
3003,244.316,-0.284722
3024,238.624,-0.261081
3045,233.402,-0.240137
3066,228.606,-0.218521
3087,224.202,-0.201265
3108,220.16,-0.183997
3129,216.446,-0.168549
3150,213.035,-0.153948
3171,209.902,-0.140724
3192,207.028,-0.128372
3213,204.387,-0.11696
3234,201.961,-0.106497
3255,199.733,-0.0970019
3276,197.687,-0.0880596
3297,195.809,-0.0797943
3318,194.048,-0.0722771
3339,193.142,-0.0219633
3360,193.18,-0.00524661
3381,193.195,-0.00075877
3402,193.199,0.00154965
3423,193.2,0.00289292
3444,193.2,0.00380053
3465,193.199,0.00430455
3486,193.199,0.00492878
3507,193.199,0.00531202
3528,193.199,0.00562361
3549,193.198,0.00584693
3570,193.197,0.00612237
3591,193.197,0.00615691
3612,193.197,0.00639127
3633,193.197,0.00659586
3654,193.198,0.00664278
3675,193.197,0.00660312
3696,193.197,0.00679223
3717,193.196,0.00691658
3738,193.196,0.00689082
3759,193.196,0.00687523
3780,193.196,0.00689182
3801,193.195,0.0070759
3822,193.195,0.00724799
3843,193.195,0.00733855
3864,193.195,0.00738753
3885,193.194,0.00754946
3906,193.195,0.00745082
3927,196.199,0.19696
3948,203.046,0.250415
3969,209.936,0.256518
3990,216.928,0.262528
4011,223.907,0.269397
4032,230.899,0.277312
4053,237.9,0.286017
4074,244.869,0.295188
4095,251.908,0.305695
4116,258.914,0.315649
4137,265.921,0.325316
4158,272.93,0.335161
4179,279.936,0.344952
4200,286.941,0.355891
4221,293.95,0.366911
4242,300.958,0.377539
4263,307.965,0.387435
4284,314.974,0.397269
4305,321.98,0.407056
4326,328.988,0.416788
4347,335.994,0.426161
4368,343.001,0.43592
4389,350.007,0.446013
4410,357.013,0.456272
4431,364.019,0.467156
4452,371.025,0.47796
4473,378.033,0.490565
4494,385.04,0.507296
4515,392.045,0.538186
4536,399.043,0.589956
4557,406.042,0.620177
4578,413.051,0.623844
4599,420.058,0.628202
4620,427.069,0.634146
4641,432.945,0.448744
4662,433.115,0.0835605
4683,433.161,0.0774508
4704,433.185,0.0718788
4725,433.194,0.0677518
4746,433.198,0.0650869
4767,433.198,0.0631094
4788,433.197,0.0618778
4809,433.199,0.0610753
4830,433.199,0.0599677
4851,433.199,0.0590056
4872,433.196,0.0584866
4893,433.196,0.0580706
4914,433.196,0.057592
4935,433.196,0.0571515
4956,433.195,0.0566143
4977,433.195,0.056328
4998,433.194,0.0562222
5019,433.194,0.0559626
5040,433.194,0.0556719
5061,433.194,0.0554757
5082,433.193,0.0553818
5103,433.195,0.0553697
5124,433.193,0.0550708
5145,433.192,0.0549158
5166,433.194,0.0549512
5187,433.193,0.0548102
5208,433.193,0.0547303
5229,433.194,0.0547993
5250,429.36,-0.478758
5271,422.457,-0.504462
5292,415.507,-0.5098
5313,408.531,-0.512385
5334,401.544,-0.509747
5355,394.55,-0.489836
5376,387.551,-0.45984
5397,380.554,-0.436669
5418,373.557,-0.419601
5439,366.562,-0.406769
5460,359.567,-0.396842
5481,352.571,-0.388368
5502,345.575,-0.380961
5523,338.582,-0.37508
5544,331.585,-0.368443
5565,324.589,-0.361957
5586,317.595,-0.356816
5607,310.6,-0.352377
5628,303.605,-0.348295
5649,296.61,-0.344146
5670,289.615,-0.339632
5691,282.621,-0.334993
5712,275.629,-0.330335
5733,268.636,-0.325791
5754,261.638,-0.322639
5775,254.658,-0.319865
5796,248.091,-0.300108
5817,242.085,-0.274908
5838,236.576,-0.252433
5859,231.522,-0.231543
5880,226.88,-0.211984
5901,222.617,-0.193463
5922,218.703,-0.17765
5943,215.109,-0.162226
5964,211.807,-0.148356
5985,208.776,-0.135426
6006,205.992,-0.123656
6027,203.435,-0.112501
6048,201.087,-0.102446
6069,198.93,-0.0930891
6090,196.95,-0.0847418
6111,195.133,-0.0766674
6114,194.883,-0.0755312

File: UMET_TGA_N2_1K_1.csv
Time,Temperature,Mass
[s],[K],[mg]
0,313.115,4.3361
120,315.115,4.3361
240,317.115,4.33303
360,319.115,4.3314
480,321.115,4.33031
600,323.115,4.3293
720,325.115,4.3287
840,327.115,4.32827
960,329.115,4.32928
1080,331.115,4.32682
1200,333.115,4.32668
1320,335.115,4.32451
1440,337.115,4.32389
1560,339.115,4.32187
1680,341.115,4.32127
1800,343.115,4.32228
1920,345.115,4.32216
2040,347.115,4.32071
2160,349.115,4.32191
2280,351.115,4.3218
2400,353.115,4.32089
2520,355.115,4.32161
2640,357.115,4.32009
2760,359.115,4.32002
2880,361.115,4.31991
3000,363.115,4.32171
3120,365.115,4.32051
3240,367.115,4.32046
3360,369.115,4.32059
3480,371.115,4.31986
3600,373.115,4.31948
3720,375.115,4.31827
3840,377.115,4.31716
3960,379.115,4.31468
4080,381.115,4.31661
4200,383.115,4.31602
4320,385.115,4.31771
4440,387.115,4.3163
4560,389.115,4.3168
4680,391.115,4.31499
4800,393.115,4.31506
4920,395.115,4.31483
5040,397.115,4.31485
5160,399.115,4.31379
5280,401.115,4.31368
5400,403.115,4.31417
5520,405.115,4.31291
5640,407.115,4.31521
5760,409.115,4.3121
5880,411.115,4.31171
6000,413.115,4.31126
6120,415.115,4.31049
6240,417.115,4.30947
6360,419.115,4.31037
6480,421.115,4.30719
6600,423.115,4.30527
6720,425.115,4.3044
6840,427.115,4.3029
6960,429.115,4.30091
7080,431.115,4.29993
7200,433.115,4.29592
7320,435.115,4.29211
7440,437.115,4.2863
7560,439.115,4.28183
7680,441.115,4.27679
7800,443.115,4.27278
7920,445.115,4.26833
8040,447.115,4.26267
8160,449.115,4.2547
8280,451.115,4.25029
8400,453.115,4.2459
8520,455.115,4.2426
8640,457.115,4.23953
8760,459.115,4.2384
8880,461.115,4.23581
9000,463.115,4.23217
9120,465.115,4.22976
9240,467.115,4.22807
9360,469.115,4.22637
9480,471.115,4.22641
9600,473.115,4.22497
9720,475.115,4.22396
9840,477.115,4.2226
9960,479.115,4.22406
10080,481.115,4.22469
10200,483.115,4.22484
10320,485.115,4.22402
10440,487.115,4.22249
10560,489.115,4.22024
10680,491.115,4.2193
10800,493.115,4.22079
10920,495.115,4.21906
11040,497.115,4.21889
11160,499.115,4.21782
11280,501.115,4.2164
11400,503.115,4.2167
11520,505.115,4.21621
11640,507.115,4.21426
11760,509.115,4.21366
11880,511.115,4.21199
12000,513.115,4.20813
12120,515.115,4.2049
12240,517.115,4.20237
12360,519.115,4.20031
12480,521.115,4.19628
12600,523.115,4.19157
12720,525.115,4.18902
12840,527.115,4.18108
12960,529.115,4.17734
13080,531.115,4.16967
13200,533.115,4.16556
13320,535.115,4.1569
13440,537.115,4.1498
13560,539.115,4.1415
13680,541.115,4.13132
13800,543.115,4.12277
13920,545.115,4.11342
14040,547.115,4.1047
14160,549.115,4.09219
14280,551.115,4.08053
14400,553.115,4.06598
14520,555.115,4.05318
14640,557.115,4.03656
14760,559.115,4.02057
14880,561.115,4.00006
15000,563.115,3.97607
15120,565.115,3.95212
15240,567.115,3.92563
15360,569.115,3.89374
15480,571.115,3.85566
15600,573.115,3.81468
15720,575.115,3.76668
15840,577.115,3.71644
15960,579.115,3.65632
16080,581.115,3.59034
16200,583.115,3.51102
16320,585.115,3.42663
16440,587.115,3.33088
16560,589.115,3.2265
16680,591.115,3.1135
16800,593.115,2.98813
16920,595.115,2.85223
17040,597.115,2.7071
17160,599.115,2.55404
17280,601.115,2.39434
17400,603.115,2.2319
17520,605.115,2.0703
17640,607.115,1.906
17760,609.115,1.7444
17880,611.115,1.58534
18000,613.115,1.42675
18120,615.115,1.26905
18240,617.115,1.11497
18360,619.115,0.968797
18480,621.115,0.834969
18600,623.115,0.714415
18720,625.115,0.605875
18840,627.115,0.509511
18960,629.115,0.426788
19080,631.115,0.356714
19200,633.115,0.296297
19320,635.115,0.244338
19440,637.115,0.198866
19560,639.115,0.162834
19680,641.115,0.131007
19800,643.115,0.105049
19920,645.115,0.0847764
20040,647.115,0.06914822
20160,649.115,0.0557731
20280,651.115,0.0462922
20400,653.115,0.0369288
20520,655.115,0.02951193
20640,657.115,0.0250804
20760,659.115,0.02230143
20880,661.115,0.0201325
21000,663.115,0.0195216
21120,665.115,0.018555
21240,667.115,0.0180967
21360,669.115,0.0169442
21480,671.115,0.015407
21600,673.115,0.0132737
21720,675.115,0.0136466
21840,677.115,0.0162066
21960,679.115,0.0174489
22080,681.115,0.0177039
22200,683.115,0.0187584
22320,685.115,0.018686
22440,687.115,0.0187588
22560,689.115,0.0183842
22680,691.115,0.01888545
22800,693.115,0.018598
22920,695.115,0.0177459
23040,697.115,0.0202006
23160,699.115,0.0199912
23280,701.115,0.0196074
23400,703.115,0.0191664
23520,705.115,0.019636
23640,707.115,0.0207964
23760,709.115,0.0214156
23880,711.115,0.02168527
24000,713.115,0.0214988
24120,715.115,0.0207955
24240,717.115,0.0209941
24360,719.115,0.0210305
24480,721.115,0.0213783
24600,723.115,0.0217
24720,725.115,0
24840,727.115,0
24960,729.115,0
25080,731.115,0
25200,733.115,0
25320,735.115,0
25440,737.115,0
25560,739.115,0
25680,741.115,0
25800,743.115,0
25920,745.115,0
26040,747.115,0
26160,749.115,0
26280,751.115,0
26400,753.115,0
26520,755.115,0
26640,757.115,0
26760,759.115,0
26880,761.115,0
27000,763.115,0
27120,765.115,0
27240,767.115,0
27360,769.115,0
27480,771.115,0
27600,773.115,0
27630,773.615,0