Folder: matl-db/PMMA/Calibration_Data/UMET (part 2)

File: UMET_TGA_N2_2K_1.csv
Time,Temperature,Mass
[s],[K],[mg]
0,313.115,4.8446
60,315.115,4.8446
120,317.115,4.8446
180,319.115,4.8446
240,321.115,4.8446
300,323.115,4.8446
360,325.115,4.8446
420,327.115,4.8446
480,329.115,4.8446
540,331.115,4.8446
600,333.115,4.8446
660,335.115,4.8446
720,337.115,4.8446
780,339.115,4.8446
840,341.115,4.8446
900,343.115,4.8446
960,345.115,4.8446
1020,347.115,4.8446
1080,349.115,4.8446
1140,351.115,4.8446
1200,353.115,4.8446
1260,355.115,4.8446
1320,357.115,4.8446
1380,359.115,4.8446
1440,361.115,4.8446
1500,363.115,4.8446
1560,365.115,4.8446
1620,367.115,4.8446
1680,369.115,4.8446
1740,371.115,4.8446
1800,373.115,4.8446
1860,375.115,4.8446
1920,377.115,4.8446
1980,379.115,4.8446
2040,381.115,4.8446
2100,383.115,4.8446
2160,385.115,4.8446
2220,387.115,4.8446
2280,389.115,4.8446
2340,391.115,4.8446
2400,393.115,4.8446
2460,395.115,4.8438
2520,397.115,4.8433
2580,399.115,4.84238
2640,401.115,4.84212
2700,403.115,4.84161
2760,405.115,4.84138
2820,407.115,4.8417
2880,409.115,4.8417
2940,411.115,4.8419
3000,413.115,4.8402
3060,415.115,4.83999
3120,417.115,4.83836
3180,419.115,4.8372
3240,421.115,4.8363
3300,423.115,4.83656
3360,425.115,4.8353
3420,427.115,4.83329
3480,429.115,4.83172
3540,431.115,4.82993
3600,433.115,4.82833
3660,435.115,4.8256
3720,437.115,4.82134
3780,439.115,4.81644
3840,441.115,4.8099
3900,443.115,4.8041
3960,445.115,4.7989
4020,447.115,4.79257
4080,449.115,4.78519
4140,451.115,4.77969
4200,453.115,4.77331
4260,455.115,4.7677
4320,457.115,4.76069
4380,459.115,4.75569
4440,461.115,4.75115
4500,463.115,4.7457
4560,465.115,4.74154
4620,467.115,4.73809
4680,469.115,4.73386
4740,471.115,4.7285
4800,473.115,4.72653
4860,475.115,4.72601
4920,477.115,4.72391
4980,479.115,4.72191
5040,481.115,4.7224
5100,483.115,4.7235
5160,485.115,4.7221
5220,487.115,4.7209
5280,489.115,4.71841
5340,491.115,4.7175
5400,493.115,4.71671
5460,495.115,4.71687
5520,497.115,4.7144
5580,499.115,4.7146
5640,501.115,4.71356
5700,503.115,4.7132
5760,505.115,4.71171
5820,507.115,4.71191
5880,509.115,4.70954
5940,511.115,4.70918
6000,513.115,4.70746
6060,515.115,4.70401
6120,517.115,4.70278
6180,519.115,4.69999
6240,521.115,4.69529
6300,523.115,4.69041
6360,525.115,4.6878
6420,527.115,4.68489
6480,529.115,4.6813
6540,531.115,4.6764
6600,533.115,4.6724
6660,535.115,4.66699
6720,537.115,4.66005
6780,539.115,4.6545
6840,541.115,4.64681
6900,543.115,4.63958
6960,545.115,4.63006
7020,547.115,4.6202
7080,549.115,4.61005
7140,551.115,4.60028
7200,553.115,4.58917
7260,555.115,4.57733
7320,557.115,4.56533
7380,559.115,4.55181
7440,561.115,4.53779
7500,563.115,4.52231
7560,565.115,4.50553
7620,567.115,4.48577
7680,569.115,4.4639
7740,571.115,4.43926
7800,573.115,4.41187
7860,575.115,4.37878
7920,577.115,4.34169
7980,579.115,4.30259
8040,581.115,4.25662
8100,583.115,4.20382
8160,585.115,4.14596
8220,587.115,4.07808
8280,589.115,4.00071
8340,591.115,3.91656
8400,593.115,3.82299
8460,595.115,3.71844
8520,597.115,3.6019
8580,599.115,3.47549
8640,601.115,3.33551
8700,603.115,3.18639
8760,605.115,3.02877
8820,607.115,2.86082
8880,609.115,2.68374
8940,611.115,2.50092
9000,613.115,2.31898
9060,615.115,2.13977
9120,617.115,1.96433
9180,619.115,1.7928
9240,621.115,1.62689
9300,623.115,1.45566
9360,625.115,1.29063
9420,627.115,1.13562
9480,629.115,0.986564
9540,631.115,0.848419
9600,633.115,0.724266
9660,635.115,0.614098
9720,637.115,0.516564
9780,639.115,0.432993
9840,641.115,0.361512
9900,643.115,0.298664
9960,645.115,0.247381
10020,647.115,0.204067
10080,649.115,0.169178
10140,651.115,0.140887
10200,653.115,0.117169
10260,655.115,0.09815741
10320,657.115,0.08295893
10380,659.115,0.069397
10440,661.115,0.0614087
10500,663.115,0.0529607
10560,665.115,0.045298
10620,667.115,0.0406016
10680,669.115,0.03799862
10740,671.115,0.0338051
10800,673.115,0.0308005
10860,675.115,0.0289135
10920,677.115,0.0296964
10980,679.115,0.0298994
11040,681.115,0.02989312
11100,683.115,0.0294745
11160,685.115,0.0298951
11220,687.115,0.0286955
11280,689.115,0.028104
11340,691.115,0.0283942
11400,693.115,0.0282067
11460,695.115,0.0278928
11520,697.115,0.0276055
11580,699.115,0.0268769
11640,701.115,0.0275498
11700,703.115,0.0285957
11760,705.115,0.0284722
11820,707.115,0.0279456
11880,709.115,0.0279926
11940,711.115,0.0306203
12000,713.115,0.0288259
12060,715.115,0.0287978
12120,717.115,0.0287018
12180,719.115,0.0268982
12240,721.115,0.02749795
12300,723.115,0.0270963
12360,725.115,0
12420,727.115,0
12480,729.115,0
12540,731.115,0
12600,733.115,0
12660,735.115,0
12720,737.115,0
12780,739.115,0
12840,741.115,0
12900,743.115,0
12960,745.115,0
13020,747.115,0
13080,749.115,0
13140,751.115,0
13200,753.115,0
13260,755.115,0
13320,757.115,0
13380,759.115,0
13440,761.115,0
13500,763.115,0
13560,765.115,0
13620,767.115,0
13680,769.115,0
13740,771.115,0
13800,773.115,0
13815,773.615,0

File: UMET_TGA_N2_5K_1.csv
Time,Temperature,Mass
[s],[K],[mg]
0,313.115,4.0931
24,315.115,4.0931
48,317.115,4.0931
72,319.115,4.0931
96,321.115,4.0931
120,323.115,4.0931
144,325.115,4.0931
168,327.115,4.0931
192,329.115,4.0931
216,331.115,4.0931
240,333.115,4.0931
264,335.115,4.0931
288,337.115,4.0931
312,339.115,4.0931
336,341.115,4.0931
360,343.115,4.0931
384,345.115,4.0931
408,347.115,4.0931
432,349.115,4.0931
456,351.115,4.0931
480,353.115,4.0931
504,355.115,4.0931
528,357.115,4.0931
552,359.115,4.0931
576,361.115,4.0931
600,363.115,4.0931
624,365.115,4.0931
648,367.115,4.0931
672,369.115,4.0931
696,371.115,4.0931
720,373.115,4.0931
744,375.115,4.0931
768,377.115,4.0931
792,379.115,4.0931
816,381.115,4.0931
840,383.115,4.0931
864,385.115,4.0931
888,387.115,4.0931
912,389.115,4.0931
936,391.115,4.0931
960,393.115,4.0931
984,395.115,4.0931
1008,397.115,4.0931
1032,399.115,4.0931
1056,401.115,4.0931
1080,403.115,4.0931
1104,405.115,4.0931
1128,407.115,4.0931
1152,409.115,4.0931
1176,411.115,4.0931
1200,413.115,4.0931
1224,415.115,4.0931
1248,417.115,4.0931
1272,419.115,4.0931
1296,421.115,4.0931
1320,423.115,4.0931
1344,425.115,4.0931
1368,427.115,4.0931
1392,429.115,4.0931
1416,431.115,4.0931
1440,433.115,4.0931
1464,435.115,4.0931
1488,437.115,4.0931
1512,439.115,4.0931
1536,441.115,4.0901
1560,443.115,4.08849
1584,445.115,4.08404
1608,447.115,4.08106
1632,449.115,4.07397
1656,451.115,4.0713
1680,453.115,4.06526
1704,455.115,4.05929
1728,457.115,4.0536
1752,459.115,4.04767
1776,461.115,4.04337
1800,463.115,4.0382
1824,465.115,4.0343
1848,467.115,4.031
1872,469.115,4.0259
1896,471.115,4.02266
1920,473.115,4.01804
1944,475.115,4.01516
1968,477.115,4.01208
1992,479.115,4.0097
2016,481.115,4.00704
2040,483.115,4.00438
2064,485.115,4.00429
2088,487.115,4.00038
2112,489.115,3.9995
2136,491.115,3.99791
2160,493.115,3.9974
2184,495.115,3.9952
2208,497.115,3.99379
2232,499.115,3.9928
2256,501.115,3.99201
2280,503.115,3.9913
2304,505.115,3.9925
2328,507.115,3.98809
2352,509.115,3.9886
2376,511.115,3.98779
2400,513.115,3.9878
2424,515.115,3.9897
2448,517.115,3.984
2472,519.115,3.98531
2496,521.115,3.98119
2520,523.115,3.9803
2544,525.115,3.97928
2568,527.115,3.97854
2592,529.115,3.9759
2616,531.115,3.97521
2640,533.115,3.9716
2664,535.115,3.9702
2688,537.115,3.96727
2712,539.115,3.96382
2736,541.115,3.9596
2760,543.115,3.95779
2784,545.115,3.9508
2808,547.115,3.94712
2832,549.115,3.9431
2856,551.115,3.93529
2880,553.115,3.93047
2904,555.115,3.9228
2928,557.115,3.91513
2952,559.115,3.90779
2976,561.115,3.89757
3000,563.115,3.88714
3024,565.115,3.88109
3048,567.115,3.8713
3072,569.115,3.86205
3096,571.115,3.8498
3120,573.115,3.8366
3144,575.115,3.82446
3168,577.115,3.80873
3192,579.115,3.79288
3216,581.115,3.77602
3240,583.115,3.75798
3264,585.115,3.73196
3288,587.115,3.70497
3312,589.115,3.67489
3336,591.115,3.64084
3360,593.115,3.59921
3384,595.115,3.55364
3408,597.115,3.49932
3432,599.115,3.44137
3456,601.115,3.3723
3480,603.115,3.29826
3504,605.115,3.21761
3528,607.115,3.12137
3552,609.115,3.01181
3576,611.115,2.89825
3600,613.115,2.77571
3624,615.115,2.63763
3648,617.115,2.50037
3672,619.115,2.35029
3696,621.115,2.19425
3720,623.115,2.04072
3744,625.115,1.88455
3768,627.115,1.72673
3792,629.115,1.57507
3816,631.115,1.4269
3840,633.115,1.28177
3864,635.115,1.14738
3888,637.115,1.01612
3912,639.115,0.882354
3936,641.115,0.769353
3960,643.115,0.657141
3984,645.115,0.544912
4008,647.115,0.459505
4032,649.115,0.381825
4056,651.115,0.31185
4080,653.115,0.250834
4104,655.115,0.196868
4128,657.115,0.153334
4152,659.115,0.113574
4176,661.115,0.0859842
4200,663.115,0.0588543
4224,665.115,0.0388513
4248,667.115,0.0216533
4272,669.115,0.0107816
4296,671.115,0
4320,673.115,0
4344,675.115,0
4368,677.115,0
4392,679.115,0
4416,681.115,0
4440,683.115,0
4464,685.115,0
4488,687.115,0
4512,689.115,0
4536,691.115,0
4560,693.115,0
4584,695.115,0
4608,697.115,0
4632,699.115,0
4656,701.115,0
4680,703.115,0
4704,705.115,0
4728,707.115,0
4752,709.115,0
4776,711.115,0
4800,713.115,0
4824,715.115,0
4848,717.115,0
4872,719.115,0
4896,721.115,0
4920,723.115,0
4944,725.115,0
4968,727.115,0
4992,729.115,0
5016,731.115,0
5040,733.115,0
5064,735.115,0
5088,737.115,0
5112,739.115,0
5136,741.115,0
5160,743.115,0
5184,745.115,0
5208,747.115,0
5232,749.115,0
5256,751.115,0
5280,753.115,0
5304,755.115,0
5328,757.115,0
5352,759.115,0
5376,761.115,0
5400,763.115,0
5424,765.115,0
5448,767.115,0
5472,769.115,0
5496,771.115,0
5520,773.115,0
5526,773.615,0

File: UMET_TGA_N2_10K_1.csv
Time,Temperature,Mass
[s],[K],[mg]
0,313.115,5.3388
12,315.115,5.3388
24,317.115,5.3388
36,319.115,5.32792
48,321.115,5.32772
60,323.115,5.32739
72,325.115,5.32704
84,327.115,5.3272
96,329.115,5.3268
108,331.115,5.3267
120,333.115,5.3261
132,335.115,5.32547
144,337.115,5.32563
156,339.115,5.3247
168,341.115,5.3246
180,343.115,5.3238
192,345.115,5.32351
204,347.115,5.32329
216,349.115,5.32307
228,351.115,5.32264
240,353.115,5.32241
252,355.115,5.3224
264,357.115,5.3224
276,359.115,5.3222
288,361.115,5.32232
300,363.115,5.32228
312,365.115,5.3222
324,367.115,5.32198
336,369.115,5.32206
348,371.115,5.3216
360,373.115,5.3213
372,375.115,5.3211
384,377.115,5.3209
396,379.115,5.32079
408,381.115,5.32079
420,383.115,5.3205
432,385.115,5.3199
444,387.115,5.3194
456,389.115,5.319
468,391.115,5.3185
480,393.115,5.31731
492,395.115,5.31671
504,397.115,5.3164
516,399.115,5.316
528,401.115,5.31571
540,403.115,5.31521
552,405.115,5.3145
564,407.115,5.31361
576,409.115,5.31288
588,411.115,5.31192
600,413.115,5.31121
612,415.115,5.3104
624,417.115,5.3084
636,419.115,5.30701
648,421.115,5.3062
660,423.115,5.3047
672,425.115,5.30341
684,427.115,5.3022
696,429.115,5.30142
708,431.115,5.3002
720,433.115,5.29876
732,435.115,5.29718
744,437.115,5.29501
756,439.115,5.2929
768,441.115,5.29141
780,443.115,5.28884
792,445.115,5.28583
804,447.115,5.28253
816,449.115,5.27897
828,451.115,5.27475
840,453.115,5.2696
852,455.115,5.26428
864,457.115,5.25826
876,459.115,5.25306
888,461.115,5.24446
900,463.115,5.23767
912,465.115,5.23158
924,467.115,5.22549
936,469.115,5.21929
948,471.115,5.21339
960,473.115,5.20798
972,475.115,5.20267
984,477.115,5.19775
996,479.115,5.19328
1008,481.115,5.18899
1020,483.115,5.18418
1032,485.115,5.17999
1044,487.115,5.17589
1056,489.115,5.1725
1068,491.115,5.16921
1080,493.115,5.16602
1092,495.115,5.1636
1104,497.115,5.16118
1116,499.115,5.15899
1128,501.115,5.1573
1140,503.115,5.155393
1152,505.115,5.15419
1164,507.115,5.15299
1176,509.115,5.1515
1188,511.115,5.1502
1200,513.115,5.1489
1212,515.115,5.1475
1224,517.115,5.1464
1236,519.115,5.1453
1248,521.115,5.14378
1260,523.115,5.1429
1272,525.115,5.14178
1284,527.115,5.14028
1296,529.115,5.1384
1308,531.115,5.13648
1320,533.115,5.1347
1332,535.115,5.1322
1344,537.115,5.12969
1356,539.115,5.1277
1368,541.115,5.125
1380,543.115,5.12249
1392,545.115,5.1195
1404,547.115,5.11588
1416,549.115,5.11189
1428,551.115,5.10728
1440,553.115,5.10266
1452,555.115,5.09735
1464,557.115,5.09144
1476,559.115,5.08456
1488,561.115,5.07577
1500,563.115,5.06767
1512,565.115,5.05874
1524,567.115,5.05006
1536,569.115,5.04066
1548,571.115,5.03058
1560,573.115,5.01966
1572,575.115,5.0082
1584,577.115,4.99636
1596,579.115,4.98348
1608,581.115,4.96939
1620,583.115,4.95455
1632,585.115,4.93857
1644,587.115,4.91922
1656,589.115,4.89808
1668,591.115,4.87361
1680,593.115,4.84679
1692,595.115,4.81496
1704,597.115,4.77941
1716,599.115,4.73762
1728,601.115,4.68911
1740,603.115,4.62835
1752,605.115,4.55473
1764,607.115,4.48124
1776,609.115,4.39918
1788,611.115,4.30744
1800,613.115,4.20236
1812,615.115,4.08914
1824,617.115,3.96385
1836,619.115,3.82708
1848,621.115,3.67882
1860,623.115,3.51991
1872,625.115,3.34911
1884,627.115,3.16642
1896,629.115,2.978
1908,631.115,2.78099
1920,633.115,2.58022
1932,635.115,2.38107
1944,637.115,2.18335
1956,639.115,1.98636
1968,641.115,1.79708
1980,643.115,1.61483
1992,645.115,1.44205
2004,647.115,1.27119
2016,649.115,1.10768
2028,651.115,0.956285
2040,653.115,0.815484
2052,655.115,0.687387
2064,657.115,0.575135
2076,659.115,0.477483
2088,661.115,0.393192
2100,663.115,0.325187
2112,665.115,0.271436
2124,667.115,0.218543
2136,669.115,0.176826
2148,671.115,0.139776
2160,673.115,0.109007
2172,675.115,0.084943
2184,677.115,0.0652449
2196,679.115,0.049842
2208,681.115,0.0370614
2220,683.115,0.0263705
2232,685.115,0.01962009
2244,687.115,0.0141526
2256,689.115,0.008742285
2268,691.115,0.004900166
2280,693.115,0
2292,695.115,0
2304,697.115,0
2316,699.115,0
2328,701.115,0
2340,703.115,0
2352,705.115,0
2364,707.115,0
2376,709.115,0
2388,711.115,0
2400,713.115,0
2412,715.115,0
2424,717.115,0
2436,719.115,0
2448,721.115,0
2460,723.115,0
2472,725.115,0
2484,727.115,0
2496,729.115,0
2508,731.115,0
2520,733.115,0
2532,735.115,0
2544,737.115,0
2556,739.115,0
2568,741.115,0
2580,743.115,0
2592,745.115,0
2604,747.115,0
2616,749.115,0
2628,751.115,0
2640,753.115,0
2652,755.115,0
2664,757.115,0
2676,759.115,0
2688,761.115,0
2700,763.115,0
2712,765.115,0
2724,767.115,0
2736,769.115,0
2748,771.115,0
2760,773.115,0
2763,773.615,0

File: UMET_TGA_N2_20K_1.csv
Time,Temperature,Mass
[s],[K],[mg]
0,313.115,3.9289
6,315.115,3.9289
12,317.115,3.9289
18,319.115,3.9289
24,321.115,3.9289
30,323.115,3.9289
36,325.115,3.9289
42,327.115,3.9289
48,329.115,3.9289
54,331.115,3.9289
60,333.115,3.9289
66,335.115,3.9289
72,337.115,3.9289
78,339.115,3.9289
84,341.115,3.9289
90,343.115,3.9289
96,345.115,3.9289
102,347.115,3.9289
108,349.115,3.9289
114,351.115,3.9289
120,353.115,3.9289
126,355.115,3.9289
132,357.115,3.9289
138,359.115,3.9289
144,361.115,3.9289
150,363.115,3.9289
156,365.115,3.9289
162,367.115,3.9289
168,369.115,3.9289
174,371.115,3.9289
180,373.115,3.9289
186,375.115,3.9289
192,377.115,3.9289
198,379.115,3.9289
204,381.115,3.9289
210,383.115,3.9289
216,385.115,3.9289
222,387.115,3.9289
228,389.115,3.9289
234,391.115,3.9289
240,393.115,3.9289
246,395.115,3.9289
252,397.115,3.9289
258,399.115,3.9289
264,401.115,3.9289
270,403.115,3.9289
276,405.115,3.9289
282,407.115,3.9289
288,409.115,3.9289
294,411.115,3.9289
300,413.115,3.9289
306,415.115,3.9289
312,417.115,3.9289
318,419.115,3.9289
324,421.115,3.9289
330,423.115,3.9289
336,425.115,3.9289
342,427.115,3.9289
348,429.115,3.9289
354,431.115,3.9289
360,433.115,3.9289
366,435.115,3.9289
372,437.115,3.92788
378,439.115,3.92719
384,441.115,3.92802
390,443.115,3.92454
396,445.115,3.92279
402,447.115,3.9233
408,449.115,3.9246
414,451.115,3.92269
420,453.115,3.91909
426,455.115,3.9137
432,457.115,3.90829
438,459.115,3.90833
444,461.115,3.90908
450,463.115,3.90109
456,465.115,3.89169
462,467.115,3.89021
468,469.115,3.8903
474,471.115,3.8858
480,473.115,3.882
486,475.115,3.8803
492,477.115,3.87475
498,479.115,3.86773
504,481.115,3.8644
510,483.115,3.8621
516,485.115,3.8617
522,487.115,3.85559
528,489.115,3.8538
534,491.115,3.8512
540,493.115,3.85
546,495.115,3.8477
552,497.115,3.84118
558,499.115,3.83809
564,501.115,3.8374
570,503.115,3.8366
576,505.115,3.83261
582,507.115,3.83248
588,509.115,3.83103
594,511.115,3.82471
600,513.115,3.82509
606,515.115,3.8282
612,517.115,3.82257
618,519.115,3.8213
624,521.115,3.82415
630,523.115,3.8233
636,525.115,3.82253
642,527.115,3.81768
648,529.115,3.81683
654,531.115,3.81863
660,533.115,3.81762
666,535.115,3.8142
672,537.115,3.81521
678,539.115,3.8227
684,541.115,3.8138
690,543.115,3.80158
696,545.115,3.8052
702,547.115,3.80412
708,549.115,3.79811
714,551.115,3.80445
720,553.115,3.80609
726,555.115,3.79883
732,557.115,3.79987
738,559.115,3.79217
744,561.115,3.7891
750,563.115,3.78368
756,565.115,3.78092
762,567.115,3.7752
768,569.115,3.76897
774,571.115,3.76068
780,573.115,3.75233
786,575.115,3.75021
792,577.115,3.74756
798,579.115,3.73601
804,581.115,3.72721
810,583.115,3.71709
816,585.115,3.70945
822,587.115,3.69963
828,589.115,3.69375
834,591.115,3.68375
840,593.115,3.66879
846,595.115,3.65285
852,597.115,3.63896
858,599.115,3.62055
864,601.115,3.60068
870,603.115,3.56738
876,605.115,3.54184
882,607.115,3.49995
888,609.115,3.46341
894,611.115,3.41947
900,613.115,3.3748
906,615.115,3.32838
912,617.115,3.26657
918,619.115,3.19807
924,621.115,3.12278
930,623.115,3.03937
936,625.115,2.95171
942,627.115,2.8532
948,629.115,2.74867
954,631.115,2.63146
960,633.115,2.5101
966,635.115,2.38492
972,637.115,2.25343
978,639.115,2.10547
984,641.115,1.96768
990,643.115,1.81708
996,645.115,1.67257
1002,647.115,1.53402
1008,649.115,1.39293
1014,651.115,1.25908
1020,653.115,1.12799
1026,655.115,1.00387
1032,657.115,0.884146
1038,659.115,0.771094
1044,661.115,0.662255
1050,663.115,0.570937
1056,665.115,0.486144
1062,667.115,0.409202
1068,669.115,0.344309
1074,671.115,0.290049
1080,673.115,0.242598
1086,675.115,0.200121
1092,677.115,0.179123
1098,679.115,0.137723
1104,681.115,0.130568
1110,683.115,0.113828
1116,685.115,0.0938378
1122,687.115,0.07933392
1128,689.115,0.0638324
1134,691.115,0.052406
1140,693.115,0.0474918
1146,695.115,0.0438053
1152,697.115,0.0468345
1158,699.115,0.0445506
1164,701.115,0.0395998
1170,703.115,0.0367847
1176,705.115,0.03373275
1182,707.115,0.02782722
1188,709.115,0.0282307
1194,711.115,0.0252601
1200,713.115,0.0286975
1206,715.115,0.0302058
1212,717.115,0.0290082
1218,719.115,0.0263936
1224,721.115,0.0275919
1230,723.115,0.0265987
1236,725.115,0
1242,727.115,0
1248,729.115,0
1254,731.115,0
1260,733.115,0
1266,735.115,0
1272,737.115,0
1278,739.115,0
1284,741.115,0
1290,743.115,0
1296,745.115,0
1302,747.115,0
1308,749.115,0
1314,751.115,0
1320,753.115,0
1326,755.115,0
1332,757.115,0
1338,759.115,0
1344,761.115,0
1350,763.115,0
1356,765.115,0
1362,767.115,0
1368,769.115,0
1374,771.115,0
1380,773.115,0
1381.5,773.615,0

File: UMET_TGA_N2_50K_1.csv
Time,Temperature,Mass
[s],[K],[mg]
0,313.115,5.9802
2.4,315.115,5.9802
4.8,317.115,5.9802
7.2,319.115,5.9802
9.6,321.115,5.9802
12,323.115,5.9802
14.4,325.115,5.9802
16.8,327.115,5.9802
19.2,329.115,5.9802
21.6,331.115,5.9802
24,333.115,5.9802
26.4,335.115,5.9802
28.8,337.115,5.9802
31.2,339.115,5.9802
33.6,341.115,5.9802
36,343.115,5.9802
38.4,345.115,5.9802
40.8,347.115,5.9802
43.2,349.115,5.9802
45.6,351.115,5.9802
48,353.115,5.9802
50.4,355.115,5.9802
52.8,357.115,5.9802
55.2,359.115,5.9802
57.6,361.115,5.9802
60,363.115,5.9802
62.4,365.115,5.9802
64.8,367.115,5.9802
67.2,369.115,5.9802
69.6,371.115,5.9802
72,373.115,5.9802
74.4,375.115,5.9802
76.8,377.115,5.9802
79.2,379.115,5.9802
81.6,381.115,5.9802
84,383.115,5.9802
86.4,385.115,5.9802
88.8,387.115,5.9802
91.2,389.115,5.9802
93.6,391.115,5.9802
96,393.115,5.9802
98.4,395.115,5.9802
100.8,397.115,5.9802
103.2,399.115,5.9802
105.6,401.115,5.9802
108,403.115,5.9802
110.4,405.115,5.9802
112.8,407.115,5.9802
115.2,409.115,5.9802
117.6,411.115,5.9802
120,413.115,5.9802
122.4,415.115,5.9802
124.8,417.115,5.9802
127.2,419.115,5.9802
129.6,421.115,5.9802
132,423.115,5.9802
134.4,425.115,5.9802
136.8,427.115,5.9802
139.2,429.115,5.9802
141.6,431.115,5.9802
144,433.115,5.9802
146.4,435.115,5.9802
148.8,437.115,5.9783
151.2,439.115,5.97699
153.6,441.115,5.97616
156,443.115,5.97552
158.4,445.115,5.97646
160.8,447.115,5.97792
163.2,449.115,5.97762
165.6,451.115,5.97503
168,453.115,5.97217
170.4,455.115,5.96944
172.8,457.115,5.96662
175.2,459.115,5.96407
177.6,461.115,5.96216
180,463.115,5.95985
182.4,465.115,5.95621
184.8,467.115,5.9518
187.2,469.115,5.94697
189.6,471.115,5.9426
192,473.115,5.93927
194.4,475.115,5.93612
196.8,477.115,5.93163
199.2,479.115,5.92706
201.6,481.115,5.92362
204,483.115,5.91912
206.4,485.115,5.91374
208.8,487.115,5.90918
211.2,489.115,5.90576
213.6,491.115,5.90168
216,493.115,5.89675
218.4,495.115,5.89134
220.8,497.115,5.8866
223.2,499.115,5.88323
225.6,501.115,5.87811
228,503.115,5.87305
230.4,505.115,5.87075
232.8,507.115,5.86867
235.2,509.115,5.86647
237.6,511.115,5.86452
240,513.115,5.86182
242.4,515.115,5.85878
244.8,517.115,5.8553
247.2,519.115,5.85123
249.6,521.115,5.84761
252,523.115,5.84546
254.4,525.115,5.84407
256.8,527.115,5.84248
259.2,529.115,5.83994
261.6,531.115,5.83612
264,533.115,5.83306
266.4,535.115,5.8312
268.8,537.115,5.831
271.2,539.115,5.83125
273.6,541.115,5.83129
276,543.115,5.83113
278.4,545.115,5.82923
280.8,547.115,5.8258
283.2,549.115,5.82194
285.6,551.115,5.81906
288,553.115,5.81783
290.4,555.115,5.81641
292.8,557.115,5.81466
295.2,559.115,5.81268
297.6,561.115,5.80988
300,563.115,5.80532
302.4,565.115,5.80046
304.8,567.115,5.79568
307.2,569.115,5.79061
309.6,571.115,5.78592
312,573.115,5.78305
314.4,575.115,5.77887
316.8,577.115,5.77172
319.2,579.115,5.76395
321.6,581.115,5.75667
324,583.115,5.74951
326.4,585.115,5.74103
328.8,587.115,5.73181
331.2,589.115,5.72209
333.6,591.115,5.69265
336,593.115,5.68152
338.4,595.115,5.67266
340.8,597.115,5.65424
343.2,599.115,5.63983
345.6,601.115,5.62378
348,603.115,5.60723
350.4,605.115,5.58984
352.8,607.115,5.56726
355.2,609.115,5.53967
357.6,611.115,5.50612
360,613.115,5.46692
362.4,615.115,5.42464
364.8,617.115,5.37961
367.2,619.115,5.32931
369.6,621.115,5.27031
372,623.115,5.20107
374.4,625.115,5.12552
376.8,627.115,5.04582
379.2,629.115,4.96042
381.6,631.115,4.86431
384,633.115,4.75021
386.4,635.115,4.62299
388.8,637.115,4.49028
391.2,639.115,4.24085
393.6,641.115,4.09689
396,643.115,3.92915
398.4,645.115,3.74723
400.8,647.115,3.54376
403.2,649.115,3.34012
405.6,651.115,3.12904
408,653.115,2.91005
410.4,655.115,2.69681
412.8,657.115,2.48991
415.2,659.115,2.27728
417.6,661.115,2.07139
420,663.115,1.87533
422.4,665.115,1.68858
424.8,667.115,1.50792
427.2,669.115,1.33334
429.6,671.115,1.16731
432,673.115,1.00946
434.4,675.115,0.86587
436.8,677.115,0.729504
439.2,679.115,0.606101
441.6,681.115,0.505338
444,683.115,0.422361
446.4,685.115,0.349832
448.8,687.115,0.28789
451.2,689.115,0.237035
453.6,691.115,0.197471
456,693.115,0.16083
458.4,695.115,0.132715
460.8,697.115,0.10988
463.2,699.115,0.0885315
465.6,701.115,0.0752166
468,703.115,0.066757
470.4,705.115,0.0610919
472.8,707.115,0.0563155
475.2,709.115,0.0533482
477.6,711.115,0.0473052
480,713.115,0.0399304
482.4,715.115,0.0382093
484.8,717.115,0.0387427
487.2,719.115,0.0387236
489.6,721.115,0.0372859
492,723.115,0.0354046
494.4,725.115,0
496.8,727.115,0
499.2,729.115,0
501.6,731.115,0
504,733.115,0
506.4,735.115,0
508.8,737.115,0
511.2,739.115,0
513.6,741.115,0
516,743.115,0
518.4,745.115,0
520.8,747.115,0
523.2,749.115,0
525.6,751.115,0
528,753.115,0
530.4,755.115,0
532.8,757.115,0
535.2,759.115,0
537.6,761.115,0
540,763.115,0
542.4,765.115,0
544.8,767.115,0
547.2,769.115,0
549.6,771.115,0
552,773.115,0
552.6,773.615,0