Folder: matl-db/PMMA/Calibration_Data/UQ (part 2)

File: UQ_TGA_O2-21_10K_3.csv
Time,Temperature,Mass
[s],[K],[mg]
0,316.205,5.3138
12,318.205,5.3165
24,320.205,5.3201
36,322.205,5.3212
48,324.205,5.3258
60,326.205,5.3342
72,328.205,5.3451
84,330.205,5.3573
96,332.205,5.3698
108,334.205,5.3794
120,336.205,5.3867
132,338.205,5.3924
144,340.205,5.3949
156,342.205,5.3949
168,344.205,5.3964
180,346.205,5.3997
192,348.205,5.3969
204,350.205,5.3922
216,352.205,5.3937
228,354.205,5.3917
240,356.205,5.3886
252,358.205,5.3884
264,360.205,5.3897
276,362.205,5.3878
288,364.205,5.389
300,366.205,5.3915
312,368.205,5.3891
324,370.205,5.3874
336,372.205,5.3877
348,374.205,5.3867
360,376.205,5.391
372,378.205,5.3926
384,380.205,5.3943
396,382.205,5.3995
408,384.205,5.3983
420,386.205,5.3949
432,388.205,5.3933
444,390.205,5.3986
456,392.205,5.3973
468,394.205,5.3952
480,396.205,5.3946
492,398.205,5.3945
504,400.205,5.3947
516,402.205,5.3934
528,404.205,5.3934
540,406.205,5.3951
552,408.205,5.3955
564,410.205,5.3943
576,412.205,5.3928
588,414.205,5.3922
600,416.205,5.3903
612,418.205,5.3907
624,420.205,5.3894
636,422.205,5.3898
648,424.205,5.3901
660,426.205,5.3901
672,428.205,5.3903
684,430.205,5.3913
696,432.205,5.3892
708,434.205,5.3874
720,436.205,5.3888
732,438.205,5.3897
744,440.205,5.3883
756,442.205,5.3874
768,444.205,5.3855
780,446.205,5.383
792,448.205,5.3821
804,450.205,5.3821
816,452.205,5.3826
828,454.205,5.3826
840,456.205,5.3805
852,458.205,5.3805
864,460.205,5.3815
876,462.205,5.3811
888,464.205,5.3812
900,466.205,5.3822
912,468.205,5.382
924,470.205,5.3796
936,472.205,5.3801
948,474.205,5.3793
960,476.205,5.3789
972,478.205,5.3786
984,480.205,5.3781
996,482.205,5.3791
1008,484.205,5.3792
1020,486.205,5.3791
1032,488.205,5.3777
1044,490.205,5.3764
1056,492.205,5.3762
1068,494.205,5.3767
1080,496.205,5.3769
1092,498.205,5.3768
1104,500.205,5.3776
1116,502.205,5.3771
1128,504.205,5.377
1140,506.205,5.3772
1152,508.205,5.3772
1164,510.205,5.3774
1176,512.205,5.3764
1188,514.205,5.3758
1200,516.205,5.3753
1212,518.205,5.3741
1224,520.205,5.3739
1236,522.205,5.3736
1248,524.205,5.3715
1260,526.205,5.371
1272,528.205,5.3693
1284,530.205,5.3661
1296,532.205,5.3597
1308,534.205,5.3541
1320,536.205,5.3473
1332,538.205,5.3385
1344,540.205,5.3293
1356,542.205,5.3116
1368,544.205,5.2992
1380,546.205,5.2858
1392,548.205,5.2644
1404,550.205,5.2411
1416,552.205,5.2233
1428,554.205,5.2057
1440,556.205,5.1845
1452,558.205,5.1638
1464,560.205,5.1403
1476,562.205,5.112
1488,564.205,5.0795
1500,566.205,5.0373
1512,568.205,4.9948
1524,570.205,4.9409
1536,572.205,4.8637
1548,574.205,4.7808
1560,576.205,4.6758
1572,578.205,4.5389
1584,580.205,4.3943
1596,582.205,4.2528
1608,584.205,4.0958
1620,586.205,3.929
1632,588.205,3.7527
1644,590.205,3.6021
1656,592.205,3.4478
1668,594.205,3.2716
1680,596.205,3.0951
1692,598.205,2.9105
1704,600.205,2.7012
1716,602.205,2.4669
1728,604.205,2.2287
1740,606.205,1.9968
1752,608.205,1.784
1764,610.205,1.585
1776,612.205,1.4119
1788,614.205,1.2538
1800,616.205,1.115
1812,618.205,0.9936
1824,620.205,0.8865
1836,622.205,0.7931
1848,624.205,0.7107
1860,626.205,0.6408
1872,628.205,0.5818
1884,630.205,0.522
1896,632.205,0.479
1908,634.205,0.4321
1920,636.205,0.39
1932,638.205,0.3531
1944,640.205,0.323
1956,642.205,0.2952
1968,644.205,0.2658
1980,646.205,0.2413
1992,648.205,0.2224
2004,650.205,0.2007
2016,652.205,0.1803
2028,654.205,0.1649
2040,656.205,0.1508
2052,658.205,0.1355
2064,660.205,0.12
2076,662.205,0.1066
2088,664.205,0.0967
2100,666.205,0.0872
2112,668.205,0.0778
2124,670.205,0.0704
2136,672.205,0.0594
2148,674.205,0.0498
2160,676.205,0.0467
2172,678.205,0.0419
2184,680.205,0.0384
2196,682.205,0.0318
2208,684.205,0.0316
2220,686.205,0.0325
2232,688.205,0.0305
2244,690.205,0.0291
2256,692.205,0.0276
2268,694.205,0.0258
2280,696.205,0.0219
2292,698.205,0.0219
2304,700.205,0.024
2316,702.205,0.0248
2328,704.205,0.0256
2340,706.205,0.0255
2352,708.205,0.0235
2364,710.205,0.0235
2376,712.205,0.0235
2388,714.205,0.0235
2400,716.205,0.0235
2412,718.205,0.0235
2424,720.205,0.0206
2436,722.205,0.0196
2448,724.205,0.0195
2460,726.205,0.0194
2472,728.205,0.0193
2484,730.205,0.0192
2496,732.205,0.0194
2508,734.205,0.0209
2520,736.205,0.0211
2532,738.205,0.0214
2544,740.205,0.0208
2556,742.205,0.0203
2568,744.205,0.02
2580,746.205,0.0196
2592,748.205,0.0193
2604,750.205,0.019