Folder: matl-db/PMMA/Calibration_Data/UQ

Note: PMMA/README.md
# Poly(methyl methacrylate), PMMA

This folder holds measurement data, calibrated material property datasets, and results of numerical simulations related to the pyrolysis of case black PMMA. The specific material of interest is a nominally 6 mm (0.236 inch) thick, black, cast PMMA manufactured by Evonik under the tradename: ACRYLITE cast black 9H01 GT. Note: the identification of any commercial product or trade name does not imply endorsement or recommendation by the National Institute of Standards and Technology, NIST (or any other contributing institution).

|Folder Name| Description|
|---|---|
|Calibration_Data| Experimental measurements (e.g., TGA, DSC, Cone Calorimeter) used for pyrolysis model calibration (i.e., material property determination)|
|Calibration_Results|Results of numerical simulations demonstrating the ability of proposed material property sets to accurately *reproduce* relevant model calibration data|
|Computational_Results|Model predictions of sample decomposition in response to idealized zero- and one-dimensional heating scenarios (used for model to model comparison)|
|Material_Properties|Pyrolysis models (i.e., material property sets) organized in a standard .json format|
|Validation_Data|Experimental Measurements (sample mass loss and back surface temperature rise during anaerobic gasification of PMMA under external thermal radiation) for Pyrolysis Model Validation |
|Validation_Results|Results of numerical simulations demonstrating the ability of proposed material property sets to *predict* measured material decomposition behavior (used for model validation)|

File: UQ_Cone_25kW_2.csv
Time,Mass,HRR,Back Surface Temperature 1,Back Surface Temperature 2,Back Surface Temperature 3
[s],[g],[kW/m2],[K],[K],[K]
0,73.4,4.07818,301.5,302,301.1
4,73.52662,2.34998,301.8,302.2,301.5
8,73.62296,4.06982,302.3,302.6,302.3
12,73.59758,4.89164,303,303.1,303.4
16,73.52498,4.50966,304,303.9,304.8
20,73.58048,2.72169,305.2,304.8,306.3
24,73.5606,2.02177,306.6,305.9,308.1
28,73.62141,1.82785,308.1,307.2,310.2
32,73.58219,1.72075,309.8,308.6,312.5
36,73.55481,1.12017,311.7,310.2,314.8
40,73.56108,1.00858,313.7,311.9,317.2
44,73.52854,1.77826,315.8,313.8,319.7
48,73.59804,2.05978,318,315.8,322.2
52,73.61449,2.25245,320.3,317.9,325
56,73.62213,2.86261,322.7,319.9,327.7
60,73.56372,3.08733,325,322.1,330.4
64,73.554,3.40011,327.4,324.3,333.1
68,73.58769,1.7978,329.7,326.6,335.9
72,73.60339,1.85804,331.8,328.9,338.6
76,73.52582,2.38813,334,331.2,341.3
80,73.57544,2.92579,336.3,333.6,344.2
84,73.58818,2.93328,338.6,335.9,346.5
88,73.54671,2.35708,340.9,338.2,349.2
92,73.59027,1.9581,343.1,340.5,351.9
96,73.60152,1.83023,345.4,342.8,354.4
100,73.60417,2.22096,347.7,344.9,356.9
104,73.52903,0.982276,350.1,347,359.3
108,73.54045,1.55759,353.3,349.1,361.5
112,73.5705,2.28093,355.7,351.1,363.7
116,73.56917,3.2843,357.9,353.1,365.9
120,73.57139,2.83682,360,355.1,367.9
124,73.58134,4.06326,362,356.9,369.6
128,73.60499,3.2808,364.1,358.7,371.2
132,73.61152,2.83435,366.3,360.6,372.9
136,73.53911,1.18293,368.7,362.7,374.3
140,73.57332,1.02225,371.1,364.9,376
144,73.60832,1.75053,373.2,367.1,377.8
148,73.53407,16.9563,375.2,369.1,379.8
152,73.53014,39.7678,377.4,371.2,381.9
156,73.53024,66.8265,379.6,373.3,384.2
160,73.52713,87.3981,381.7,375.4,386.7
164,73.57462,111.661,383.7,377.5,389.4
168,73.5496,132.554,385.8,379.7,392
172,73.55649,153.266,387.8,381.9,394.6
176,73.6234,179.407,389.9,384.1,397.2
180,73.60567,211.005,392.2,386.4,399.7
184,73.4889,242.283,394.5,388.8,402
188,73.0845,266.881,396.7,391.2,404.3
192,72.7091,279.26,399,393.7,406.6
196,72.3272,289.041,401.3,396.2,408.8
200,71.9324,308.929,403.6,398.6,411.1
204,71.4818,314.659,405.9,401,413.1
208,71.0292,323.42,408.3,403.4,415.3
212,70.6051,329.641,411.1,405.8,417.5
216,70.1658,332.677,413.6,408.4,419.5
220,69.6766,333.508,415.9,410.9,421.8
224,69.2525,341.245,418.2,413.3,424.4
228,68.7488,345.187,420.5,415.7,426.7
232,68.28794,344.272,422.7,418.1,428.8
236,67.8148,351.278,424.9,420.5,431
240,67.3263,355.91,427.1,422.9,433.2
244,66.8162,363.193,429.2,425.3,435.3
248,66.3275,364.935,431.4,427.6,437.6
252,65.83109,368.548,433.5,429.9,439.6
256,65.3434,370.504,435.7,432.2,441.7
260,64.8463,374.019,437.9,434.5,444
264,64.3403,373.355,440,436.7,446
268,63.82,382.114,442.1,439.1,448
272,63.2236,391.061,444.2,441.3,450.3
276,62.6865,387.123,446.3,443.4,452.3
280,62.1623,395.396,448.4,445.7,454.4
284,61.6553,394.181,450.4,448,456.4
288,61.123,393.355,452.5,450.2,458.6
292,60.6234,398.952,454.5,452.4,460.8
296,60.0569,397.818,456.5,454.6,463
300,59.53304,402.503,458.6,456.8,465.1
304,58.9933,402.439,460.6,458.9,467.1
308,58.4033,407.939,462.6,461,469.3
312,57.8841,413.355,464.6,463.1,471.3
316,57.3567,419.926,466.5,465.3,473.2
320,56.76481,417.641,468.4,467.4,475.3
324,56.2322,418.86,470.5,469.6,477.3
328,55.6896,419.792,472.5,471.6,479.3
332,55.0862,425.127,474.5,473.7,481.1
336,54.5157,425.588,476.4,475.9,483.1
340,53.9316,430.691,478.4,477.8,485.2
344,53.3623,432.623,480.4,479.8,487.1
348,52.7133,435.025,482.5,481.8,488.8
352,52.1368,438.202,484.4,483.9,490.5
356,51.5787,435.354,486.3,486,492.5
360,50.9624,441.147,488.3,488.1,494.4
364,50.3303,451.802,490.4,490.2,496.4
368,49.7663,451.341,492.4,492.3,498.7
372,49.1558,451.102,494.2,494.5,500.6
376,48.5187,450.285,496.2,496.6,502.7
380,47.9074,451.094,498.1,498.7,504.6
384,47.3061,458.071,500.1,500.7,506.8
388,46.6704,458.555,502,502.6,509.1
392,46.0373,464.234,503.9,504.7,510.9
396,45.3994,456.03,505.9,506.9,512.7
400,44.8136,467.638,507.9,508.9,515
404,44.1655,469.754,510,510.9,517.2
408,43.5481,467.967,512,512.9,519.6
412,42.9612,468.972,514.1,514.9,522.1
416,42.332,463.808,516.1,517,524.3
420,41.6645,473.286,518.1,519,526.7
424,41.0204,473.076,520,520.9,529
428,40.418,472.082,522.1,523,531.3
432,39.8047,468.849,524.4,525.1,533.6
436,39.1609,469.708,526.5,527.3,535.9
440,38.5135,464.913,528.5,529.4,538.3
444,37.9017,468.232,530.6,531.6,540.5
448,37.2518,473.738,533,534,542.7
452,36.628,476.31,535.5,536.2,544.9
456,36.0014,479.35,538.1,538.8,547.3
460,35.3239,479.963,540.8,541.3,549.7
464,34.6932,483.862,543.5,544,552.1
468,34.0517,491.961,546.4,546.7,554.5
472,33.40304,486.861,549.3,549.4,556.9
476,32.7827,488.613,552.2,552,559.2
480,32.1125,489.778,555.4,554.8,562.1
484,31.45463,490.461,558.4,557.5,564.8
488,30.79486,498.544,561.6,560.3,567.5
492,30.159,502.196,564.7,563.2,570.3
496,29.5059,499.767,567.9,566,573.3
500,28.8252,497.556,571.1,569,576.1
504,28.1788,501.438,574.2,572,579.3
508,27.5257,497.741,577.4,575,582.4
512,26.8563,494.646,580.6,578,585.5
516,26.1805,486.141,583.9,580.8,588.7
520,25.5905,487.147,587.1,583.8,591.9
524,24.9639,475.077,590.5,586.5,595.2
528,24.3072,466.073,593.9,589.3,598.5
532,23.72495,456.958,597.1,592.1,601.7
536,23.187,448.501,600.5,594.8,604.6
540,22.5742,442.48,603.6,597.5,607.5
544,22.029,437.364,606.8,600.1,610.6
548,21.521,437.77,609.9,602.8,613.5
552,20.8435,428.291,613.1,605.6,616.9
556,20.2946,430.166,616.3,608.5,620.4
560,19.729,425.461,619.6,611.3,624.2
564,19.2334,421.158,622.9,614.1,628.5
568,18.6777,415.679,626.6,616.8,633.3
572,18.1266,420.766,630.4,619.8,638.6
576,17.5495,424.198,634.5,623.1,645
580,17.02773,419.2,639,626.9,652.3
584,16.4396,414.894,643.2,631.3,660.2
588,15.9092,415.46,647.4,636.5,669.4
592,15.3684,408.321,653,642.8,681.2
596,14.8223,406.63,659.5,650.6,696.3
600,14.2931,406.477,666.8,660.3,713
604,13.7827,402.473,674.6,673.6,732.2
608,13.23127,394.645,683.5,687.9,746.7
612,12.75322,384.242,692.9,699.3,756.5
616,12.2492,378.676,700.9,707.5,765
620,11.7667,378.625,711.1,713.7,772.9
624,11.20502,376.958,721.9,719.6,780.5
628,10.774,365.924,730.4,724.1,786.3
632,10.3075,355.681,739.6,729.7,795.3
636,9.868928,349.169,747.3,734.7,806.1
640,9.490142,329.401,754.5,739.4,810.8
644,9.071924,316.736,761.7,744,815.1
648,8.659055,307.077,769,749.3,845
652,8.28159,298.058,775.8,755.1,857.2
656,7.913515,274.485,786.3,761.7,872.3
660,7.567536,265.984,801.2,770.4,874.9
664,7.266598,252.172,824.3,777.8,869.2
668,6.988703,225.851,842.2,786.2,885.7
672,6.719044,208.88,853.3,797.3,885.1
676,6.4515,195.545,868.2,805.1,898.1
680,6.196163,177.417,868.8,816.3,901.6
684,6.04081,163.997,873.7,826.7,905.7
688,5.826956,149.538,880.1,835.9,910.1
692,5.684793,131.596,877.6,844.9,907.5
696,5.570865,122.854,882.6,850.2,914.2
700,5.446937,116.188,880.4,854.8,918.6
704,5.322679,108.958,883.1,863,920.5
708,5.221817,100.893,885.6,866,928.3
712,5.102054,97.2656,890.6,870.9,938.2
716,5.017694,93.494,894.2,876.9,938.4
720,4.901411,92.4786,894.8,878.5,944.4
724,4.732604,88.953,898.4,884.3,943.6
728,4.679206,85.7763,901.4,883.8,916.7
732,4.605965,84.07,904.1,887.7,900.4
736,4.536497,81.1416,908.2,886.9,886.5
740,4.45891,79.6179,906.8,888.4,864.6
744,4.402755,77.6533,897,889.7,839.7
748,4.328659,77.3876,882.3,891.9,826.3
752,4.26441,76.7281,865.8,892.8,818
756,4.201586,74.7101,852.7,892.3,811.4
760,4.13208,73.6626,843.2,893.6,801.8
764,4.064078,72.2855,834.8,891,798.7
768,3.99701,68.8428,825.7,881.3,794.8
772,3.926924,66.4024,819.7,873,788
776,3.835445,65.3697,813.3,865.6,785.9
780,3.770525,63.1639,808.4,857.7,781.4
784,3.733272,62.926,803.7,849.1,776.7
788,3.684,59.1247,796.8,841.1,775.1
792,3.636749,57.8832,792.4,833.7,774.2
796,3.583948,57.2285,787.1,826,771
800,3.533715,55.816,784,819,768.4
804,3.458764,54.2231,779.8,812.9,768.7
808,3.406974,53.6848,777.7,807.9,767.5
812,3.350303,53.1193,775.3,802.8,762.6
816,3.309393,51.8616,771.7,798,763.9
820,3.265547,51.8636,768.8,794.2,762.3
824,3.221619,51.1219,767,790.5,763.2
828,3.173485,50.4505,764.1,786.8,760.5
832,3.142607,49.8642,762.3,783.5,758.4
836,3.072573,49.041,759.3,780,755.5
840,3.012933,49.217,756.9,777.2,751.8
844,2.966036,47.8415,754.6,774.4,750.9
848,2.953578,46.8167,752.5,771.6,751.8
852,2.915044,47.3628,751.7,770,751.9
856,2.853237,46.9063,750.5,767.9,749.9
860,2.788904,46.8886,749.6,765.8,748.1
864,2.725194,47.2241,748.7,763.7,747.4
868,2.716749,47.1595,748.8,762.8,747.8
872,2.692408,45.4212,749.1,761.4,746.5
876,2.607446,44.859,747.2,759.6,744.1
880,2.604802,45.8842,746.7,758.3,741.7
884,2.574,44.9009,745.9,756.9,739.5
888,2.540936,44.6259,744.8,755.4,742.9
892,2.485678,45.0626,744.1,754.5,743.1
896,2.435062,45.0757,744.2,753.5,743.3
900,2.396856,44.1247,742.4,752.6,743.6
904,2.378386,44.6136,741.4,751.5,741.7
908,2.344,43.3772,740.6,750.8,741.9
912,2.29443,42.3309,739.4,750,741.2
916,2.260017,42.8753,739,749,741.9
920,2.232562,42.5924,740.1,748,739.4
924,2.183048,41.8117,739.6,747.6,739.1
928,2.131707,41.9851,738.5,746.7,740.2
932,2.065712,42.0113,737.2,746.1,737.4
936,2.029146,41.9459,736,745.6,739.5
940,1.990497,41.3628,736.8,744.9,738.1
944,1.941121,40.5976,736.3,744.6,736.1
948,1.915895,39.9366,736,744.1,736.3
952,1.857627,40.4643,736.8,743.6,737.3
956,1.810219,40.6257,735.5,742.6,735.7
960,1.79039,41.4879,734.8,742.1,734.1
964,1.762411,34.0787,735.1,741.8,733
968,1.733335,32.5335,734.5,741.4,734.6
972,1.704876,36.5628,733.5,741.1,734.4
976,1.638398,38.6947,734,740.7,733.1
980,1.583422,40.1328,733.6,740.1,734.3
984,1.564,42.8521,733.1,739.7,732.6
988,1.554,42.0482,733.3,739,731.7
992,1.513152,41.5111,733.9,738.7,733.3
996,1.475251,38.5231,732.5,738.8,733.2
1000,1.47086,33.7306,731.8,738.6,731.9

File: UQ_TGA_N2_10K_2.csv
Time,Temperature,Mass
[s],[K],[mg]
0,316.797,5.092
12,318.797,5.0921
24,320.797,5.0966
36,322.797,5.0985
48,324.797,5.0986
60,326.797,5.0983
72,328.797,5.0981
84,330.797,5.0975
96,332.797,5.097
108,334.797,5.0973
120,336.797,5.096
132,338.797,5.0945
144,340.797,5.0936
156,342.797,5.0943
168,344.797,5.0954
180,346.797,5.096
192,348.797,5.0962
204,350.797,5.094
216,352.797,5.0936
228,354.797,5.0938
240,356.797,5.0937
252,358.797,5.0942
264,360.797,5.0936
276,362.797,5.094
288,364.797,5.0948
300,366.797,5.0931
312,368.797,5.0944
324,370.797,5.0954
336,372.797,5.0963
348,374.797,5.094
360,376.797,5.0931
372,378.797,5.093
384,380.797,5.0915
396,382.797,5.0895
408,384.797,5.089
420,386.797,5.0889
432,388.797,5.0885
444,390.797,5.0868
456,392.797,5.0867
468,394.797,5.0856
480,396.797,5.0853
492,398.797,5.0863
504,400.797,5.0841
516,402.797,5.0822
528,404.797,5.0827
540,406.797,5.0835
552,408.797,5.0809
564,410.797,5.0781
576,412.797,5.0775
588,414.797,5.0752
600,416.797,5.0747
612,418.797,5.0733
624,420.797,5.0726
636,422.797,5.0718
648,424.797,5.0717
660,426.797,5.0689
672,428.797,5.068
684,430.797,5.0659
696,432.797,5.0617
708,434.797,5.0585
720,436.797,5.0558
732,438.797,5.0527
744,440.797,5.0479
756,442.797,5.0435
768,444.797,5.0376
780,446.797,5.0305
792,448.797,5.0251
804,450.797,5.0205
816,452.797,5.014
828,454.797,5.008
840,456.797,5.0023
852,458.797,4.9952
864,460.797,4.9881
876,462.797,4.9817
888,464.797,4.977
900,466.797,4.9719
912,468.797,4.9671
924,470.797,4.9606
936,472.797,4.9536
948,474.797,4.9479
960,476.797,4.942
972,478.797,4.9373
984,480.797,4.9324
996,482.797,4.9268
1008,484.797,4.9229
1020,486.797,4.9185
1032,488.797,4.9154
1044,490.797,4.9137
1056,492.797,4.9118
1068,494.797,4.9097
1080,496.797,4.9074
1092,498.797,4.9048
1104,500.797,4.9025
1116,502.797,4.9008
1128,504.797,4.8983
1140,506.797,4.8966
1152,508.797,4.8966
1164,510.797,4.8966
1176,512.797,4.8964
1188,514.797,4.8957
1200,516.797,4.8928
1212,518.797,4.8904
1224,520.797,4.8889
1236,522.797,4.8868
1248,524.797,4.8851
1260,526.797,4.8827
1272,528.797,4.8797
1284,530.797,4.8762
1296,532.797,4.8738
1308,534.797,4.8685
1320,536.797,4.8653
1332,538.797,4.861
1344,540.797,4.8563
1356,542.797,4.8507
1368,544.797,4.8458
1380,546.797,4.8404
1392,548.797,4.8331
1404,550.797,4.8229
1416,552.797,4.814
1428,554.797,4.8053
1440,556.797,4.7949
1452,558.797,4.7849
1464,560.797,4.774
1476,562.797,4.7624
1488,564.797,4.7513
1500,566.797,4.7386
1512,568.797,4.7243
1524,570.797,4.7102
1536,572.797,4.6974
1548,574.797,4.6829
1560,576.797,4.6675
1572,578.797,4.6517
1584,580.797,4.6308
1596,582.797,4.6123
1608,584.797,4.591
1620,586.797,4.5677
1632,588.797,4.5403
1644,590.797,4.5102
1656,592.797,4.4782
1668,594.797,4.4362
1680,596.797,4.3943
1692,598.797,4.3505
1704,600.797,4.3014
1716,602.797,4.2448
1728,604.797,4.1664
1740,606.797,4.0986
1752,608.797,4.0134
1764,610.797,3.9256
1776,612.797,3.8291
1788,614.797,3.7209
1800,616.797,3.6039
1812,618.797,3.4804
1824,620.797,3.3459
1836,622.797,3.2062
1848,624.797,3.0569
1860,626.797,2.9024
1872,628.797,2.7467
1884,630.797,2.5834
1896,632.797,2.4197
1908,634.797,2.2578
1920,636.797,2.0869
1932,638.797,1.9217
1944,640.797,1.7554
1956,642.797,1.5889
1968,644.797,1.4293
1980,646.797,1.273
1992,648.797,1.1292
2004,650.797,0.9943
2016,652.797,0.8686
2028,654.797,0.7561
2040,656.797,0.653
2052,658.797,0.5613
2064,660.797,0.4808
2076,662.797,0.4118
2088,664.797,0.3496
2100,666.797,0.2981
2112,668.797,0.2515
2124,670.797,0.2121
2136,672.797,0.1811
2148,674.797,0.1539
2160,676.797,0.1308
2172,678.797,0.1118
2184,680.797,0.0973
2196,682.797,0.0829
2208,684.797,0.07
2220,686.797,0.0617
2232,688.797,0.0527
2244,690.797,0.0472
2256,692.797,0.0409
2268,694.797,0.0342
2280,696.797,0.0282
2292,698.797,0.0243
2304,700.797,0.0212
2316,702.797,0.0202
2328,704.797,0.019
2340,706.797,0.019
2352,708.797,0.019
2364,710.797,0.019
2376,712.797,0.019
2388,714.797,0.019
2400,716.797,0.019
2412,718.797,0.019
2424,720.797,0.019
2436,722.797,0.019
2448,724.797,0.019
2460,726.797,0.019
2472,728.797,0.019
2484,730.797,0.019
2496,732.797,0.019
2508,734.797,0.019
2520,736.797,0.019
2532,738.797,0.0189
2544,740.797,0.0188
2556,742.797,0.0187
2568,744.797,0.0186
2580,746.797,0.0185
2592,748.797,0.0184
2604,750.797,0.0183

File: UQ_TGA_N2_10K_3.csv
Time,Temperature,Mass
[s],[K],[mg]
0,316.816,5.5945
18,319.816,5.5946
36,322.816,5.5986
54,325.816,5.5998
72,328.816,5.5993
90,331.816,5.5988
108,334.816,5.5999
126,337.816,5.5965
144,340.816,5.5945
162,343.816,5.5962
180,346.816,5.5986
198,349.816,5.5976
216,352.816,5.5957
234,355.816,5.5947
252,358.816,5.5938
270,361.816,5.5944
288,364.816,5.5942
306,367.816,5.5922
324,370.816,5.5929
342,373.816,5.5924
360,376.816,5.5902
378,379.816,5.5912
396,382.816,5.5873
414,385.816,5.5874
432,388.816,5.5882
450,391.816,5.5891
468,394.816,5.5871
486,397.816,5.5853
504,400.816,5.5822
522,403.816,5.5806
540,406.816,5.5802
558,409.816,5.5783
576,412.816,5.5764
594,415.816,5.5731
612,418.816,5.5711
630,421.816,5.5695
648,424.816,5.5669
666,427.816,5.5617
684,430.816,5.5606
702,433.816,5.5555
720,436.816,5.5513
738,439.816,5.5436
756,442.816,5.5363
774,445.816,5.524
792,448.816,5.5136
810,451.816,5.5037
828,454.816,5.4942
846,457.816,5.4838
864,460.816,5.4732
882,463.816,5.4656
900,466.816,5.4574
918,469.816,5.447
936,472.816,5.438
954,475.816,5.4272
972,478.816,5.419
990,481.816,5.4122
1008,484.816,5.4058
1026,487.816,5.3999
1044,490.816,5.3963
1062,493.816,5.3928
1080,496.816,5.3896
1098,499.816,5.3858
1116,502.816,5.3824
1134,505.816,5.3779
1152,508.816,5.3768
1170,511.816,5.3756
1188,514.816,5.3746
1206,517.816,5.3709
1224,520.816,5.3683
1242,523.816,5.3658
1260,526.816,5.3625
1278,529.816,5.3577
1296,532.816,5.3515
1314,535.816,5.3455
1332,538.816,5.3375
1350,541.816,5.3301
1368,544.816,5.321
1386,547.816,5.3116
1404,550.816,5.2986
1422,553.816,5.2827
1440,556.816,5.2667
1458,559.816,5.2504
1476,562.816,5.2326
1494,565.816,5.2119
1512,568.816,5.1899
1530,571.816,5.1683
1548,574.816,5.1426
1566,577.816,5.1169
1584,580.816,5.0868
1602,583.816,5.0534
1620,586.816,5.0147
1638,589.816,4.9701
1656,592.816,4.915
1674,595.816,4.8542
1692,598.816,4.7848
1710,601.816,4.6932
1728,604.816,4.5904
1746,607.816,4.4724
1764,610.816,4.3388
1782,613.816,4.1827
1800,616.816,4.0056
1818,619.816,3.8079
1836,622.816,3.5925
1854,625.816,3.3586
1872,628.816,3.1145
1890,631.816,2.8573
1908,634.816,2.5898
1926,637.816,2.3138
1944,640.816,2.0347
1962,643.816,1.7529
1980,646.816,1.478
1998,649.816,1.2244
2016,652.816,0.9938
2034,655.816,0.7941
2052,658.816,0.6283
2070,661.816,0.4912
2088,664.816,0.3823
2106,667.816,0.3035
2124,670.816,0.2336
2142,673.816,0.1839
2160,676.816,0.1445
2178,679.816,0.1151
2196,682.816,0.0931
2214,685.816,0.0757
2232,688.816,0.0616
2250,691.816,0.0512
2268,694.816,0.0417
2286,697.816,0.0355
2304,700.816,0.0316
2322,703.816,0.0292
2340,706.816,0.0274
2358,709.816,0.0266
2376,712.816,0.0266
2394,715.816,0.0266
2412,718.816,0.0266
2430,721.816,0.0266
2448,724.816,0.0266
2466,727.816,0.0263
2484,730.816,0.026
2502,733.816,0.0261
2520,736.816,0.0265
2538,739.816,0.0268
2556,742.816,0.0271
2574,745.816,0.0271
2592,748.816,0.0271
2610,751.816,0.0271
2628,754.816,0.0271
2646,757.816,0.0271
2664,760.816,0.0271
2682,763.816,0.027
2700,766.816,0.0254
2718,769.816,0.0251
2736,772.816,0.0247
2754,775.816,0.0235
2772,778.816,0.023
2790,781.816,0.0227
2808,784.816,0.0225
2826,787.816,0.0229
2844,790.816,0.0228
2862,793.816,0.0215
2880,796.816,0.0204
2898,799.816,0.0195
2916,802.816,0.0191
2934,805.816,0.0183
2952,808.816,0.0174
2970,811.816,0.0169
2988,814.816,0.0192
3006,817.816,0.0199
3024,820.816,0.0185
3042,823.816,0.0179
3060,826.816,0.0191
3078,829.816,0.0201
3096,832.816,0.0209
3114,835.816,0.0192
3132,838.816,0.0187
3150,841.816,0.0199
3168,844.816,0.0207
3186,847.816,0.0214
3204,850.816,0.0215
3222,853.816,0.0216
3240,856.816,0.022
3258,859.816,0.0223
3276,862.816,0.0209
3294,865.816,0.0197
3312,868.816,0.0185
3330,871.816,0.0182
3348,874.816,0.0184
3366,877.816,0.0184
3384,880.816,0.0184
3402,883.816,0.0165
3420,886.816,0.0165
3438,889.816,0.0172
3456,892.816,0.0172
3474,895.816,0.017
3492,898.816,0.0168
3510,901.816,0.0151
3528,904.816,0.0148
3546,907.816,0.0151
3564,910.816,0.0153
3582,913.816,0.0153
3600,916.816,0.014
3618,919.816,0.0136
3636,922.816,0.0147
3654,925.816,0.015
3672,928.816,0.0149
3690,931.816,0.014
3708,934.816,0.0137
3726,937.816,0.013
3744,940.816,0.0127
3762,943.816,0.0132
3780,946.816,0.0122
3798,949.816,0.0117
3816,952.816,0.0117
3834,955.816,0.0117
3852,958.816,0.0117
3870,961.816,0.0116
3888,964.816,0.0113
3906,967.816,0.011
3924,970.816,0.0093
3942,973.816,0.0088
3960,976.816,0.0076
3978,979.816,0.0068
3996,982.816,0.0066
4014,985.816,0.0071
4032,988.816,0.0082
4050,991.816,0.0087
4068,994.816,0.0062
4086,997.816,0.0062
4104,1000.816,0.0072

File: UQ_TGA_O2-21_10K_1.csv
Time,Temperature,Mass
[s],[K],[mg]
0,316.009,5.0169
12,318.009,5.0183
24,320.009,5.0166
36,322.009,5.0181
48,324.009,5.0239
60,326.009,5.0326
72,328.009,5.0437
84,330.009,5.0541
96,332.009,5.0667
108,334.009,5.0774
120,336.009,5.0858
132,338.009,5.092
144,340.009,5.0946
156,342.009,5.0944
168,344.009,5.0955
180,346.009,5.0986
192,348.009,5.0969
204,350.009,5.0945
216,352.009,5.0925
228,354.009,5.0908
240,356.009,5.0875
252,358.009,5.0883
264,360.009,5.09
276,362.009,5.0862
288,364.009,5.0891
300,366.009,5.0891
312,368.009,5.0881
324,370.009,5.0861
336,372.009,5.0878
348,374.009,5.0904
360,376.009,5.0904
372,378.009,5.0942
384,380.009,5.0941
396,382.009,5.0936
408,384.009,5.094
420,386.009,5.0953
432,388.009,5.0956
444,390.009,5.0994
456,392.009,5.0989
468,394.009,5.096
480,396.009,5.0937
492,398.009,5.0937
504,400.009,5.0937
516,402.009,5.0922
528,404.009,5.0918
540,406.009,5.0911
552,408.009,5.091
564,410.009,5.0927
576,412.009,5.0915
588,414.009,5.0933
600,416.009,5.0903
612,418.009,5.0919
624,420.009,5.0908
636,422.009,5.0909
648,424.009,5.0916
660,426.009,5.0924
672,428.009,5.0933
684,430.009,5.0915
696,432.009,5.0884
708,434.009,5.0866
720,436.009,5.0874
732,438.009,5.0891
744,440.009,5.0889
756,442.009,5.0881
768,444.009,5.0866
780,446.009,5.0846
792,448.009,5.0837
804,450.009,5.0854
816,452.009,5.0848
828,454.009,5.085
840,456.009,5.0835
852,458.009,5.0835
864,460.009,5.0835
876,462.009,5.0828
888,464.009,5.0813
900,466.009,5.083
912,468.009,5.084
924,470.009,5.0809
936,472.009,5.0806
948,474.009,5.0806
960,476.009,5.0812
972,478.009,5.0815
984,480.009,5.0814
996,482.009,5.0824
1008,484.009,5.0828
1020,486.009,5.083
1032,488.009,5.0809
1044,490.009,5.0775
1056,492.009,5.0765
1068,494.009,5.0762
1080,496.009,5.0769
1092,498.009,5.0775
1104,500.009,5.0807
1116,502.009,5.0812
1128,504.009,5.0806
1140,506.009,5.0806
1152,508.009,5.0805
1164,510.009,5.0825
1176,512.009,5.0829
1188,514.009,5.0826
1200,516.009,5.082
1212,518.009,5.0813
1224,520.009,5.0812
1236,522.009,5.0812
1248,524.009,5.0794
1260,526.009,5.0774
1272,528.009,5.0756
1284,530.009,5.0734
1296,532.009,5.0685
1308,534.009,5.0622
1320,536.009,5.0541
1332,538.009,5.0472
1344,540.009,5.0379
1356,542.009,5.0276
1368,544.009,5.0137
1380,546.009,4.9982
1392,548.009,4.9762
1404,550.009,4.9598
1416,552.009,4.9412
1428,554.009,4.9218
1440,556.009,4.903
1452,558.009,4.883
1464,560.009,4.8594
1476,562.009,4.8322
1488,564.009,4.8038
1500,566.009,4.7652
1512,568.009,4.72
1524,570.009,4.6675
1536,572.009,4.604
1548,574.009,4.5122
1560,576.009,4.4043
1572,578.009,4.2712
1584,580.009,4.1329
1596,582.009,3.9954
1608,584.009,3.8457
1620,586.009,3.7022
1632,588.009,3.5547
1644,590.009,3.3949
1656,592.009,3.2467
1668,594.009,3.0716
1680,596.009,2.9118
1692,598.009,2.7296
1704,600.009,2.5111
1716,602.009,2.2768
1728,604.009,2.051
1740,606.009,1.8375
1752,608.009,1.65
1764,610.009,1.4832
1776,612.009,1.3184
1788,614.009,1.1679
1800,616.009,1.0277
1812,618.009,0.9198
1824,620.009,0.8134
1836,622.009,0.7326
1848,624.009,0.6523
1860,626.009,0.5938
1872,628.009,0.5365
1884,630.009,0.4822
1896,632.009,0.434
1908,634.009,0.3925
1920,636.009,0.3521
1932,638.009,0.3213
1944,640.009,0.2924
1956,642.009,0.264
1968,644.009,0.2385
1980,646.009,0.2157
1992,648.009,0.1954
2004,650.009,0.1759
2016,652.009,0.1551
2028,654.009,0.1384
2040,656.009,0.1246
2052,658.009,0.1103
2064,660.009,0.0967
2076,662.009,0.0841
2088,664.009,0.0759
2100,666.009,0.0632
2112,668.009,0.0549
2124,670.009,0.0464
2136,672.009,0.0393
2148,674.009,0.0277
2160,676.009,0.0235
2172,678.009,0.0193
2184,680.009,0.0156
2196,682.009,0.0089
2208,684.009,0.0073
2220,686.009,0.0088
2232,688.009,0.0068
2244,690.009,0.0062
2256,692.009,0.0058
2268,694.009,0.0043
2280,696.009,0.0025
2292,698.009,0.0025
2304,700.009,0.0046
2316,702.009,0.0055
2328,704.009,0.0065
2340,706.009,0.0065
2352,708.009,0.0065
2364,710.009,0.0065
2376,712.009,0.0065
2388,714.009,0.0065
2400,716.009,0.0064
2412,718.009,0.0061
2424,720.009,0.0031
2436,722.009,0.0003
2448,724.009,0
2460,726.009,0.0018
2472,728.009,0.0028
2484,730.009,0.0036
2496,732.009,0.0035
2508,734.009,0.0035
2520,736.009,0.0034
2532,738.009,0.0033
2544,740.009,0.0032
2556,742.009,0.0011
2568,744.009,0.0017
2580,746.009,0.0049
2592,748.009,0.0047
2604,750.009,0.0042