Folder: matl-db/Verification/Kinetics

Note: Verification/Kinetics/properties.txt
&SPEC ID='MMA', FORMULA='C5H8O2', SPECIFIC_HEAT=1.1, RADCAL_ID='MMA', SIGMALJ=4.701, EPSILONKLJ=205.78 /

&REAC FUEL='MMA', SOOT_YIELD=0.022, CO_YIELD=0.01, RADIATIVE_FRACTION=0.31 /  Tewarson, 4th SFPE Handbook, Table 3-4.16

&MATL ID='BLACK PMMA'
      ABSORPTION_COEFFICIENT=2870.
      A(1) = 28500000000000.0
      E(1) = 191000.0
      EMISSIVITY=0.96
      DENSITY= 1210.
      SPEC_ID='MMA'
      NU_SPEC= 0.02
      MATL_ID='PMMA_INT'
      NU_MATL=0.98
      CONDUCTIVITY_RAMP ='k_PMMA'
      SPECIFIC_HEAT_RAMP = 'cp_PMMA'
      HEAT_OF_REACTION = 5. /

&MATL ID='PMMA_INT'
      ABSORPTION_COEFFICIENT=2870.
      A(1) = 28500000000000.0
      E(1) = 191000.0
      EMISSIVITY=0.96
      DENSITY= 1210.
      SPEC_ID='MMA'
      NU_SPEC= 0.98
      MATL_ID='PMMA_CHAR'
      NU_MATL=0.02
      CONDUCTIVITY_RAMP ='k_PMMA'
      SPECIFIC_HEAT_RAMP = 'cp_PMMA'
      HEAT_OF_REACTION = 817. /

&MATL ID='PMMA_CHAR'
      ABSORPTION_COEFFICIENT=2870.
      EMISSIVITY=0.96
      DENSITY=1210.
      CONDUCTIVITY_RAMP = 'k_PMMA'
      SPECIFIC_HEAT_RAMP = 'cp_PMMA' /

&RAMP ID='k_PMMA', T= 20., F=0.160 /
&RAMP ID='k_PMMA', T=122., F=0.160 /
&RAMP ID='k_PMMA', T=500., F=0.015 /

&RAMP ID='cp_PMMA', T= 20., F=1.05 /
&RAMP ID='cp_PMMA', T=122., F=1.90 /
&RAMP ID='cp_PMMA', T=500., F=3.22 /

Note: Verification/README.md
## Model Verification

This folder holds numerical results (i.e., model predictions of heat transfer or material decomposition) that can be used for verification and code-to-code comparison of computational pyrolysis solvers.

Cases of interest (tentative list) include:
1. 'Pure verification' (canonical cases)
a.  1D heat transfer
b. Heat transfer (with generation source term)
c. Internal radiation absorption
d. Arhenius rate decomposition
2. ‘Code to code’ comparison (verification)
(everyone has the same matl. Property sets, we each simulate the same base cases [TGA, ideal gasification, conduction…])

File: iso_tga_data.csv
Time,Mass,Temperature
[s],[-],K
0.0,1.0,700
7.21443,0.573902,700
14.4289,0.329363,700
21.6433,0.189022,700
28.8577,0.10848,700
36.0721,0.0622568,700
43.2866,0.0357293,700
50.501,0.0205051,700
57.7154,0.0117679,700
64.9299,0.00675362,700
72.1443,0.00387591,700
79.3587,0.00222439,700
86.5731,0.00127658,700
93.7876,0.000732633,700
101.002,0.000420459,700
108.216,0.000241302,700
115.431,0.000138484,700
122.645,7.9476e-05,700
129.86,4.56114e-05,700
137.074,2.61765e-05,700
144.289,1.50227e-05,700
151.503,8.62156e-06,700
158.717,4.94793e-06,700
165.932,2.83962e-06,700
173.146,1.62966e-06,700
180.361,9.35267e-07,700
187.575,5.36751e-07,700
194.79,3.08042e-07,700
202.004,1.76786e-07,700
209.218,1.01458e-07,700
216.433,5.82268e-08,700
223.647,3.34164e-08,700
230.862,1.91777e-08,700
238.076,1.10061e-08,700
245.291,6.31644e-09,700
252.505,3.62501e-09,700
259.719,2.0804e-09,700
266.934,1.19395e-09,700
274.148,6.85207e-10,700
281.363,3.93242e-10,700
288.577,2.25682e-10,700
295.792,1.29519e-10,700
303.006,7.43313e-11,700
310.22,4.26588e-11,700
317.435,2.4482e-11,700
324.649,1.40502e-11,700
331.864,8.06346e-12,700
339.078,4.62763e-12,700
346.293,2.65581e-12,700
353.507,1.52417e-12,700
360.721,8.74724e-13,700
367.936,5.02005e-13,700
375.15,2.88102e-13,700
382.365,1.65342e-13,700
389.579,9.48901e-14,700
396.794,5.44576e-14,700
404.008,3.12533e-14,700
411.222,1.79363e-14,700
418.437,1.02937e-14,700
425.651,5.90756e-15,700
432.866,3.39036e-15,700
440.08,1.94573e-15,700
447.295,1.11666e-15,700
454.509,6.40852e-16,700
461.723,3.67786e-16,700
468.938,2.11073e-16,700
476.152,1.21135e-16,700
483.367,6.95196e-17,700
490.581,3.98974e-17,700
497.796,2.28972e-17,700
505.01,1.31407e-17,700
512.224,7.54148e-18,700
519.439,4.32807e-18,700
526.653,2.48389e-18,700
533.868,1.42551e-18,700
541.082,8.181e-19,700
548.297,4.69509e-19,700
555.511,2.69452e-19,700
562.725,1.54639e-19,700
569.94,8.87475e-20,700
577.154,5.09323e-20,700
584.369,2.92302e-20,700
591.583,1.67752e-20,700
598.798,9.62733e-21,700
606.012,5.52514e-21,700
613.226,3.17089e-21,700
620.441,1.81978e-21,700
627.655,1.04437e-21,700
634.87,5.99367e-22,700
642.084,3.43978e-22,700
649.299,1.97409e-22,700
656.513,1.13294e-22,700
663.727,6.50194e-23,700
670.942,3.73147e-23,700
678.156,2.1415e-23,700
685.371,1.22901e-23,700
692.585,7.0533e-24,700
699.8,4.0479e-24,700
707.014,2.3231e-24,700
714.228,1.33323e-24,700
721.443,7.65142e-25,700
728.657,4.39116e-25,700
735.872,2.52009e-25,700
743.086,1.44629e-25,700
750.301,8.30026e-26,700
757.515,4.76353e-26,700
764.729,2.7338e-26,700
771.944,1.56893e-26,700
779.158,9.00412e-27,700
786.373,5.16748e-27,700
793.587,2.96563e-27,700
800.802,1.70198e-27,700
808.016,9.76767e-28,700
815.23,5.60568e-28,700
822.445,3.21711e-28,700
829.659,1.8463e-28,700
836.874,1.0596e-28,700
844.088,6.08104e-29,700
851.303,3.48992e-29,700
858.517,2.00287e-29,700
865.731,1.14945e-29,700
872.946,6.59672e-30,700
880.16,3.78587e-30,700
887.375,2.17271e-30,700
894.589,1.24692e-30,700
901.804,7.15612e-31,700
909.018,4.10691e-31,700
916.232,2.35696e-31,700
923.447,1.35266e-31,700
930.661,7.76296e-32,700
937.876,4.45517e-32,700
945.09,2.55683e-32,700
952.305,1.46737e-32,700
959.519,8.42126e-33,700
966.733,4.83297e-33,700
973.948,2.77365e-33,700
981.162,1.5918e-33,700
988.377,9.13538e-34,700
995.591,5.24281e-34,700
1002.81,3.00886e-34,700
1010.02,1.72679e-34,700
1017.23,9.91006e-35,700
1024.45,5.6874e-35,700
1031.66,3.26401e-35,700
1038.88,1.87322e-35,700
1046.09,1.07504e-35,700
1053.31,6.16969e-36,700
1060.52,3.5408e-36,700
1067.74,2.03207e-36,700
1074.95,1.16621e-36,700
1082.16,6.69288e-37,700
1089.38,3.84105e-37,700
1096.59,2.20439e-37,700
1103.81,1.2651e-37,700
1111.02,7.26044e-38,700
1118.24,4.16678e-38,700
1125.45,2.39132e-38,700
1132.67,1.37238e-38,700
1139.88,7.87612e-39,700
1147.09,4.52012e-39,700
1154.31,2.5941e-39,700
1161.52,1.48876e-39,700
1168.74,8.54402e-40,700
1175.95,4.90343e-40,700
1183.17,2.81408e-40,700
1190.38,1.61501e-40,700
1197.6,9.26855e-41,700
1204.81,5.31924e-41,700
1212.02,3.05272e-41,700
1219.24,1.75196e-41,700
1226.45,1.00545e-41,700
1233.67,5.77031e-42,700
1240.88,3.31159e-42,700
1248.1,1.90053e-42,700
1255.31,1.09071e-42,700
1262.53,6.25963e-43,700
1269.74,3.59241e-43,700
1276.95,2.06169e-43,700
1284.17,1.18321e-43,700
1291.38,6.79045e-44,700
1298.6,3.89705e-44,700
1305.81,2.23652e-44,700
1313.03,1.28354e-44,700
1320.24,7.36628e-45,700
1327.45,4.22752e-45,700
1334.67,2.42618e-45,700
1341.88,1.39239e-45,700
1349.1,7.99094e-46,700
1356.31,4.58601e-46,700
1363.53,2.63192e-46,700
1370.74,1.51046e-46,700
1377.96,8.66857e-47,700
1385.17,4.9749e-47,700
1392.38,2.85511e-47,700
1399.6,1.63855e-47,700
1406.81,9.40366e-48,700
1414.03,5.39678e-48,700
1421.24,3.09722e-48,700
1428.46,1.7775e-48,700
1435.67,1.02011e-48,700
1442.89,5.85442e-49,700
1450.1,3.35986e-49,700
1457.31,1.92823e-49,700
1464.53,1.10661e-49,700
1471.74,6.35088e-50,700
1478.96,3.64478e-50,700
1486.17,2.09174e-50,700
1493.39,1.20046e-50,700
1500.6,6.88943e-51,700
1507.82,3.95386e-51,700
1515.03,2.26912e-51,700
1522.24,1.30225e-51,700
1529.46,7.47366e-52,700
1536.67,4.28914e-52,700
1543.89,2.46155e-52,700
1551.1,1.41269e-52,700
1558.32,8.10742e-53,700
1565.53,4.65286e-53,700
1572.75,2.67029e-53,700
1579.96,1.53248e-53,700
1587.17,8.79493e-54,700
1594.39,5.04743e-54,700
1601.6,2.89673e-54,700
1608.82,1.66244e-54,700
1616.03,9.54074e-55,700
1623.25,5.47545e-55,700
1630.46,3.14237e-55,700
1637.68,1.80341e-55,700
1644.89,1.03498e-55,700
1652.1,5.93977e-56,700
1659.32,3.40884e-56,700
1666.53,1.95634e-56,700
1673.75,1.12275e-56,700
1680.96,6.44346e-57,700
1688.18,3.69791e-57,700
1695.39,2.12224e-57,700
1702.61,1.21796e-57,700
1709.82,6.98986e-58,700
1717.03,4.01149e-58,700
1724.25,2.3022e-58,700
1731.46,1.32124e-58,700
1738.68,7.5826e-59,700
1745.89,4.35167e-59,700
1753.11,2.49743e-59,700
1760.32,1.43328e-59,700
1767.54,8.22561e-60,700
1774.75,4.72069e-60,700
1781.96,2.70921e-60,700
1789.18,1.55482e-60,700
1796.39,8.92314e-61,700
1800.0,6.75984e-61,700