Folder: matl-db/Verification/Results

Note: Verification/README.md
## Model Verification

This folder holds numerical results (i.e., model predictions of heat transfer or material decomposition) that can be used for verification and code-to-code comparison of computational pyrolysis solvers.

Cases of interest (tentative list) include:
1. 'Pure verification' (canonical cases)
a.  1D heat transfer
b. Heat transfer (with generation source term)
c. Internal radiation absorption
d. Arhenius rate decomposition
2. ‘Code to code’ comparison (verification)
(everyone has the same matl. Property sets, we each simulate the same base cases [TGA, ideal gasification, conduction…])

File: MaCFP_PMMA_NIST_dynamic_TGA_10K_FDS_results.csv
Time,alpha,Temperature
s,-,K
0.0,0.0,300.15
18.0,0.0,302.628
36.0,0.0,305.614
54.0,0.0,308.613
72.0,0.0,311.612
90.0,0.0,314.624
108.0,0.0,317.623
126.0,1.11022e-16,320.623
144.0,1.11022e-16,323.621
162.0,2.22045e-16,326.6198
180.0,4.44089e-16,329.618
198.0,7.77156e-16,332.619
216.0,1.55431e-15,335.617
234.0,2.88658e-15,338.615
252.0,5.21805e-15,341.615
270.0,9.54792e-15,344.614
288.0,1.73195e-14,347.613
306.0,3.09752e-14,350.605
324.0,5.4956e-14,353.597
342.0,9.63674e-14,356.596
360.0,1.67755e-13,359.596
378.0,2.89213e-13,362.595
396.0,4.94271e-13,365.593
414.0,8.37663e-13,368.593
432.0,1.40754e-12,371.592
450.0,2.34568e-12,374.59
468.0,3.87779e-12,377.589
486.0,6.3628e-12,380.589
504.0,1.03588e-11,383.588
522.0,1.67365e-11,386.586
540.0,2.68542e-11,389.586
558.0,4.27764e-11,392.585
576.0,6.76634e-11,395.5834
594.0,1.06309e-10,398.582
612.0,1.65968e-10,401.583
630.0,2.57378e-10,404.5825
648.0,3.96551e-10,407.581
666.0,6.07378e-10,410.582
684.0,9.24532e-10,413.581
702.0,1.39886e-09,416.58
720.0,2.10417e-09,419.5793
738.0,3.14791e-09,422.5801
756.0,4.68233e-09,425.58
774.0,6.92588e-09,428.578
792.0,1.01925e-08,431.579
810.0,1.49197e-08,434.578
828.0,2.17266e-08,437.577
846.0,3.14787e-08,440.576
864.0,4.53948e-08,443.577
882.0,6.51367e-08,446.577
900.0,9.30127e-08,449.575
918.0,1.32235e-07,452.576
936.0,1.87126e-07,455.575
954.0,2.63612e-07,458.575
972.0,3.69724e-07,461.5734
990.0,5.1644e-07,464.574
1008.0,7.18243e-07,467.574
1026.0,9.94686e-07,470.572
1044.0,1.37226e-06,473.573
1062.0,1.88548e-06,476.572
1080.0,2.58047e-06,479.572
1098.0,3.51798e-06,482.57
1116.0,4.77906e-06,485.571
1134.0,6.46741e-06,488.571
1152.0,8.71979e-06,491.569
1170.0,1.17172e-05,494.57
1188.0,1.56887e-05,497.569
1206.0,2.09507e-05,500.577
1224.0,2.78745e-05,503.582
1242.0,3.6945e-05,506.581
1260.0,4.8813e-05,509.581
1278.0,6.42847e-05,512.5807
1296.0,8.43892e-05,515.5797
1314.0,0.000110436,518.578
1332.0,0.000144118,521.58
1350.0,0.000187475,524.579
1368.0,0.000243164,527.5777
1386.0,0.000314514,530.578
1404.0,0.00040563,533.578
1422.0,0.000521648,536.577
1440.0,0.000668982,539.575
1458.0,0.000855789,542.576
1476.0,0.00109164,545.575
1494.0,0.00138884,548.574
1512.0,0.0017625,551.575
1530.0,0.00223087,554.574
1548.0,0.00281638,557.573
1566.0,0.0035465,560.572
1584.0,0.00445567,563.573
1602.0,0.00558314,566.572
1620.0,0.00697876,569.571
1638.0,0.00870243,572.5705
1656.0,0.0108249,575.5701
1674.0,0.013431,578.569
1692.0,0.0166226,581.567
1710.0,0.0205248,584.568
1728.0,0.0252743,587.567
1746.0,0.0310419,590.566
1764.0,0.0380255,593.566
1782.0,0.0464493,596.566
1800.0,0.0565712,599.565
1818.0,0.0686868,602.564
1836.0,0.0831415,605.566
1854.0,0.100277,608.567
1872.0,0.120497,611.568
1890.0,0.144222,614.57
1908.0,0.17186,617.573
1926.0,0.203805,620.576
1944.0,0.240409,623.579
1962.0,0.281981,626.587
1980.0,0.328567,629.593
1998.0,0.380123,632.601
2016.0,0.436322,635.611
2034.0,0.49644,638.622
2052.0,0.559429,641.633
2070.0,0.623839,644.6429
2088.0,0.687955,647.656
2106.0,0.74959,650.665
2124.0,0.806727,653.673
2142.0,0.857443,656.681
2160.0,0.900209,659.683
2178.0,0.934276,662.684
2196.0,0.959655,665.681
2214.0,0.977201,668.682
2232.0,0.988272,671.678
2250.0,0.989868,672.28
2268.0,0.989868,672.28
2286.0,0.989868,672.28
2304.0,0.989868,672.28
2322.0,0.989868,672.28
2340.0,0.989868,672.28
2358.0,0.989868,672.28
2376.0,0.989868,672.28
2394.0,0.989868,672.28
2412.0,0.989868,672.28
2430.0,0.989868,672.28
2448.0,0.989868,672.28
2466.0,0.989868,672.28
2484.0,0.989868,672.28
2502.0,0.989868,672.28
2520.0,0.989868,672.28
2538.0,0.989868,672.28
2556.0,0.989868,672.28
2574.0,0.989868,672.28
2592.0,0.989868,672.28
2610.0,0.989868,672.28
2628.0,0.989868,672.28
2646.0,0.989868,672.28
2664.0,0.989868,672.28
2682.0,0.989868,672.28
2700.0,0.989868,672.28
2718.0,0.989868,672.28
2736.0,0.989868,672.28
2754.0,0.989868,672.28
2772.0,0.989868,672.28
2790.0,0.989868,672.28
2808.0,0.989868,672.28
2826.0,0.989868,672.28
2844.0,0.989868,672.28
2862.0,0.989868,672.28
2880.0,0.989868,672.28
2898.0,0.989868,672.28
2916.0,0.989868,672.28
2934.0,0.989868,672.28
2952.0,0.989868,672.28
2970.0,0.989868,672.28
2988.0,0.989868,672.28
3006.0,0.989868,672.28
3024.0,0.989868,672.28
3042.0,0.989868,672.28
3060.0,0.989868,672.28
3078.0,0.989868,672.28
3096.0,0.989868,672.28
3114.0,0.989868,672.28
3132.0,0.989868,672.28
3150.0,0.989868,672.28
3168.0,0.989868,672.28
3186.0,0.989868,672.28
3204.0,0.989868,672.28
3222.0,0.989868,672.28
3240.0,0.989868,672.28
3258.0,0.989868,672.28
3276.0,0.989868,672.28
3294.0,0.989868,672.28
3312.0,0.989868,672.28
3330.0,0.989868,672.28
3348.0,0.989868,672.28
3366.0,0.989868,672.28
3384.0,0.989868,672.28
3402.0,0.989868,672.28
3420.0,0.989868,672.28
3438.0,0.989868,672.28
3456.0,0.989868,672.28
3474.0,0.989868,672.28
3492.0,0.989868,672.28
3510.0,0.989868,672.28
3528.0,0.989868,672.28
3546.0,0.989868,672.28
3564.0,0.989868,672.28
3582.0,0.989868,672.28
3600.0,0.989868,672.28
3618.0,0.989868,672.28
3636.0,0.989868,672.28
3654.0,0.989868,672.28
3672.0,0.989868,672.28
3690.0,0.989868,672.28
3708.0,0.989868,672.28
3726.0,0.989868,672.28
3744.0,0.989868,672.28
3762.0,0.989868,672.28
3780.0,0.989868,672.28
3798.0,0.989868,672.28
3816.0,0.989868,672.28
3834.0,0.989868,672.28
3852.0,0.989868,672.28
3870.0,0.989868,672.28
3888.0,0.989868,672.28
3906.0,0.989868,672.28
3924.0,0.989868,672.28
3942.0,0.989868,672.28
3960.0,0.989868,672.28
3978.0,0.989868,672.28
3996.0,0.989868,672.28
4014.0,0.989868,672.28
4032.0,0.989868,672.28
4050.0,0.989868,672.28
4068.0,0.989868,672.28
4086.0,0.989868,672.28
4104.0,0.989868,672.28
4122.0,0.989868,672.28
4140.0,0.989868,672.28
4158.0,0.989868,672.28
4176.0,0.989868,672.28
4194.0,0.989868,672.28
4200.0,0.989868,672.28