Folder: matl-db/PMMA/Material_Properties/2023

Note: PMMA/Material_Properties/README.md
## PMMA Material Properties

This folder holds calibrated pyrolysis models (i.e., material property datasets) and relevant metadata that identifies how these models were developed. These properties include:
* **Degradation Kinetics**: 
  * Pre-exponential Constant (A [s<sup>-1 </sup>])
  * Activation Energy (E [J mol<sup>-1</sup>])
  * Reaction order (n)
  * stoichiometric coefficient (?)
* **Thermodynamic Properties**: 
  * Heat capacity (c<sub>p</sub> [J kg<sup>-1 </sup> K<sup>-1 </sup>])
  * Heat of Reaction (h<sub>r</sub> [J kg<sup>-1 </sup>])
  * Density (&rho;  [kg m<sup>-3</sup>])
* **Transport Properties**: 
  * Thermal Conductivity (k [W m<sup>-1 </sup>K<sup>-1 </sup>])
  * Mass Diffusivity (D [m<sup>2 </sup>s<sup>-1</sup>])
  * Absorption Coefficient (&alpha;  [m<sup>-1</sup> or m<sup>-2 </sup>kg<sup>-1</sup>])
  * Emissivity (&epsilon; )


### PMMA Material Properties

In March 2023, the UMD Pyrolysis model (material properties defined in MaCFP\_PMMA\_UMD.json) was identified as the most 'central' or 'average' model of those currently available. That is, this model yields predictions closest (sum of square errors) to mean gasification predictions. It is suggested that this parameter set by used by modelers for initial model setup (to provide a common set of parameters for MaCFP PMMA). It is NOT implied to be the most accurate property set.

A pyrolysis model validation exercise has been identified to validate the accuracy of submitted PMMA Pyrolysis models. Further information is available online in the [Modeling Guidelines Wiki](https://github.com/MaCFP/macfp-db/wiki/MaCFP-2023-Modeling-Guidelines#additional-guidelines-for-nist-gasification-apparatus). and in the [Guidelines for Participation in the MaCFP-3 Workshop document](https://github.com/MaCFP/macfp-db/files/11416103/Guidelines_for_Participation_MaCFP3.pdf). A video presentation of these guidelines is also [available online](https://www.youtube.com/watch?v=bAFx0mYoyxw).

File: MaCFP_PMMA_BUW-FZJ_C.json
{
    "Material": "MaCFP black cast PMMA",

    "Lab": "BUW-FZJ",

    "Calibration": [
        {
            "Model": "FDS6.7.9-0-gec52dee-HEAD",
            "Method": "Inverse modelling with shuffled complex evelution (PROPTI)",
            "Scope": [
                "Pyrolysis Kinetics",
                "Heat Capcity",
                "Heat of Pyrolysis",
                "Conductivity",
                "Emissivity"
            ],
            "Data": [
                {
                    "Type": "Cone calorimeter",
                    "Heat Flux": [65],
                    "Source": "Aalto"
                },
                {
                    "Type": "TGA",
                    "Heating Rate": [2.5,5,10,15,20],
                    "Source": ["LCPP","LCPP","NIST","LCPP","LCPP"]
                },
                {
                    "Type": "DCS",
                    "Heating Rate": [10,20],
                    "Source": ["FSRI","FSRI"]
                },
                {
                    "Type": "MCC",
                    "Heating Rate": [60],
                    "Source": "NIST"
                }
            ]
        }
    ],

    "Composition": {
        "Initial Components": [1, 2, 3, 4],
        "Initial Mass Fraction": [0.0232684, 9.878106E-03, 4.557696E-01, 5.050922E-01],
        "Final Components": [5]
    },

    "PyrolysisKinetics": {
        "Reactants": [ [1], [2], [3], [4] ],
        "Products": [ [5], [5], [5], [5] ],
        "Pre-exponential": [4.89E+08,3.15E+04,1.95E+10,7.80E+13],
        "Activation Energy": [9.32E+04,5.53E+04,1.48E+05,1.97E+05],
        "Reaction Order": [1, 1, 1, 1],
        "Nu Species": ["Methane", "Carbon Dioxide", "Methane", "Carbon Dioxide"],
        "Species Yield": [0.99, 0.99, 0.99, 0.99],
        "Residue Yield": [0.010, 0.010, 0.010, 0.010],
        "Solid Yield": [0.022, 0.0, 0.022, 0.0]
    },

    "Thermodynamics": {
        "Heat Capacity": {
            "Form": [[[1], [2], [3], [4]], [5]],
            "Value": [[[100.0, 200.0, 300.0, 420.0],
                       [1.09219, 3.0108, 2.50645, 2.99794]], 3.13011]
        },
        "Heat of Pyrolysis": {
            "Form": "Component Specific",
            "Value": [699.092, 1992.69, 529.183, 1187.49, "None"]
        },
        "Density": {
            "Form": "Component Specific",
            "Value": [1201.72,1201.72,1201.72,1201.72,1155.0]
        }
    },

    "Transport": {
        "Conductivity": {
            "Form": [[[1], [2], [3], [4]], [5]],
            "Value": [[[50.0, 150.0, 300.0, 420.0],
                       [0.149366, 0.0788646,  0.0478596, 0.57382]],  1.02402]
        },
        "Mass Diffusivity": {
            "Form": "None"
        },
        "Absorption": {
            "Form": "Component Specific",
            "Value": [3434.33,3434.33,3434.33,3434.33,50000.0]
        },
        "Emissivity": {
            "Form": "Component Specific",
            "Value": [0.920661,0.920661,0.920661,0.920661,0.882212]
        }
    }

}