Folder: matl-db/PMMA/Material_Properties/2023/Aalto

Note: PMMA/Material_Properties/README.md
## PMMA Material Properties

This folder holds calibrated pyrolysis models (i.e., material property datasets) and relevant metadata that identifies how these models were developed. These properties include:
* **Degradation Kinetics**: 
  * Pre-exponential Constant (A [s<sup>-1 </sup>])
  * Activation Energy (E [J mol<sup>-1</sup>])
  * Reaction order (n)
  * stoichiometric coefficient (?)
* **Thermodynamic Properties**: 
  * Heat capacity (c<sub>p</sub> [J kg<sup>-1 </sup> K<sup>-1 </sup>])
  * Heat of Reaction (h<sub>r</sub> [J kg<sup>-1 </sup>])
  * Density (&rho;  [kg m<sup>-3</sup>])
* **Transport Properties**: 
  * Thermal Conductivity (k [W m<sup>-1 </sup>K<sup>-1 </sup>])
  * Mass Diffusivity (D [m<sup>2 </sup>s<sup>-1</sup>])
  * Absorption Coefficient (&alpha;  [m<sup>-1</sup> or m<sup>-2 </sup>kg<sup>-1</sup>])
  * Emissivity (&epsilon; )


### PMMA Material Properties

In March 2023, the UMD Pyrolysis model (material properties defined in MaCFP\_PMMA\_UMD.json) was identified as the most 'central' or 'average' model of those currently available. That is, this model yields predictions closest (sum of square errors) to mean gasification predictions. It is suggested that this parameter set by used by modelers for initial model setup (to provide a common set of parameters for MaCFP PMMA). It is NOT implied to be the most accurate property set.

A pyrolysis model validation exercise has been identified to validate the accuracy of submitted PMMA Pyrolysis models. Further information is available online in the [Modeling Guidelines Wiki](https://github.com/MaCFP/macfp-db/wiki/MaCFP-2023-Modeling-Guidelines#additional-guidelines-for-nist-gasification-apparatus). and in the [Guidelines for Participation in the MaCFP-3 Workshop document](https://github.com/MaCFP/macfp-db/files/11416103/Guidelines_for_Participation_MaCFP3.pdf). A video presentation of these guidelines is also [available online](https://www.youtube.com/watch?v=bAFx0mYoyxw).

File: MaCFP_PMMA_Aalto_II.json
{
    "Material": "MaCFP-2 PMMA",

    "Lab": "Aalto",

    "Calibration": [
        {
            "Model": "MATLAB",
            "Method": "Genetic Algorithm",
            "Scope": "Kinetics",
            "Data": {
                "Type": "TGA",
                "Heating Rate": [1,2,5,10,20,50],
                "Source": "Lille"
            }
        },
        {
            "Model": "MATLAB",
            "Method": "Genetic Algorithm",
            "Scope": "Heat of Pyrolysis",
            "Data": {
                "Type": "DSC",
                "Heating Rate": 10,
                "Source": "UMD"
            }
        },
        {
            "Model": "MATLAB",
            "Method": "Genetic Algorithm",
            "Scope": ["Heat Capcity","Conductivity"],
            "Data": {
                "Type": "Gasification",
                "Heat Flux": [25, 50, 65],
                "Source": ["DBI_Lund","Aalto","Technical Institute of Fire protection in prague"]
            }
        },
        {
            "Method": "Direct Measurement",
            "Scope": ["Absorption","Emissivity"],
            "Data": ["UV-Vis", "FTIR"]
        },
        {
            "Method": "Literature",
            "Scope": "Density"
        }
    ],

    "Kinetics": {
        "Number of Reactions": 3,
        "Reaction Network": "Parallel",
        "Pre-exponential": [5.06e-3, 9.24e7, 9.59e11],
        "Activation Energy": [5.66e3, 9.11e4, 1.72e5],
        "Reaction Order": [1, 1, 1],
        "Initial Mass Fraction": [0.013, 0.027, 0.96],
        "Solid Yield": [0, 0, 0]
    },

    "Thermodynamics": {
        "Heat Capacity": {
            "Form": "Linear",
            "Slope": 3.6
            "Intercept": 2.81e2
        },
        "Heat of Pyrolysis": {
            "Form": "Reaction Specific",
            "Value": [2.26e6, 5.0e5, 8.33e5]
        },
        "Density": {
            "Form": "Single Value",
            "Value": 1210
        }
    },

    "Transport": {
        "Conductivity": {
            "Form": "Linear",
            "Slope": -7.06e-5
            "Intercept": 1.90e-1
        },
        "Mass Diffusivity": {
            "Form": "None"
        },
        "Absorption": {
            "Form": "Temprature-function*depth-function",
            "Value": [1.229 -2.247e-3 5.579e-1 1.023e-4 1.551e2 -4.682e-1 -6.556e1]
        },
        "Emissivity": {
            "Form": "Single Value",
            "Value": 0.914
        }
    }

}