Folder: matl-db/PMMA/Material_Properties/2023/BUW-FZJ

Note: PMMA/Material_Properties/2023/BUW-FZJ/README.md
# University of Wuppertal and Forschungszentrum Jülich (BUW-FZJ)
This work is a collaboration of members the University of Wuppertal and the Forschungszentrum Jülich, both in Germany.
Full data sets and scripts are hosted on Zenodo: http://doi.org/10.5281/zenodo.4565475
The here utilised  parameter estimation strategy is build on a two step inverse modelling process. In the first step the material decomposition (pyrolysis) is determined. The second step uses this information and the thermo-physical parameters are estimated. The general procedure is explained here https://arxiv.org/abs/2303.17446 (preprint).
The presented method here diverges from the one discussed in the article slightly. Here, less decompostion reactions are used. They also release either methane or carbon dioxide. This allows the effective heat of combustion of the released gas mixture to change over the duration of the simulation.



### Description of the Parameter Estimation Process
All simulations have been conducted with FDS (FDS6.7.9-0-gec52dee-HEAD).
The pyrolysis reaction kinetics and thermo-physical parameters were estimated using inverse modelling. The inverse modelling itself was managed with the optimisation framework PROPTI: https://github.com/FireDynamics/propti
It is important to note that the goal of the inverse modelling was to match the data series directly. This means, for the TGA the residual mass over sample temperature, for the DSC the heat flow over sample temperature and for the MCC the HRR over sample temperature were matched. No adjustments to the experiment data series have been conducted other than averaging. All micro-scale data series were used as targets simultaneously during the inverse modelling. The decomposition reactions are constructed from four parallel reactions. One pair covers the low temperature peak and the second pair covers the high temperature peak. For each peak, one reaction releases methane and the other carbon dioxide. This allows for a changing composition of the released gas mixture. It leads to an effective heat of combustion of the gas mixture, that can change during the course of the simulation with respect to  sample temperature. It further enables FDS to use mass loss rates from the solid phase directly, without the usual scaling.

For the thermo-physical parameters, the HRR of cone calorimeter experiments was used as inverse modelling target.

Specifically the following data sets were used as targets:
TGA: LCPP: 2.5 K/min, 5.0 K/min, 15.0 K/min, 20.0 K/min; NIST: 10.0 K/min
MCC: NIST: 60 K/min
DSC: FSRI: 10.0 K/min, 20.0 K/min
Cone: Aalto: 65 kW/m²



### Parameter Set Approach C
(Approaches A and B have been submitted to MaCFP-2 in 2021)
Parameter estimation of the reaction kinetics was performed in a simplified TGA simulation setup, see below. These parameters were then used in a second parameter estimation step where the thermo-physical parameters were determined. In this second step a simplified cone calorimeter simu

File: MaCFP_PMMA_BUW-FZJ_C.json
{
    "Material": "MaCFP black cast PMMA",

    "Lab": "BUW-FZJ",

    "Calibration": [
        {
            "Model": "FDS6.7.9-0-gec52dee-HEAD",
            "Method": "Inverse modelling with shuffled complex evelution (PROPTI)",
            "Scope": [
                "Pyrolysis Kinetics",
                "Heat Capcity",
                "Heat of Pyrolysis",
                "Conductivity",
                "Emissivity"
            ],
            "Data": [
                {
                    "Type": "Cone calorimeter",
                    "Heat Flux": [65],
                    "Source": "Aalto"
                },
                {
                    "Type": "TGA",
                    "Heating Rate": [2.5,5,10,15,20],
                    "Source": ["LCPP","LCPP","NIST","LCPP","LCPP"]
                },
                {
                    "Type": "DCS",
                    "Heating Rate": [10,20],
                    "Source": ["FSRI","FSRI"]
                },
                {
                    "Type": "MCC",
                    "Heating Rate": [60],
                    "Source": "NIST"
                }
            ]
        }
    ],

    "Composition": {
        "Initial Components": [1, 2, 3, 4],
        "Initial Mass Fraction": [0.0232684, 9.878106E-03, 4.557696E-01, 5.050922E-01],
        "Final Components": [5]
    },

    "PyrolysisKinetics": {
        "Reactants": [ [1], [2], [3], [4] ],
        "Products": [ [5], [5], [5], [5] ],
        "Pre-exponential": [4.89E+08,3.15E+04,1.95E+10,7.80E+13],
        "Activation Energy": [9.32E+04,5.53E+04,1.48E+05,1.97E+05],
        "Reaction Order": [1, 1, 1, 1],
        "Nu Species": ["Methane", "Carbon Dioxide", "Methane", "Carbon Dioxide"],
        "Species Yield": [0.99, 0.99, 0.99, 0.99],
        "Residue Yield": [0.010, 0.010, 0.010, 0.010],
        "Solid Yield": [0.022, 0.0, 0.022, 0.0]
    },

    "Thermodynamics": {
        "Heat Capacity": {
            "Form": [[[1], [2], [3], [4]], [5]],
            "Value": [[[100.0, 200.0, 300.0, 420.0],
                       [1.09219, 3.0108, 2.50645, 2.99794]], 3.13011]
        },
        "Heat of Pyrolysis": {
            "Form": "Component Specific",
            "Value": [699.092, 1992.69, 529.183, 1187.49, "None"],
        },
        "Density": {
            "Form": "Component Specific",
            "Value": [1201.72,1201.72,1201.72,1201.72,1155.0]
        }
    },

    "Transport": {
        "Conductivity": {
            "Form": [[[1], [2], [3], [4]], [5]],
            "Value": [[[50.0, 150.0, 300.0, 420.0],
                       [0.149366, 0.0788646,  0.0478596, 0.57382]],  1.02402]
        },
        "Mass Diffusivity": {
            "Form": "None"
        },
        "Absorption": {
            "Form": "Component Specific",
            "Value": [3434.33,3434.33,3434.33,3434.33,50000.0]
        },
        "Emissivity": {
            "Form": "Component Specific",
            "Value": [0.920661,0.920661,0.920661,0.920661,0.882212]
        }
    }

}