Folder: matl-db/Non-charring/PMMA/DBI-Lund

Note: Non-charring/PMMA/DBI-Lund/README.md
# Dansk Brand og Sikringsteknisk Institut, Lund University (DBI_Lund)

A concise description of the tests done by the division of fire safety engineering at Lund University (Sweden) and DBI (Denmark), is presented here. For more information regarding specific tests please contact: Karlis Livkiss kal@dbigroup.dk

### Experimental Conditions, TGA
A Netzsch  STA 449 F3 Jupiter was used to conduct Simultaneous Thermal Analysis (TGA + DSC) experiments. STA experiments performed in Nitrogen at a heating rate of 20 K/min. Although tests were conducted simultaneously, TGA and DSC measurement data presented here are separated into two files, for consistency with other datasets.

* Heating Rate: 20 K/min
* Temperature program
  - Initial Temperature: 298.15 K
  - Initial Isotherm: None
  - Maximum Temperature: 1223.15 K
  - Final Isotherm: None
* Sample mass: 4.9-5.8 mg
* Sample geometry: powdered
* Calibration type: Indium for temperature and heat sensitivity
* Crucible
  - Type: Alumina
  - Volume: 85 µL
  - Diameter: None
  - Mass: None
  - Lid: None
  - Note: None
* Carrier Gas
  - Type: Nitrogen
  - Flow rate: None [?]
  - Note: None
* Instrument
  - Type: Netzsch STA 449 F3 Jupiter
  - Note: Simultaneous Thermal Analysis (TGA + DSC), measurement data presented as two separated files
 
| Test Name | Heating Rate [K/min] |  Initial Sample Mass [mg] | 
| --------- | :----: | :------------------------:|
|DBI_Lund\_STA\_N2\_20K\_1 |  20  | 5.8|  
|DBI_Lund\_STA\_N2\_20K\_2 |  20  | 4.9|  
|DBI_Lund\_STA\_N2\_20K\_3 |  20  | 5.5|  

### Experimental Conditions, Gasification Tests
Slab gasification tests were performed in a controlled atmosphere cone calorimeter at the Lund University division of fire safety engineering using a cone calorimeter made by Fire Testing Technology. An enclosed compartment is added to the test setup for controlling the atmospheric environment around the test sample. The oxygen level inside the compartment is measured with O2 analyser PMA 10 by M&C.

* Extraction flow rate: 24L/s
* Sample Surface Area: 0.01 m2 (nominal)
* Sample holder dimensions:
    - Square pan: 106mm x 106mm x 25mm [?]
    - Retainer frame: None
    - Retaining grid: None
* Backing Insulation:  Morgan Thermal Ceramics Superwool SW Plus was used as the backing material (Density 64 kg/m3, thickness 13 mm; thermal conductivity: see end of README, ~0.0375 [W/(m-K)])
* Thermocouple location: None

###### Test Heating Conditions  
|Test Name | Heat Flux [kW/m2]| Avg Heater Temperature [K]| O2 vol %|
|----------|:------:| :---: |:---: |
|DBILund\_Gasification\_25kW\_1 | 25| 913| 2.5-3.4 | 
|DBILund\_Gasification\_25kW\_2 | 25| 913| 3.5-4.0|
|DBILund\_Gasification\_25kW\_3 | 25| 913| 2.2-3.3|
|DBILund\_Gasification\_50kW\_1 | 50| 1093| 2.2-3.0|
|DBILund\_Gasification\_50kW\_2 | 50| 1093| 2.4-3.2|

It must be noted that the heater temperature may not be regarded as a ‘real’ temperature of the heater. It is a reference value for maintaining and controlling the heat flux

File: DBI-Lund_Cone_25kW_2.csv
Time,Mass,HRR,Back Surface Temperature 1
[s],[g],[kW/m2],[K]
0,73.21,2.47389,0
2,73.1836,0.990775,0
4,73.152,0.131944,0
6,73.1399,-0.531252,0
8,73.1758,-1.21542,0
10,73.1686,-1.32642,0
12,73.12,-2.31387,0
14,73.1591,-1.91618,0
16,73.1944,-1.58407,0
18,73.2196,-1.45849,0
20,73.1933,-1.52921,0
22,73.1782,-1.20781,0
24,73.1866,-0.647,0
26,73.1731,-1.0779,0
28,73.1806,-1.51849,0
30,73.1677,-1.3378,0
32,73.17669,-1.1146,0
34,73.1729,-0.345021,0
36,73.12387,-1.08478,0
38,73.1344,-1.4925,0
40,73.1566,-1.47736,0
42,73.15861,-1.24272,0
44,73.1135,-1.14203,0
46,73.1717,-1.39252,0
48,73.1668,-1.50699,0
50,73.13656,-0.575176,0
52,73.119,-0.25465,0
54,73.1585,-0.205358,0
56,73.1667,-0.457647,0
58,73.1632,-0.57886,0
60,73.1313,-1.11349,0
62,73.1611,-1.02638,0
64,73.1568,-1.04585,0
66,73.1564,-1.43673,0
68,73.1543,-0.602548,0
70,73.1179,-0.418817,0
72,73.10632,-0.13376,0
74,73.1383,-0.274894,0
76,73.1195,-0.445744,0
78,73.1168,-0.500304,0
80,73.1111,-0.384248,0
82,73.11594,-0.0741807,0
84,73.0855,-0.208384,0
86,73.1104,-0.387679,0
88,73.0819,-0.50988,0
90,73.0993,-0.57098,0
92,73.1021,-0.479798,0
94,73.089,-0.223535,0
96,73.0357,-0.319281,0
98,73.0743,0.325111,0
100,73.0604,-0.491161,0
102,73.0203,-0.253607,0
104,73.0242,9.60997,0
106,73.0145,35.2662,0
108,72.9727,59.2207,0
110,72.8639,101.799,0
112,72.7528,161.272,0
114,72.5611,210.159,0
116,72.3826,274.231,0
118,72.1396,305.028,0
120,71.8485,325.77,0
122,71.5988,342.235,0
124,71.3306,347.262,0
126,71.0295,352.007,0
128,70.742,371.291,0
130,70.4489,382.636,0
132,70.1465,377.576,0
134,69.8408,379.616,0
136,69.556,384.326,0
138,69.24233,387.356,0
140,68.9304,388.33,0
142,68.5983,397.974,0
144,68.27375,399.877,0
146,67.9544,396.605,0
148,67.6526,420.018,0
150,67.3224,414.945,0
152,66.9754,410.459,0
154,66.6738,434.071,0
156,66.3183,413.21,0
158,65.9829,423.082,0
160,65.6144,430.726,0
162,65.2585,428.876,0
164,64.9192,437.134,0
166,64.5594,445.325,0
168,64.2238,444.951,0
170,63.856,448.527,0
172,63.5417,433.584,0
174,63.1994,424.177,0
176,62.8485,420.394,0
178,62.47608,423.846,0
180,62.1343,469.298,0
182,61.7661,438.967,0
184,61.3667,437.861,0
186,61.0205,469.284,0
188,60.664,452.365,0
190,60.2853,466.954,0
192,59.9027,458.5,0
194,59.4937,481.319,0
196,59.14805,465.418,0
198,58.7859,467.331,0
200,58.3991,455.531,0
202,57.99,472.134,0
204,57.5778,470.143,0
206,57.2455,466.701,0
208,56.8703,488.142,0
210,56.475,472.996,0
212,56.0834,477.673,0
214,55.6922,475.159,0
216,55.3237,485.906,0
218,54.9215,480.627,0
220,54.5113,488.706,0
222,54.1101,492.587,0
224,53.733,504.697,0
226,53.3398,485.986,0
228,52.9176,516.924,0
230,52.5018,481.993,0
232,52.1453,496.538,0
234,51.7248,490.145,0
236,51.3363,501.771,0
238,50.9641,497.52,0
240,50.5944,482.081,0
242,50.15565,469.271,0
244,49.7145,499.44,0
246,49.3251,500.073,0
248,48.9347,504.278,0
250,48.5145,481.193,0
252,48.0818,509.273,0
254,47.6724,511.235,0
256,47.292,524.729,0
258,46.8735,524.051,0
260,46.44113,519.749,0
262,46.0112,520.124,0
264,45.6078,523.851,0
266,45.1638,523.214,0
268,44.7529,536.523,0
270,44.2956,534.903,0
272,43.8556,536.116,0
274,43.443,540.779,0
276,42.9991,541.811,0
278,42.5607,549.461,0
280,42.10782,535.533,0
282,41.6507,546.107,0
284,41.2415,551.426,0
286,40.79677,548.358,0
288,40.3667,552.769,0
290,39.9121,542.954,0
292,39.4581,556.913,0
294,39.0083,556.169,0
296,38.5285,553.646,0
298,38.0684,568.524,0
300,37.6275,562.64,0
302,37.1569,550.408,0
304,36.7022,556.93,0
306,36.2295,561.638,0
308,35.7644,580.984,0
310,35.2885,567.106,0
312,34.8027,582.127,0
314,34.3173,593.712,0
316,33.8665,581.171,0
318,33.375,583.736,0
320,32.88881,554.393,0
322,32.4085,570.223,0
324,31.9303,582.309,0
326,31.4897,577.379,0
328,31.0252,593.5669,0
330,30.5479,588.494,0
332,30.039,598.428,0
334,29.5887,593.878,0
336,29.1086,603.888,0
338,28.613,582.052,0
340,28.1163,596.646,0
342,27.6465,609.874,0
344,27.1614,591.219,0
346,26.6457,606.499,0
348,26.1446,596.379,0
350,25.6632,595.938,0
352,25.1622,626.872,0
354,24.6436,626.575,0
356,24.1155,618.992,0
358,23.6335,657.804,0
360,23.1901,631.342,0
362,22.5956,631.077,0
364,22.1027,619.315,0
366,21.6044,638.545,0
368,21.0745,615.805,0
370,20.5408,631.96,0
372,20.0473,639.402,0
374,19.5111,659.682,0
376,18.9748,612.07,0
378,18.4352,625.662,0
380,17.8798,679.438,0
382,17.3849,659.092,0
384,16.8571,666.45,0
386,16.2963,669.246,0
388,15.6963,688.244,0
390,15.1743,635.781,0
392,14.6361,713.123,0
394,14.018,748.781,0
396,13.4366,733.482,0
398,12.8655,708.875,0
400,12.3043,681.349,0
402,11.7293,702.019,0
404,11.16225,706.539,0
406,10.5718,686.458,0
408,9.974294,701.381,0
410,9.393096,689.158,0
412,8.914456,699.734,0
414,8.354954,694.007,0
416,7.818815,664.844,0
418,7.248224,646.386,0
420,6.744099,631.612,0
422,6.19127,624.957,0
424,5.681749,618.702,0
426,5.208713,610.542,0
428,4.690872,599.479,0
430,4.189611,587.518,0
432,3.706359,588.11,0
434,3.287452,545.511,0
436,2.834262,526.078,0
438,2.397577,510.929,0
440,1.985483,481.433,0
442,1.637289,452.485,0
444,1.282921,406.517,0
446,0.97344,375.751,0
448,0.681462,290.217,0
450,0.45614,254.945,0
452,0.319673,198.874,0
454,0.188684,144.509,0
456,0.07488,123.377,0
458,0.01492,93.274,0
460,-0.009089,69.8135,0
462,-0.049128,57.9762,0
464,-0.084922,44.1319,0
466,-0.072453,35.8836,0
468,-0.11526,25.2082,0
470,-0.135355,18.8142,0
472,-0.130581,15.6175,0
474,-0.107,12.4578,0
476,-0.117812,10.3293,0
478,-0.11,9.89836,0
480,-0.11451,9.05693,0
482,-0.134,7.99091,0
484,-0.159286,6.99301,0
486,-0.152453,5.02907,0
488,-0.168955,3.98638,0
490,-0.188162,2.87255,0
492,-0.132125,2.0857,0
494,-0.130901,1.77595,0
496,-0.174784,1.11843,0
498,-0.151792,1.05867,0
500,-0.138135,0.879984,0
502,-0.148668,0.851646,0
504,-0.176263,0.908954,0
506,-0.160298,1.04021,0
508,-0.162164,1.25603,0
510,-0.16693,1.29966,0
512,-0.178079,1.10881,0
514,-0.155729,1.82057,0
516,-0.148283,1.79521,0
518,-0.188513,1.77795,0
520,-0.173511,1.87226,0
522,-0.154504,2.03131,0
524,-0.149364,2.21125,0
526,-0.197455,1.63812,0
528,-0.220208,1.11024,0
530,-0.172141,-0.173867,0
532,-0.155704,-0.667492,0
534,-0.170157,-0.569546,0
536,-0.179687,-0.453995,0
538,-0.17829,-0.184973,0
540,-0.162905,-0.358458,0
542,-0.183086,-0.411343,0
544,-0.163535,-0.606139,0
546,-0.167099,-0.333115,0
548,-0.168734,0.281432,0
550,-0.175053,0.547336,0
552,-0.149217,0.602625,0
554,-0.156205,0.46326,0

File: DBI-Lund_DSC_N2_20K_1.csv
Time,Temperature,Heat Flow
[s],[K],[W/g]
0,299.357,-1.87E-02
10.0002,299.351,-1.52E-02
19.9998,299.605,-6.35E-03
30,300.466,3.06E-02
40.0002,302.1607,0.10408
49.9998,304.741,0.21151
60,308.067,0.32541
70.0002,311.936,0.43514
79.9998,316.128,0.5233
90,320.463,0.58628
100.0002,324.8,0.62243
109.9998,329.049,0.63903
120,333.177,0.63909
130.0002,337.175,0.62969
139.9998,341.048,0.61853
150,344.819,0.60478
160.0002,348.506,0.59572
169.9998,352.124,0.59099
180,355.716,0.58774
190.0002,359.295,0.58002
199.9998,362.876,0.5731
210,366.458,0.56781
220.0002,370.034,0.56501
229.9998,373.605,0.56612
240,377.147,0.56497
250.0002,380.652,0.56606
259.9998,384.117,0.56911
270,387.55,0.57274
280.0002,390.974,0.57923
289.9998,394.347,0.58545
300,397.725,0.59514
310.0002,401.0903,0.60862
319.9998,404.449,0.61641
330,407.802,0.61831
340.0002,411.152,0.61631
349.9998,414.503,0.61458
360,417.849,0.61168
370.0002,421.202,0.60935
379.9998,424.551,0.60773
390,427.889,0.60801
400.0002,431.23,0.60843
409.9998,434.561,0.60974
420,437.879,0.61001
430.0002,441.201,0.61162
439.9998,444.518,0.61503
450,447.84,0.6201
460.0002,451.156,0.62534
469.9998,454.482,0.63393
480,457.807,0.63925
490.0002,461.141,0.64596
499.9998,464.483,0.64922
510,467.825,0.65189
520.0002,471.162,0.64937
529.9998,474.5011,0.64776
540,477.835,0.64522
550.0002,481.168,0.64496
559.9998,484.494,0.64763
570,487.83,0.65296
580.0002,491.163,0.65737
589.9998,494.5,0.65527
600,497.824,0.64923
610.0002,501.147,0.63814
619.9998,504.474,0.62258
630,507.801,0.61181
640.0002,511.13,0.59939
649.9998,514.45,0.58912
660,517.7878,0.58101
670.0002,521.114,0.573
679.9998,524.447,0.56543
690,527.773,0.55941
700.0002,531.106,0.55351
709.9998,534.444,0.54644
720,537.777,0.54289
730.0002,541.126,0.54842
739.9998,544.482,0.60352
750,547.844,0.64522
760.0002,551.1979,0.68109
769.9998,554.5457,0.71849
780,557.879,0.76599
790.0002,561.207,0.83295
799.9998,564.533,0.89201
810,567.847,0.94541
820.0002,571.1572,0.98961
829.9998,574.462,1.01799
840,577.775,1.04217
850.0002,581.081,1.06311
859.9998,584.389,1.07944
870,587.703,1.09113
880.0002,591.012,1.10422
889.9998,594.337,1.1237
900,597.668,1.15458
910.0002,601.005,1.20174
919.9998,604.332,1.26086
930,607.658,1.33704
940.0002,610.991,1.43131
949.9998,614.314,1.54675
960,617.6436,1.68672
970.0002,620.967,1.84441
979.9998,624.2852,2.02717
990,627.6,2.22485
1000,630.92,2.44059
1010,634.233,2.6641
1020,637.555,2.8659
1030,640.877,3.00457
1040,644.207,3.07849
1050,647.54,3.13496
1060,650.882,3.11809
1070,654.234,3.03552
1080,657.5868,3.03336
1090,660.9393,3.00728
1100,664.287,2.92479
1110,667.641,2.7834
1120,670.991,2.57547
1130,674.344,2.27791
1140,677.698,1.94389
1150,681.044,1.60602
1160,684.386,1.29493
1170,687.731,1.04383
1180,691.063,0.84359
1190,694.382,0.69615
1200,697.723,0.62797
1210,701.07,0.62081
1220,704.392,0.58091
1230,707.697,0.52927
1240,710.989,0.47657
1250,714.285,0.40159
1260,717.591,0.35239
1270,720.902,0.31148
1280,724.225,0.28696
1290,727.559,0.2715
1300,730.895,0.26497
1310,734.237,0.26226
1320,737.58,0.26359
1330,740.919,0.26473
1340,744.267,0.26704
1350,747.604,0.27247
1360,750.94,0.27187
1370,754.264,0.27401
1380,757.6,0.27674
1390,760.938,0.28067
1400,764.2629,0.27968
1410,767.599,0.28145
1420,770.9201,0.28422
1430,774.2482,0.28042
1440,777.578,0.2828
1450,780.91,0.28458
1460,784.246,0.28376
1470,787.581,0.28495
1480,790.914,0.28694
1490,794.252,0.29016
1500,797.588,0.29339
1510,800.927,0.29725
1520,804.266,0.30234
1530,807.601,0.30747
1540,810.932,0.31528
1550,814.268,0.32396
1560,817.5948,0.33247
1570,820.92,0.34164
1580,824.244,0.35314
1590,827.565,0.35803
1600,830.897,0.3642
1610,834.229,0.37625
1620,837.557,0.38333
1630,840.8926,0.39002
1640,844.229,0.40096
1650,847.565,0.40942
1660,850.901,0.42194
1670,854.239,0.43154
1680,857.574,0.44225
1690,860.916,0.45708
1700,864.25,0.46918
1710,867.587,0.48178
1720,870.92,0.49593
1730,874.259,0.50908
1740,877.594,0.52769
1750,880.926,0.54097
1760,884.263,0.54887
1770,887.599,0.56531
1780,890.932,0.57657
1790,894.265,0.58854
1800,897.601,0.60144
1810,900.934,0.6155
1820,904.266,0.62917
1830,907.59,0.63759
1840,910.92,0.64471
1850,914.255,0.65676
1860,917.598,0.66462
1870,920.936,0.68101
1880,924.275,0.69814
1890,927.613,0.71332
1900,930.953,0.72969
1910,934.292,0.74613
1920,937.643,0.76513
1930,940.9696,0.77876
1940,944.302,0.79723
1950,947.634,0.81371
1960,950.9671,0.83187
1970,954.296,0.84506
1980,957.627,0.85922
1990,960.959,0.86953
2000,964.288,0.87779
2010,967.621,0.88586
2020,970.955,0.89673
2030,974.291,0.90973
2040,977.628,0.92348
2050,980.966,0.93401
2060,984.3013,0.94529
2070,987.639,0.95519
2080,990.98,0.96772
2090,994.315,0.97699
2100,997.655,0.98488
2110,1000.99,0.99705
2120,1004.33,1.00381
2130,1007.66,1.01154
2140,1011,1.01214
2150,1014.34,1.02085
2160,1017.67,1.02385
2170,1021,1.02924
2180,1024.34,1.03321
2190,1027.67,1.03814
2200,1031.01,1.04092
2210,1034.34,1.04224
2220,1037.68,1.04646
2230,1041.02,1.0541
2240,1044.35,1.06102
2250,1047.68,1.06284
2260,1051.02,1.06637
2270,1054.35,1.07137
2280,1057.69,1.07147
2290,1061.03,1.0755
2300,1064.37,1.07682
2310,1067.71,1.08061
2320,1071.04,1.08613
2330,1074.38,1.08968
2340,1077.71,1.09523
2350,1081.05,1.09705
2360,1084.38,1.09737
2370,1087.72,1.09843
2380,1091.06,1.09647
2390,1094.39,1.10279
2400,1097.72,1.10888
2410,1101.06,1.10615
2420,1104.4,1.10794
2430,1107.73,1.10695
2440,1111.07,1.11306
2450,1114.41,1.11256
2460,1117.75,1.11945
2470,1121.08,1.11921
2480,1124.42,1.12433
2490,1127.76,1.13305
2500,1131.09,1.1418
2510,1134.43,1.14646
2520,1137.78,1.15784
2530,1141.11,1.16589
2540,1144.44,1.1737
2550,1147.77,1.18934
2560,1151.1,1.19877
2570,1154.43,1.21346
2580,1157.76,1.23603
2590,1161.08,1.25266
2600,1164.4,1.26935
2610,1167.73,1.29372
2620,1171.05,1.31608
2630,1174.38,1.33852
2640,1177.71,1.35972
2650,1181.03,1.38894
2660,1184.37,1.41961
2670,1187.7,1.44774
2680,1191.03,1.49276
2690,1194.36,1.54089
2700,1197.69,1.59483
2710,1201.02,1.64415
2720,1204.35,1.69742
2730,1207.69,1.74875
2740,1211.02,1.78407
2752,1215.01,1.84406
2762,1218.35,1.89679
2772,1221.68,-0.59396
2774,1222.36,-0.55779

File: DBI-Lund_DSC_N2_20K_3.csv
Time,Temperature,Heat Flow
[s],[K],[W/g]
0,298.33,-1.44E-02
10.0002,298.3747,-1.34E-02
19.9998,298.6668,-3.90E-03
30,299.5878,3.28E-02
40.0002,301.3823,9.99E-02
49.9998,304.087,0.1896
60,307.529,0.28545
70.0002,311.515,0.37366
79.9998,315.824,0.44487
90,320.259,0.49138
100.0002,324.673,0.51857
109.9998,328.99,0.53134
120,333.1669,0.5334
130.0002,337.201,0.52578
139.9998,341.112,0.51633
150,344.893,0.50807
160.0002,348.59,0.49973
169.9998,352.218,0.49553
180,355.813,0.48998
190.0002,359.389,0.48103
199.9998,362.972,0.4663
210,366.5381,0.4556
220.0002,370.11,0.44734
229.9998,373.671,0.44185
240,377.208,0.43781
250.0002,380.712,0.43715
259.9998,384.182,0.43662
270,387.6141,0.43503
280.0002,391.03,0.44349
289.9998,394.407,0.4544
300,397.783,0.46884
310.0002,401.145,0.48881
319.9998,404.495,0.50038
330,407.849,0.50546
340.0002,411.196,0.49667
349.9998,414.544,0.48843
360,417.892,0.47907
370.0002,421.232,0.46981
379.9998,424.58,0.46452
390,427.92,0.45826
400.0002,431.2552,0.45445
409.9998,434.586,0.45139
420,437.908,0.45034
430.0002,441.217,0.45085
439.9998,444.529,0.45483
450,447.848,0.46056
460.0002,451.1678,0.46838
469.9998,454.498,0.47624
480,457.826,0.48225
490.0002,461.1661,0.48733
499.9998,464.511,0.48476
510,467.849,0.48185
520.0002,471.186,0.47087
529.9998,474.525,0.45869
540,477.865,0.44628
550.0002,481.2,0.43899
559.9998,484.5301,0.43605
570,487.852,0.43913
580.0002,491.185,0.43878
589.9998,494.51,0.43581
600,497.831,0.42655
610.0002,501.161,0.4088
619.9998,504.492,0.38564
630,507.824,0.36384
640.0002,511.149,0.34207
649.9998,514.478,0.32184
660,517.8039,0.30837
670.0002,521.135,0.29717
679.9998,524.473,0.29367
690,527.805,0.29065
700.0002,531.14,0.29305
709.9998,534.482,0.29784
720,537.827,0.30728
730.0002,541.163,0.31573
739.9998,544.497,0.32303
750,547.832,0.33038
760.0002,551.152,0.33862
769.9998,554.482,0.34778
780,557.809,0.35839
790.0002,561.131,0.37201
799.9998,564.454,0.38694
810,567.777,0.40442
820.0002,571.096,0.4197
829.9998,574.4238,0.43313
840,577.744,0.44788
850.0002,581.079,0.45916
859.9998,584.406,0.47318
870,587.736,0.48817
880.0002,591.063,0.50934
889.9998,594.4,0.54087
900,597.727,0.58808
910.0002,601.063,0.65076
919.9998,604.387,0.73411
930,607.713,0.83995
940.0002,611.039,0.96684
949.9998,614.364,1.12137
960,617.689,1.30964
970.0002,621.012,1.52718
979.9998,624.338,1.77738
990,627.654,2.05606
1000,630.98,2.35792
1010,634.3007,2.66992
1020,637.63,2.95724
1030,640.959,3.1685
1040,644.287,3.27238
1050,647.625,3.36763
1060,650.9679,3.47155
1070,654.304,3.39577
1080,657.65,3.25926
1090,660.997,3.16137
1100,664.343,3.04049
1110,667.689,2.7025
1120,671.045,2.3019
1130,674.396,1.86532
1140,677.747,1.4631
1150,681.09,1.10545
1160,684.433,0.79337
1170,687.765,0.5421
1180,691.09,0.34594
1190,694.418,0.19694
1200,697.735,8.80E-02
1210,701.06,5.92E-03
1220,704.373,-4.79E-02
1230,707.69,-8.56E-02
1240,711.005,-0.10278
1250,714.332,-0.10288
1260,717.659,-0.10077
1270,720.9841,-0.11894
1280,724.305,-0.14447
1290,727.628,-0.16307
1300,730.958,-0.1763
1310,734.287,-0.1833
1320,737.628,-0.18627
1330,740.967,-0.18762
1340,744.301,-0.18713
1350,747.638,-0.18457
1360,750.971,-0.1853
1370,754.2981,-0.18396
1380,757.632,-0.18303
1390,760.963,-0.18312
1400,764.2972,-0.18301
1410,767.623,-0.17746
1420,770.95,-0.17439
1430,774.281,-0.17634
1440,777.614,-0.17536
1450,780.938,-0.17309
1460,784.271,-0.17569
1470,787.608,-0.17617
1480,790.941,-0.17431
1490,794.272,-0.175
1500,797.61,-0.1742
1510,800.951,-0.17188
1520,804.28,-0.16998
1530,807.618,-0.16698
1540,810.957,-0.16245
1550,814.298,-0.15768
1560,817.626,-0.15266
1570,820.958,-0.14935
1580,824.288,-0.14406
1590,827.62,-0.14203
1600,830.952,-0.13889
1610,834.2827,-0.1291
1620,837.6032,-0.12568
1630,840.941,-0.12557
1640,844.279,-0.12545
1650,847.604,-0.11954
1660,850.945,-0.11404
1670,854.2767,-0.10783
1680,857.612,-9.96E-02
1690,860.9471,-9.26E-02
1700,864.28,-8.63E-02
1710,867.614,-8.06E-02
1720,870.945,-7.11E-02
1730,874.279,-6.17E-02
1740,877.6157,-5.14E-02
1750,880.951,-4.35E-02
1760,884.293,-3.23E-02
1770,887.625,-1.95E-02
1780,890.961,-1.22E-02
1790,894.297,-1.16E-03
1800,897.635,1.34E-02
1810,900.972,2.88E-02
1820,904.304,4.10E-02
1830,907.645,5.39E-02
1840,910.971,6.90E-02
1850,914.303,8.24E-02
1860,917.641,9.64E-02
1870,920.972,0.11223
1880,924.3058,0.13307
1890,927.64,0.15329
1900,930.972,0.17243
1910,934.302,0.18665
1920,937.642,0.20333
1930,940.975,0.22367
1940,944.313,0.24483
1950,947.649,0.27113
1960,950.982,0.29226
1970,954.313,0.31517
1980,957.65,0.34448
1990,960.986,0.36858
2000,964.323,0.39304
2010,967.6632,0.41639
2020,971,0.44718
2030,974.338,0.47981
2040,977.674,0.51554
2050,981.002,0.54798
2060,984.343,0.57539
2070,987.6776,0.60983
2080,991.008,0.6417
2090,994.34,0.66601
2100,997.674,0.68893
2110,1001.01,0.71543
2120,1004.34,0.7433
2130,1007.67,0.76276
2140,1011.01,0.77402
2150,1014.34,0.79287
2160,1017.68,0.81381
2170,1021.02,0.8313
2180,1024.35,0.84759
2190,1027.69,0.86293
2200,1031.03,0.88239
2210,1034.37,0.89989
2220,1037.71,0.91644
2230,1041.05,0.93715
2240,1044.39,0.95024
2250,1047.72,0.96697
2260,1051.06,0.97525
2270,1054.4,0.98873
2280,1057.73,0.99864
2290,1061.07,1.01298
2300,1064.4,1.02192
2310,1067.74,1.03583
2320,1071.07,1.04797
2330,1074.41,1.06093
2340,1077.74,1.07472
2350,1081.07,1.08304
2360,1084.41,1.08796
2370,1087.75,1.09527
2380,1091.08,1.09943
2390,1094.43,1.10333
2400,1097.76,1.11015
2410,1101.1,1.11034
2420,1104.43,1.11558
2430,1107.76,1.11469
2440,1111.09,1.12235
2450,1114.42,1.11716
2460,1117.749,1.11865
2470,1121.08,1.11799
2480,1124.41,1.11759
2490,1127.75,1.11826
2500,1131.09,1.12299
2510,1134.42,1.12475
2520,1137.76,1.13004
2530,1141.09,1.13125
2540,1144.43,1.13382
2550,1147.77,1.13997
2560,1151.1,1.1464
2570,1154.44,1.15669
2580,1157.77,1.16509
2590,1161.11,1.17463
2600,1164.43,1.18419
2610,1167.76,1.19544
2620,1171.09,1.20896
2630,1174.43,1.22392
2640,1177.75,1.23306
2650,1181.08,1.24811
2660,1184.41,1.26629
2670,1187.74,1.2837
2680,1191.06,1.30341
2690,1194.39,1.32714
2700,1197.72,1.35209
2710,1201.05,1.37742
2720,1204.38,1.40029
2730,1207.72,1.42978
2740,1211.05,1.4571
2750,1214.39,1.48596
2760,1217.73,1.51492
2770,1221.05,1.54512
2774,1222.39,1.55753

File: DBI-Lund_Gasification_25kW_1.csv
Time,Mass
[s],[g]
0,69.1
5,69.136
10,69.2002
15,69.1512
20,69.11565
25,69.1723
30,68.9555
35,69.0178
40,69.1496
45,68.9513
50,69.0184
55,69.0051
60,68.8764
65,68.7671
70,68.9217
75,68.96127
80,68.8663
85,69.06161
90,68.8737
95,69.0508
100,68.87044
105,68.7394
110,68.8122
115,68.7145
120,68.7444
125,68.7354
130,68.6817
135,68.6562
140,68.54304
145,68.3417
150,68.4063
155,68.1867
160,68.1205
165,68.23277
170,67.7804
175,67.8181
180,67.6031
185,67.2533
190,67.3026
195,67.1023
200,66.87227
205,66.71773
210,66.4386
215,66.4459
220,65.9783
225,65.882
230,65.659
235,65.3222
240,65.1027
245,64.8475
250,64.4496
255,64.4751
260,64.1118
265,63.6002
270,63.56524
275,63.2548
280,62.8079
285,62.44356
290,62.252
295,61.9565
300,61.5931
305,61.1703
310,60.9087
315,60.441
320,60.4698
325,60.0457
330,59.6139
335,59.2727
340,58.9845
345,58.5729
350,58.21683
355,57.9497
360,57.4063
365,57.0147
370,56.6999
375,56.3018
380,55.9112
385,55.449
390,54.9825
395,54.55366
400,54.13986
405,53.8055
410,53.3302
415,52.8327
420,52.4885
425,51.8729
430,51.51616
435,51.05
440,50.7915
445,50.2623
450,49.83011
455,49.4381
460,48.9083
465,48.5218
470,48.1422
475,47.3865
480,47.05024
485,46.3574
490,46.1761
495,45.7672
500,45.1324
505,44.8257
510,44.22631
515,43.6199
520,43.1405
525,42.8708
530,42.3323
535,41.7378
540,41.3919
545,40.6507
550,40.0783
555,39.751
560,39.3064
565,38.6462
570,38.1677
575,37.6213
580,37.1957
585,36.6233
590,36.291
595,35.7565
600,35.0768
605,34.6952
610,34.034
615,33.6273
620,32.9584
625,32.6457
630,31.9474
635,31.4717
640,30.8682
645,30.29
650,29.8704
655,29.1921
660,28.6611
665,28.1393
670,27.5471
675,27.07
680,26.4203
685,25.8342
690,25.4738
695,24.8048
700,24.429
705,23.865
710,23.2686
715,22.8704
720,22.2975
725,21.6335
730,21.0156
735,20.3682
740,19.842
745,19.448
750,18.87299
755,18.4464
760,17.7425
765,17.2729
770,16.9112
775,16.3688
780,15.6164
785,15.4025
790,14.7376
795,14.5206
800,14.123
805,13.7565
810,13.3019
815,12.90177
820,12.7676
825,12.276
830,12.0677
835,11.5675
840,11.4089
845,11.0617
850,10.81752
855,10.5325
860,10.1884
865,9.931582
870,9.710775
875,9.33877
880,9.095265
885,9.012908
890,8.784714
895,8.633519
900,8.267135
905,8.111146
910,7.798265
915,7.726479
920,7.522675
925,7.373295
930,7.072459
935,7.117839
940,6.864698
945,6.744091
950,6.458813
955,6.40727
960,6.19607
965,6.059214
970,5.770681
975,5.547164
980,5.544186
985,5.236629
990,5.139884
995,5.006422
1000,4.704224
1005,4.641811
1010,4.648737
1015,4.438927
1020,4.418077
1025,4.180332
1030,4.157661
1035,3.987323
1040,3.912325
1045,3.804403
1050,3.654907
1055,3.426622
1060,3.401853
1065,3.382935
1070,3.199986
1075,3.157103
1080,3.039581
1085,3.009195
1090,2.920586
1095,2.79029
1100,2.515624
1105,2.539775
1110,2.292948
1115,2.282578
1120,2.301512
1125,2.33293
1130,2.210976
1135,2.019812
1140,2.029424
1145,2.113395
1150,1.851026
1155,1.816714
1160,1.73883
1165,1.753091
1170,1.771484
1175,1.62713
1180,1.59635
1185,1.61137
1190,1.348771
1195,1.321252
1200,1.365348
1205,1.10174
1210,1.220465
1215,0.977586
1220,1.204799
1225,1.176532
1230,1.057779
1235,1.12931
1240,0.987112
1245,0.807941
1250,0.928178
1255,0.843159
1260,0.805518
1265,0.694215
1270,0.708041
1275,0.701484
1280,0.539759
1285,0.548255
1290,0.610997
1295,0.590498
1300,0.56301
1305,0.494261
1310,0.433293
1315,0.50655
1320,0.397148
1325,0.435789
1330,0.474534
1335,0.383413
1340,0.329996
1345,0.197579
1350,0.366437
1355,0.086646
1360,0.071138
1365,0.153264
1370,0.185299
1375,0.051334
1380,0.029428
1385,0.001533
1390,-0.064872
1395,-0.068849
1400,-0.053085
1405,-0.131973
1410,-0.228084
1415,-0.105205
1420,-0.164963
1425,-0.058867
1430,-0.175379
1435,-0.120214
1440,-0.218547
1445,-0.39078
1450,-0.134838
1455,-0.281728
1460,-0.263739
1465,-0.190512
1470,-0.343178
1473,-0.383643