Folder: matl-db/Non-charring/PMMA/DBI-Lund (part 2)

File: DBI-Lund_Gasification_25kW_2.csv
Time,Mass
[s],[g]
0,73.8
5,73.86313
10,73.9807
15,73.8947
20,73.9169
25,73.7062
30,73.9047
35,73.8819
40,73.7301
45,73.8132
50,73.70085
55,73.9036
60,73.7543
65,73.6257
70,73.8055
75,73.51817
80,73.7233
85,73.5948
90,73.6176
95,73.6629
100,73.53658
105,73.6424
110,73.5921
115,73.5044
120,73.594
125,73.2717
130,73.2408
135,73.3005
140,73.1378
145,73.1803
150,73.0621
155,72.8431
160,72.7932
165,72.52611
170,72.5393
175,72.2116
180,72.0977
185,72.0005
190,71.6064
195,71.5534
200,71.2835
205,71.1964
210,70.8679
215,70.8735
220,70.43265
225,70.2828
230,69.87063
235,69.814
240,69.5234
245,69.2594
250,68.8284
255,68.6304
260,68.3571
265,68.2307
270,67.8084
275,67.51299
280,67.2814
285,66.6979
290,66.5497
295,66.2538
300,65.8796
305,65.5356
310,65.448
315,64.949
320,64.5885
325,64.229
330,64.0358
335,63.636
340,63.3103
345,62.7124
350,62.6042
355,62.20073
360,61.8553
365,61.3529
370,60.9635
375,60.5659
380,60.1715
385,59.757
390,59.4073
395,59.0137
400,58.6455
405,58.0996
410,57.7683
415,57.33726
420,56.8661
425,56.4725
430,55.86831
435,55.6065
440,55.0584
445,54.6549
450,54.1725
455,53.7151
460,53.2833
465,52.7454
470,52.3238
475,51.7571
480,51.34542
485,50.7996
490,50.4813
495,49.8267
500,49.32181
505,48.9955
510,48.39726
515,48.0201
520,47.4608
525,46.8924
530,46.3094
535,45.93837
540,45.4306
545,44.8792
550,44.137
555,43.926
560,43.1649
565,42.9306
570,42.3324
575,41.6584
580,41.2699
585,40.63995
590,40.2369
595,39.6668
600,39.0758
605,38.5337
610,38.0321
615,37.4752
620,37.0373
625,36.4953
630,35.8502
635,35.3838
640,34.779
645,34.139
650,33.7826
655,33.1378
660,32.5713
665,32.0435
670,31.6475
675,31.00053
680,30.5979
685,29.9872
690,29.3539
695,28.7722
700,28.3143
705,27.5561
710,27.1022
715,26.4496
720,25.8954
725,25.39836
730,24.7976
735,24.2315
740,23.64848
745,23.0174
750,22.4881
755,21.9722
760,21.3862
765,21.0446
770,20.1562
775,19.80354
780,19.0638
785,18.6265
790,18.091
795,17.4796
800,16.8595
805,16.3116
810,15.7027
815,15.3481
820,14.853
825,14.4588
830,13.9504
835,13.3737
840,13.0715
845,12.7677
850,12.4505
855,12.0897
860,11.6335
865,11.17539
870,11.0904
875,10.7078
880,10.4775
885,10.0944
890,9.920587
895,9.414774
900,9.127592
905,9.113973
910,8.697397
915,8.521082
920,8.254599
925,7.83314
930,7.816291
935,7.513828
940,7.107216
945,7.048937
950,6.888292
955,6.66251
960,6.292401
965,6.141026
970,6.071533
975,5.691028
980,5.597079
985,5.585928
990,5.199428
995,5.172895
1000,5.095445
1005,4.69772
1010,4.681833
1015,4.614552
1020,4.367967
1025,4.301795
1030,3.926771
1035,4.07669
1040,3.842047
1045,3.685248
1050,3.500765
1055,3.278837
1060,3.303833
1065,3.062422
1070,3.174266
1075,2.958337
1080,2.95436
1085,2.647849
1090,2.618468
1095,2.563766
1100,2.343869
1105,2.36362
1110,2.224953
1115,2.158493
1120,2.19601
1125,1.921477
1130,1.959242
1135,1.834119
1140,1.654669
1145,1.791609
1150,1.628016
1155,1.657433
1160,1.459035
1165,1.54097
1170,1.349374
1175,1.461359
1180,1.398598
1185,1.150862
1190,1.228137
1195,1.090658
1200,1.026689
1205,0.921943
1210,0.856261
1215,0.946367
1220,0.878476
1225,0.992803
1230,0.849521
1235,0.755655
1240,0.566568
1245,0.735333
1250,0.639208
1255,0.595098
1260,0.512656
1265,0.708487
1270,0.53071
1275,0.442709
1280,0.471606
1285,0.430345
1290,0.452141
1295,0.538935
1300,0.445704
1305,0.260399
1310,0.463165
1315,0.300675
1320,0.332127
1325,0.224405
1330,0.138545
1335,0.265379
1339,0.249818

File: DBI-Lund_Gasification_50kW_1.csv
Time,Mass
[s],[g]
0,68.6
2,68.50784
4,68.4398
6,68.3432
8,68.4813
10,68.2468
12,68.1927
14,68.4351
16,68.1874
18,68.2298
20,68.2833
22,68.1555
24,68.2264
26,68.0774
28,68.12969
30,68.0588
32,68.0048
34,67.9747
36,67.7035
38,67.57268
40,67.4957
42,67.1802
44,67.1427
46,66.81801
48,66.6814
50,66.3915
52,66.2957
54,66.04
56,65.8
58,65.473
60,65.2901
62,65.0589
64,64.6649
66,64.3602
68,64.2518
70,63.8512
72,63.8963
74,63.4242
76,63.1741
78,62.8045
80,62.4829
82,62.2819
84,62.043
86,61.7012
88,61.3898
90,61.0279
92,60.5623
94,60.4942
96,59.9772
98,59.7611
100,59.4712
102,59.0579
104,58.7752
106,58.4485
108,58.1745
110,57.7674
112,57.5534
114,57.0903
116,56.9652
118,56.48236
120,56.1476
122,55.8385
124,55.4409
126,55.2763
128,54.6011
130,54.4765
132,54.1355
134,53.5688
136,53.3786
138,52.8496
140,52.6654
142,52.2836
144,51.7849
146,51.56874
148,51.12359
150,50.6687
152,50.4035
154,50.04
156,49.64287
158,49.0695
160,48.7977
162,48.4534
164,47.8602
166,47.5848
168,47.1927
170,46.6464
172,46.1694
174,45.8274
176,45.4844
178,45.08107
180,44.5642
182,44.0848
184,43.7242
186,43.1919
188,42.7629
190,42.4393
192,42.109
194,41.4299
196,41.0933
198,40.7275
200,40.1468
202,39.8558
204,39.2679
206,38.7808
208,38.4014
210,37.785
212,37.39142
214,36.9735
216,36.2299
218,35.7957
220,35.4586
222,34.9523
224,34.4908
226,34.073
228,33.489
230,32.9269
232,32.3823
234,31.8509
236,31.3747
238,30.9005
240,30.3506
242,29.698
244,29.2385
246,28.8015
248,28.0439
250,27.6667
252,26.9421
254,26.402
256,26.0518
258,25.2919
260,24.6453
262,24.2459
264,23.5863
266,22.9267
268,22.4291
270,21.702
272,21.0763
274,20.5895
276,19.9912
278,19.3909
280,18.7007
282,18.0153
284,17.3829
286,16.8192
288,16.1744
290,15.558
292,14.8341
294,14.1556
296,13.4325
298,12.71181
300,12.1468
302,11.5227
304,10.8718
306,10.1943
308,9.428215
310,9.136618
312,8.426748
314,7.957148
316,7.249951
318,6.878339
320,6.487753
322,6.080676
324,5.612216
326,5.373336
328,4.961907
330,4.613969
332,4.306239
334,4.124284
336,3.59954
338,3.572349
340,3.138129
342,2.803187
344,2.798439
346,2.462569
348,2.152897
350,1.989826
352,1.728961
354,1.597358
356,1.518344
358,1.386737
360,1.348649
362,1.172756
364,0.852774
366,0.736022
368,0.694289
370,0.508322
372,0.454039
374,0.430702
376,0.021929
378,0.013025
380,-0.093769
382,-0.160611
384,-0.11316
386,-0.365541
388,-0.458547
390,-0.46992
392,-0.528158
394,-0.582855
396,-0.601887
398,-0.782821
400,-0.694289
402,-0.710797
404,-0.882072
406,-0.86966
408,-1.027933
410,-0.884485
412,-1.028654
414,-1.151505
416,-1.00862
418,-0.962032
420,-1.250583
422,-1.259798
424,-0.966131
426,-1.344805
428,-1.198379
430,-1.26639
432,-1.133286
434,-1.278397
436,-1.242284
438,-1.343731
440,-1.276375
442,-1.322868
444,-1.306156
446,-1.354211
448,-1.311272
450,-1.29676
452,-1.25671
454,-1.360871
456,-1.224886
458,-1.372422
460,-1.441966
462,-1.301416
464,-1.251501
466,-1.288956
468,-1.397166
470,-1.314537
472,-1.31959
474,-1.223166
476,-1.411941
478,-1.296671
480,-1.270041
482,-1.304995
484,-1.289175
486,-1.287713
488,-1.359112
490,-1.275822
492,-1.276476
494,-1.264238
496,-1.211943
498,-1.327198
500,-1.338153
502,-1.226382
504,-1.220996
506,-1.205152
508,-1.252902
510,-1.308992
512,-1.213708
513,-1.384179