Folder: matl-db/Non-charring/PMMA/DBI_Lund

Note: Non-charring/PMMA/DBI_Lund/README.md
# Dansk Brand og Sikringsteknisk Institut, Lund University (DBI_Lund)

A concise description of the tests done by the division of fire safety engineering at Lund University (Sweden) and DBI (Denmark), is presented here. For more information regarding specific tests please contact: Karlis Livkiss kal@dbigroup.dk

### Experimental Conditions, TGA
A Netzsch  STA 449 F3 Jupiter was used to conduct Simultaneous Thermal Analysis (TGA + DSC) experiments. STA experiments performed in Nitrogen at a heating rate of 20 K/min. Although tests were conducted simultaneously, TGA and DSC measurement data presented here are separated into two files, for consistency with other datasets.

* Heating Rate: 20 K/min
* Temperature program
  - Initial temperature 298.15 K
  - Isotherm: None
  - Maximum Temperature 1223.15 K
  - Final Isotherm: None
* Sample mass: 4.9-5.8 mg
* Sample geometry: powdered
* Calibration type: Indium for temperature and heat sensitivity
* Crucible type: Alumina, 85uL
* Carrier Gas
  - Nitrogen
  - Flow rate = [?] ml/min
 
| Test Name | Heating Rate [K/min] |  Initial Sample Mass [mg] | 
| --------- | :----: | :------------------------:|
|DBI_Lund\_STA\_N2\_20K\_1 |  20  | 5.8|  
|DBI_Lund\_STA\_N2\_20K\_2 |  20  | 4.9|  
|DBI_Lund\_STA\_N2\_20K\_3 |  20  | 5.5|  

### Experimental Conditions, Gasification Tests
Slab gasification tests were performed in a controlled atmosphere cone calorimeter at the Lund University division of fire safety engineering using a cone calorimeter made by Fire Testing Technology. An enclosed compartment is added to the test setup for controlling the atmospheric environment around the test sample. The oxygen level inside the compartment is measured with O2 analyser PMA 10 by M&C.

* Extraction flow rate: 24L/s
* Sample Surface Area: 0.01 m2 (nominal)
* Sample holder dimensions:
    - Square pan: 106mm x 106mm x 25mm [?]
    - Retainer frame: None
    - Retaining grid: None
* Backing Insulation:  Morgan Thermal Ceramics Superwool SW Plus was used as the backing material (Density 64 kg/m3, thickness 13 mm; thermal conductivity: see end of README, ~0.0375 [W/(m-K)])
* Thermocouple location: None

###### Test Heating Conditions  
|Test Name | Heat Flux [kW/m2]| Avg Heater Temperature [K]| O2 vol %|
|----------|:------:| :---: |:---: |
|DBILund\_Gasification\_25kW\_1 | 25| 913| 2.5-3.4 | 
|DBILund\_Gasification\_25kW\_2 | 25| 913| 3.5-4.0|
|DBILund\_Gasification\_25kW\_3 | 25| 913| 2.2-3.3|
|DBILund\_Gasification\_50kW\_1 | 50| 1093| 2.2-3.0|
|DBILund\_Gasification\_50kW\_2 | 50| 1093| 2.4-3.2|

It must be noted that the heater temperature may not be regarded as a ‘real’ temperature of the heater. It is a reference value for maintaining and controlling the heat flux. It should be assumed that the thermocouples on the heater coil are not fixed properly.

###### Test Calibration 
Heater calibration was performed before setting up a new irradiance level in accordance with ISO 5660-1:2019 section 10.2.5.  Operating analyser 

File: DBI-Lund_Cone_25kW_1.csv
Time,Mass,HRR,Back Surface Temperature
[s],[g],[kW/m2],[K]
0,72.96,0.536132,295.148
3,73.0487,-0.101131,295.122
6,73.0668,-0.240488,295.022
9,73.0967,0.511025,295.091
12,73.0547,2.30279,295.099
15,73.0851,2.74064,295.158
18,73.1387,2.59893,295.184
21,73.12695,2.42075,295.274
24,73.1165,1.82912,295.428
27,73.1592,1.79395,295.715
30,73.1533,2.26578,295.986
33,73.2348,0.942431,296.558
36,73.2247,0.73557,297.25
39,73.2786,0.933733,297.929
42,73.1536,1.19041,298.934
45,73.1362,1.7774,299.951
48,73.1613,1.65516,301.154
51,73.2021,1.35841,302.537
54,73.1869,2.13766,304.063
57,73.2203,2.05425,305.962
60,73.2072,1.596162,307.406
63,73.154,1.72209,309.249
66,73.1822,0.972381,311.102
69,73.1932,1.04224,313.687
72,73.1844,1.4325,315.721
75,73.2571,1.65576,318.006
78,73.2146,1.57739,320.397
81,73.1687,0.763263,322.893
84,73.1212,0.989476,326.298
87,73.1495,1.17224,329.017
90,73.0998,0.974445,331.968
93,73.1079,0.582597,334.94
96,73.097,-0.939852,337.93
99,73.0401,14.139,340.953
102,73.0453,56.291,344
105,72.9669,126.567,346.977
108,72.8087,191.369,349.996
111,72.5244,242.45,352.985
114,72.175,277.098,355.841
117,71.8075,310.703,359.144
120,71.4212,348.57,362.101
123,70.9791,370.315,364.885
126,70.5394,370.778,367.529
129,70.0483,402.484,370.058
132,69.6066,403.093,373.422
135,69.1553,399.852,375.849
138,68.6746,393.894,378.368
141,68.1864,404.106,380.856
144,67.7346,399.101,383.142
147,67.1832,408.844,384.972
150,66.70371,426.39,386.566
153,66.189,423.252,387.668
156,65.6925,429.96,388.295
159,65.1966,418.988,388.834
162,64.6688,428.97,389.409
165,64.105,436.7,390.314
168,63.5942,432.826,391.293
171,63.0361,436.494,392.444
174,62.5361,437.366,393.83
177,61.97,444.6,395.369
180,61.4796,444.456,397.439
183,60.93873,431.931,399.157
186,60.4181,439.429,400.943
189,59.88953,442.274,402.786
192,59.3376,440.443,404.606
195,58.803,449.038,406.433
198,58.2429,445.718,408.287
201,57.665,456.978,410.125
204,57.1493,454.492,412.04
207,56.5928,449.245,413.958
210,56.017,454.326,415.877
213,55.4735,466.139,418.278
216,54.8843,478.931,420.24
219,54.28111,488.719,422.202
222,53.74134,467.43,424.084
225,53.1622,457.128,426.075
228,52.5945,473.79,427.994
231,51.9721,451.43,430.581
234,51.4313,494.49,432.531
237,50.8342,488.415,434.436
240,50.2507,489.375,436.477
243,49.6698,500.685,438.432
246,49.012,473.224,440.428
249,48.473,477.556,442.321
252,47.8863,479.153,444.294
255,47.2631,503.949,446.221
258,46.6803,509.597,448.228
261,46.0416,508.537,450.177
264,45.4119,517.372,452.636
267,44.8083,517.621,454.6
270,44.1429,494.315,456.645
273,43.5555,519.321,458.624
276,42.93068,514.787,460.74
279,42.3097,528.688,463.328
282,41.6731,528.534,465.36
285,40.9727,524.271,467.408
288,40.3285,539.936,469.48
291,39.6557,551.231,471.568
294,38.9366,556.328,473.617
297,38.2898,575.784,475.847
300,37.6315,576.735,477.967
303,36.9103,570.883,480.104
306,36.2521,558.113,482.366
309,35.5091,544.58,484.595
312,34.8047,581.124,487.316
315,34.1342,587.826,489.588
318,33.4434,581.62,491.81
321,32.7107,606.138,494.115
324,32.0425,596.338,496.472
327,31.3571,550.982,499.544
330,30.5959,571.295,502.034
333,29.8894,572.382,504.492
336,29.1988,597.744,507.133
339,28.4733,599.762,509.669
342,27.75877,592.478,512.375
345,26.95907,609.002,515.165
348,26.2426,610.074,518.041
351,25.4464,624.006,520.908
354,24.702,619.412,523.989
357,23.9236,616.119,527.205
360,23.13571,632.189,531.089
363,22.4226,616.576,534.893
366,21.64804,625.493,540.044
369,20.8276,629.39,547.601
372,20.07293,668.124,557.283
375,19.272,665.111,567.996
378,18.4426,653.12,579.693
381,17.7117,674.302,587.372
384,16.9251,667.715,594.158
387,16.1218,658.883,600.073
390,15.3271,651.467,605.155
393,14.4941,668.08,609.765
396,13.7318,649.031,612.766
399,12.9531,636.662,617.42
402,12.1558,651.181,620.57
405,11.3617,634.384,623.491
408,10.5902,637.786,626.643
411,9.766367,680.334,630.637
414,8.936178,630.275,634.313
417,8.162016,632.808,638.495
420,7.409704,623.663,643.404
423,6.698182,639.974,649.207
426,5.941116,567.731,659.602
429,5.218467,550.359,671.722
432,4.550346,504.792,692.41
435,3.946699,469.137,721.123
438,3.469002,384.859,773.901
441,3.061818,310.107,870.669
444,2.719008,243.187,916.06
447,2.442165,209.255,917.251
450,2.252341,171.106,896.526
453,2.107745,141.626,866.959
456,1.931584,128.506,838.563
459,1.78836,118.593,813.174
462,1.576011,110.421,788.732
465,1.451917,100.595,772.743
468,1.429613,90.5212,763.497
471,1.308468,85.7743,752.876
474,1.239134,80.2201,745.159
477,1.128475,72.4688,736.796
480,1.058984,67.5663,732.962
483,1.007728,62.9629,728.405
486,0.906953,56.3659,724.69
489,0.856668,52.0066,720.67
492,0.781974,46.6566,715.47
495,0.757309,41.4109,711.1
498,0.688,39.379,708.01
501,0.653724,32.8709,707.085
504,0.590381,30.4727,704.827
507,0.586651,28.2108,703.883
510,0.565393,25.583,701.494
513,0.563662,22.4669,698.73
516,0.557639,19.6037,696.939
519,0.525494,16.3643,695.275
522,0.498248,15.0691,691.901
525,0.471837,13.4558,690.362
528,0.469089,12.7331,689.639
531,0.471933,11.3929,687.042
534,0.441452,10.529,686.928
537,0.452309,9.6638,687.445
540,0.395329,9.02039,688.687
543,0.423454,7.70522,687.142
546,0.398113,7.35779,686.585
549,0.401489,5.52977,684.798
552,0.412693,4.48107,683.63
555,0.370639,3.93731,684.923
558,0.402452,3.25599,685.911
561,0.394481,2.50894,683.761
564,0.385531,1.53106,682.296
567,0.392333,1.5881,683.388
570,0.383623,1.96385,683.458
573,0.353245,0.875488,682.004
576,0.2972,1.22801,681.399
579,0.295679,0.356586,681.469
582,0.27767,0.10703,682.554
585,0.261232,0.541566,682.044
588,0.283718,0.384252,680.799
591,0.400845,-0.601862,680.447
594,0.375298,-0.402829,680.712
597,0.389918,-0.353577,681.901
600,0.352018,-0.599266,682.469
603,0.400774,-0.192034,681.232
606,0.371465,-0.498959,680.377
609,0.372443,-0.626129,680.334
612,0.384414,-0.152755,682.899
615,0.35829,0.537378,681.898
618,0.388321,0.307796,682.543
621,0.369205,0.399365,680.516
624,0.356936,0.468409,678.787
627,0.374052,0.555559,678.919
630,0.333768,1.16543,678.706
633,0.376495,0.589037,679.127
636,0.373171,0.324651,680.604
639,0.379055,0.522414,680.098
642,0.401856,0.399038,679.526
644,0.369054,0.373981,678.676

File: DBI-Lund_Cone_25kW_2.csv
Time,Mass,HRR,Back Surface Temperature
[s],[g],[kW/m2],[K]
0,73.21,2.47389,0
2,73.1836,0.990775,0
4,73.152,0.131944,0
6,73.1399,-0.531252,0
8,73.1758,-1.21542,0
10,73.1686,-1.32642,0
12,73.12,-2.31387,0
14,73.1591,-1.91618,0
16,73.1944,-1.58407,0
18,73.2196,-1.45849,0
20,73.1933,-1.52921,0
22,73.1782,-1.20781,0
24,73.1866,-0.647,0
26,73.1731,-1.0779,0
28,73.1806,-1.51849,0
30,73.1677,-1.3378,0
32,73.17669,-1.1146,0
34,73.1729,-0.345021,0
36,73.12387,-1.08478,0
38,73.1344,-1.4925,0
40,73.1566,-1.47736,0
42,73.15861,-1.24272,0
44,73.1135,-1.14203,0
46,73.1717,-1.39252,0
48,73.1668,-1.50699,0
50,73.13656,-0.575176,0
52,73.119,-0.25465,0
54,73.1585,-0.205358,0
56,73.1667,-0.457647,0
58,73.1632,-0.57886,0
60,73.1313,-1.11349,0
62,73.1611,-1.02638,0
64,73.1568,-1.04585,0
66,73.1564,-1.43673,0
68,73.1543,-0.602548,0
70,73.1179,-0.418817,0
72,73.10632,-0.13376,0
74,73.1383,-0.274894,0
76,73.1195,-0.445744,0
78,73.1168,-0.500304,0
80,73.1111,-0.384248,0
82,73.11594,-0.0741807,0
84,73.0855,-0.208384,0
86,73.1104,-0.387679,0
88,73.0819,-0.50988,0
90,73.0993,-0.57098,0
92,73.1021,-0.479798,0
94,73.089,-0.223535,0
96,73.0357,-0.319281,0
98,73.0743,0.325111,0
100,73.0604,-0.491161,0
102,73.0203,-0.253607,0
104,73.0242,9.60997,0
106,73.0145,35.2662,0
108,72.9727,59.2207,0
110,72.8639,101.799,0
112,72.7528,161.272,0
114,72.5611,210.159,0
116,72.3826,274.231,0
118,72.1396,305.028,0
120,71.8485,325.77,0
122,71.5988,342.235,0
124,71.3306,347.262,0
126,71.0295,352.007,0
128,70.742,371.291,0
130,70.4489,382.636,0
132,70.1465,377.576,0
134,69.8408,379.616,0
136,69.556,384.326,0
138,69.24233,387.356,0
140,68.9304,388.33,0
142,68.5983,397.974,0
144,68.27375,399.877,0
146,67.9544,396.605,0
148,67.6526,420.018,0
150,67.3224,414.945,0
152,66.9754,410.459,0
154,66.6738,434.071,0
156,66.3183,413.21,0
158,65.9829,423.082,0
160,65.6144,430.726,0
162,65.2585,428.876,0
164,64.9192,437.134,0
166,64.5594,445.325,0
168,64.2238,444.951,0
170,63.856,448.527,0
172,63.5417,433.584,0
174,63.1994,424.177,0
176,62.8485,420.394,0
178,62.47608,423.846,0
180,62.1343,469.298,0
182,61.7661,438.967,0
184,61.3667,437.861,0
186,61.0205,469.284,0
188,60.664,452.365,0
190,60.2853,466.954,0
192,59.9027,458.5,0
194,59.4937,481.319,0
196,59.14805,465.418,0
198,58.7859,467.331,0
200,58.3991,455.531,0
202,57.99,472.134,0
204,57.5778,470.143,0
206,57.2455,466.701,0
208,56.8703,488.142,0
210,56.475,472.996,0
212,56.0834,477.673,0
214,55.6922,475.159,0
216,55.3237,485.906,0
218,54.9215,480.627,0
220,54.5113,488.706,0
222,54.1101,492.587,0
224,53.733,504.697,0
226,53.3398,485.986,0
228,52.9176,516.924,0
230,52.5018,481.993,0
232,52.1453,496.538,0
234,51.7248,490.145,0
236,51.3363,501.771,0
238,50.9641,497.52,0
240,50.5944,482.081,0
242,50.15565,469.271,0
244,49.7145,499.44,0
246,49.3251,500.073,0
248,48.9347,504.278,0
250,48.5145,481.193,0
252,48.0818,509.273,0
254,47.6724,511.235,0
256,47.292,524.729,0
258,46.8735,524.051,0
260,46.44113,519.749,0
262,46.0112,520.124,0
264,45.6078,523.851,0
266,45.1638,523.214,0
268,44.7529,536.523,0
270,44.2956,534.903,0
272,43.8556,536.116,0
274,43.443,540.779,0
276,42.9991,541.811,0
278,42.5607,549.461,0
280,42.10782,535.533,0
282,41.6507,546.107,0
284,41.2415,551.426,0
286,40.79677,548.358,0
288,40.3667,552.769,0
290,39.9121,542.954,0
292,39.4581,556.913,0
294,39.0083,556.169,0
296,38.5285,553.646,0
298,38.0684,568.524,0
300,37.6275,562.64,0
302,37.1569,550.408,0
304,36.7022,556.93,0
306,36.2295,561.638,0
308,35.7644,580.984,0
310,35.2885,567.106,0
312,34.8027,582.127,0
314,34.3173,593.712,0
316,33.8665,581.171,0
318,33.375,583.736,0
320,32.88881,554.393,0
322,32.4085,570.223,0
324,31.9303,582.309,0
326,31.4897,577.379,0
328,31.0252,593.5669,0
330,30.5479,588.494,0
332,30.039,598.428,0
334,29.5887,593.878,0
336,29.1086,603.888,0
338,28.613,582.052,0
340,28.1163,596.646,0
342,27.6465,609.874,0
344,27.1614,591.219,0
346,26.6457,606.499,0
348,26.1446,596.379,0
350,25.6632,595.938,0
352,25.1622,626.872,0
354,24.6436,626.575,0
356,24.1155,618.992,0
358,23.6335,657.804,0
360,23.1901,631.342,0
362,22.5956,631.077,0
364,22.1027,619.315,0
366,21.6044,638.545,0
368,21.0745,615.805,0
370,20.5408,631.96,0
372,20.0473,639.402,0
374,19.5111,659.682,0
376,18.9748,612.07,0
378,18.4352,625.662,0
380,17.8798,679.438,0
382,17.3849,659.092,0
384,16.8571,666.45,0
386,16.2963,669.246,0
388,15.6963,688.244,0
390,15.1743,635.781,0
392,14.6361,713.123,0
394,14.018,748.781,0
396,13.4366,733.482,0
398,12.8655,708.875,0
400,12.3043,681.349,0
402,11.7293,702.019,0
404,11.16225,706.539,0
406,10.5718,686.458,0
408,9.974294,701.381,0
410,9.393096,689.158,0
412,8.914456,699.734,0
414,8.354954,694.007,0
416,7.818815,664.844,0
418,7.248224,646.386,0
420,6.744099,631.612,0
422,6.19127,624.957,0
424,5.681749,618.702,0
426,5.208713,610.542,0
428,4.690872,599.479,0
430,4.189611,587.518,0
432,3.706359,588.11,0
434,3.287452,545.511,0
436,2.834262,526.078,0
438,2.397577,510.929,0
440,1.985483,481.433,0
442,1.637289,452.485,0
444,1.282921,406.517,0
446,0.97344,375.751,0
448,0.681462,290.217,0
450,0.45614,254.945,0
452,0.319673,198.874,0
454,0.188684,144.509,0
456,0.07488,123.377,0
458,0.01492,93.274,0
460,-0.009089,69.8135,0
462,-0.049128,57.9762,0
464,-0.084922,44.1319,0
466,-0.072453,35.8836,0
468,-0.11526,25.2082,0
470,-0.135355,18.8142,0
472,-0.130581,15.6175,0
474,-0.107,12.4578,0
476,-0.117812,10.3293,0
478,-0.11,9.89836,0
480,-0.11451,9.05693,0
482,-0.134,7.99091,0
484,-0.159286,6.99301,0
486,-0.152453,5.02907,0
488,-0.168955,3.98638,0
490,-0.188162,2.87255,0
492,-0.132125,2.0857,0
494,-0.130901,1.77595,0
496,-0.174784,1.11843,0
498,-0.151792,1.05867,0
500,-0.138135,0.879984,0
502,-0.148668,0.851646,0
504,-0.176263,0.908954,0
506,-0.160298,1.04021,0
508,-0.162164,1.25603,0
510,-0.16693,1.29966,0
512,-0.178079,1.10881,0
514,-0.155729,1.82057,0
516,-0.148283,1.79521,0
518,-0.188513,1.77795,0
520,-0.173511,1.87226,0
522,-0.154504,2.03131,0
524,-0.149364,2.21125,0
526,-0.197455,1.63812,0
528,-0.220208,1.11024,0
530,-0.172141,-0.173867,0
532,-0.155704,-0.667492,0
534,-0.170157,-0.569546,0
536,-0.179687,-0.453995,0
538,-0.17829,-0.184973,0
540,-0.162905,-0.358458,0
542,-0.183086,-0.411343,0
544,-0.163535,-0.606139,0
546,-0.167099,-0.333115,0
548,-0.168734,0.281432,0
550,-0.175053,0.547336,0
552,-0.149217,0.602625,0
554,-0.156205,0.46326,0

File: DBI-Lund_Cone_25kW_3.csv
Time,Mass,HRR,Back Surface Temperature
[s],[g],[kW/m2],[K]
0,72.24,3.66619,0
2,72.2115,3.73935,0
4,72.2145,3.50467,0
6,72.20819,3.22801,0
8,72.1843,3.30646,0
10,72.2167,2.41278,0
12,72.2176,2.20706,0
14,72.2361,2.14819,0
16,72.2138,2.17946,0
18,72.1881,2.3503,0
20,72.1815,2.57005,0
22,72.1895,2.45849,0
24,72.1926,2.23163,0
26,72.193,1.73327,0
28,72.1872,1.35565,0
30,72.1888,1.4384,0
32,72.1736,1.43609,0
34,72.1803,0.623659,0
36,72.1459,0.762946,0
38,72.1822,0.847892,0
40,72.1936,0.90178,0
42,72.1956,0.658482,0
44,72.1288,0.578053,0
46,72.1908,0.402101,0
48,72.2137,0.384041,0
50,72.2016,0.386786,0
52,72.1646,0.568354,0
54,72.17969,0.760486,0
56,72.17577,0.851679,0
58,72.1377,0.663196,0
60,72.1653,0.435712,0
62,72.1628,0.843761,0
64,72.15915,1.25071,0
66,72.1616,1.49771,0
68,72.13796,1.96424,0
70,72.1537,1.69277,0
72,72.1578,1.25787,0
74,72.1459,1.2207,0
76,72.1394,1.34906,0
78,72.1783,1.10347,0
80,72.1736,0.82491,0
82,72.1592,0.675269,0
84,72.13864,-0.460549,0
86,72.1512,-0.503619,0
88,72.1459,-0.526478,0
90,72.1376,-1.33832,0
92,72.1045,-1.27803,0
94,72.1053,-0.435646,0
96,72.1197,-1.00426,0
98,72.1073,3.08967,0
100,72.064,24.8973,0
102,72.0417,46.3403,0
104,71.9498,91.5158,0
106,71.8162,147.455,0
108,71.6578,175.012,0
110,71.51363,232.912,0
112,71.3189,260.368,0
114,71.0551,303.084,0
116,70.8054,329.245,0
118,70.5464,334.795,0
120,70.2634,356.13,0
122,69.9601,355.165,0
124,69.6618,372.816,0
126,69.3957,369.168,0
128,69.085,383.007,0
130,68.7671,382.972,0
132,68.4152,376.283,0
134,68.157,381.793,0
136,67.87485,385.749,0
138,67.5377,389.654,0
140,67.2063,394.465,0
142,66.9046,428.592,0
144,66.5979,412.189,0
146,66.234,422.699,0
148,65.8778,442.949,0
150,65.5761,416.312,0
152,65.2486,417.645,0
154,64.8854,432.932,0
156,64.545,423.136,0
158,64.215,420.278,0
160,63.8672,453.338,0
162,63.5196,452.741,0
164,63.17706,453.598,0
166,62.8517,439.075,0
168,62.4609,456.974,0
170,62.0808,456.859,0
172,61.755,448.197,0
174,61.3983,447.102,0
176,61.0152,440.735,0
178,60.6475,447.738,0
180,60.3,464.633,0
182,59.9124,449.495,0
184,59.5356,470.642,0
186,59.12993,469.5,0
188,58.7527,475.854,0
190,58.3927,473.531,0
192,57.989,479.244,0
194,57.5744,482.874,0
196,57.2187,509.071,0
198,56.8206,495.682,0
200,56.4167,496.249,0
202,56.0045,491.686,0
204,55.6344,482.309,0
206,55.24058,496.28,0
208,54.8181,485.32,0
210,54.3849,492.333,0
212,53.9642,527.336,0
214,53.6046,503.529,0
216,53.18,505.5,0
218,52.7685,488.883,0
220,52.35224,506.805,0
222,51.9382,502.925,0
224,51.5342,517.739,0
226,51.12503,523.598,0
228,50.675,516.913,0
230,50.2361,527.407,0
232,49.8542,516.208,0
234,49.434,516.017,0
236,48.9896,523.17,0
238,48.5415,523.304,0
240,48.1225,523.481,0
242,47.7198,535.5,0
244,47.2605,507.204,0
246,46.8288,527.965,0
248,46.4083,527.837,0
250,46.0019,542.728,0
252,45.5588,536.942,0
254,45.1298,530.448,0
256,44.7054,521.831,0
258,44.26105,550.282,0
260,43.7768,567.661,0
262,43.3285,555.56,0
264,42.89693,551.133,0
266,42.46816,563.14,0
268,41.987,553.652,0
270,41.5214,566.736,0
272,41.0925,557.222,0
274,40.6335,582.599,0
276,40.1266,562.416,0
278,39.6767,574.712,0
280,39.2181,571.409,0
282,38.7226,591.249,0
284,38.199,604.566,0
286,37.7433,581.78,0
288,37.3128,605.643,0
290,36.8231,597.114,0
292,36.3296,576.252,0
294,35.8169,611.31,0
296,35.3681,631.622,0
298,34.8811,584.815,0
300,34.4002,591.082,0
302,33.9358,598.572,0
304,33.4477,593.907,0
306,32.9503,602.566,0
308,32.4361,592.292,0
310,31.9746,584.563,0
312,31.4947,591.328,0
314,30.9824,611.588,0
316,30.4597,600.729,0
318,29.9823,625.999,0
320,29.485,615.344,0
322,28.9718,622.035,0
324,28.4567,666.869,0
326,27.9733,648.143,0
328,27.4549,637.197,0
330,26.9006,610.619,0
332,26.414,642.499,0
334,25.9181,635.472,0
336,25.3978,653.746,0
338,24.8458,633.74,0
340,24.3445,614.469,0
342,23.83763,644.71,0
344,23.3028,638.572,0
346,22.7977,658.549,0
348,22.2652,658.686,0
350,21.7429,651.358,0
352,21.1814,634.461,0
354,20.6525,652.352,0
356,20.1187,683.248,0
358,19.5711,658.467,0
360,19.0376,666.43,0
362,18.4717,673.249,0
364,17.9397,691.258,0
366,17.3713,685.832,0
368,16.8083,709.88,0
370,16.2273,710.629,0
372,15.6305,733.645,0
374,15.1066,724.808,0
376,14.5241,739.521,0
378,13.9253,705.638,0
380,13.3506,733.463,0
382,12.77803,730.264,0
384,12.2172,756.895,0
386,11.6282,731.385,0
388,11.0479,725.236,0
390,10.4659,703.574,0
392,9.893653,692.134,0
394,9.332185,697.239,0
396,8.72892,692.258,0
398,8.174369,741.474,0
400,7.615858,694.359,0
402,7.047603,710.286,0
404,6.48937,691.488,0
406,5.894003,669.964,0
408,5.335641,686.712,0
410,4.813334,660.222,0
412,4.242216,661.744,0
414,3.698647,618.071,0
416,3.238618,582.657,0
418,2.74477,596.967,0
420,2.2629,565.018,0
422,1.832056,525.017,0
424,1.399516,469.052,0
426,1.035116,408.123,0
428,0.698966,364.679,0
430,0.478127,291.16,0
432,0.3036,215.787,0
434,0.169377,173.743,0
436,0.133997,120.89,0
438,0.085179,84.9463,0
440,0.023671,72.4521,0
442,-0.039537,51.0689,0
444,-0.05456,43.4532,0
446,-0.05092,34.5205,0
448,-0.040902,28.2044,0
450,-0.091038,25.1117,0
452,-0.123181,21.6028,0
454,-0.106224,18.2055,0
456,-0.100138,16.1346,0
458,-0.123599,12.5245,0
460,-0.124371,10.9802,0
462,-0.140475,9.26904,0
464,-0.130776,7.93875,0
466,-0.149351,6.68515,0
468,-0.164964,4.46216,0
470,-0.169295,3.336,0
472,-0.145934,2.61348,0
474,-0.161223,2.64324,0
476,-0.194404,2.63352,0
478,-0.145348,1.84358,0
480,-0.136775,1.69417,0
482,-0.157151,1.67517,0
484,-0.141645,0.948807,0
486,-0.150369,2.01593,0
488,-0.157752,2.14404,0
490,-0.174941,2.35744,0
492,-0.138375,1.92317,0
494,-0.134886,1.85519,0
496,-0.179247,1.466,0
498,-0.185771,1.14121,0
500,-0.135859,1.35105,0
502,-0.151473,0.98801,0
504,-0.168899,0.480089,0
506,-0.158,0.208491,0
508,-0.169436,-0.228318,0
510,-0.171811,-0.536999,0
512,-0.172838,-0.056639,0
514,-0.17376,0.439009,0
516,-0.140756,0.64998,0
518,-0.178172,1.2439,0
520,-0.200673,1.15161,0
521,-0.201375,1.11066,0