Folder: matl-db/Non-charring/PMMA/DBI_Lund (part 3)

File: DBI-Lund_Cone_50kW_3.csv
Time,Mass,HRR,Back Surface Temperature
[s],[g],[kW/m2],[K]
0,72.42,3.10927,0
2,72.4403,2.91175,0
4,72.494,1.83558,0
6,72.4786,1.80132,0
8,72.482,0.659649,0
10,72.4868,1.45094,0
12,72.4625,1.4724,0
14,72.4893,1.09645,0
16,72.4767,0.981582,0
18,72.4733,0.907011,0
20,72.5051,1.14341,0
22,72.48,0.253498,0
24,72.44379,-1.2057,0
26,72.4181,31.6388,0
28,72.37,113.405,0
30,72.2507,228.329,0
32,72.0308,289.801,0
34,71.721,387.439,0
36,71.3057,470.923,0
38,70.9312,500.727,0
40,70.534,524.321,0
42,70.092,563.119,0
44,69.62002,574.117,0
46,69.1361,602.647,0
48,68.6711,603.807,0
50,68.1919,608.107,0
52,67.6763,655.74,0
54,67.1526,638.332,0
56,66.6979,659.806,0
58,66.1997,664.283,0
60,65.653,639.896,0
62,65.1648,675.31,0
64,64.6407,654.521,0
66,64.1144,647.062,0
68,63.5533,659.868,0
70,63.0447,675.243,0
72,62.5122,658.792,0
74,61.9572,668.412,0
76,61.3958,649.093,0
78,60.8858,659.174,0
80,60.342,693.325,0
82,59.7667,695.419,0
84,59.1922,667.365,0
86,58.66975,684.088,0
88,58.1194,694.174,0
90,57.5467,690.781,0
92,56.9675,694.571,0
94,56.4315,688.391,0
96,55.8695,684.154,0
98,55.2711,703.125,0
100,54.7171,692.655,0
102,54.1573,698.886,0
104,53.5822,695.348,0
106,52.9519,692.717,0
108,52.35737,732.227,0
110,51.7194,753.373,0
112,51.1263,741.128,0
114,50.5459,764.037,0
116,49.9298,724.989,0
118,49.2973,733.564,0
120,48.6912,745.555,0
122,48.10739,748.624,0
124,47.4934,735.637,0
126,46.8556,748.957,0
128,46.2307,743.534,0
130,45.6288,755.308,0
132,45.0085,744.904,0
134,44.344,809.653,0
136,43.6598,790.14,0
138,43.0102,792.663,0
140,42.3701,824.347,0
142,41.7208,826.082,0
144,41.0332,849.844,0
146,40.355,845.182,0
148,39.71874,877.728,0
150,39.0273,833.331,0
152,38.36773,796.26,0
154,37.6613,863.106,0
156,37.0032,867.974,0
158,36.3057,861.225,0
160,35.6093,861.246,0
162,34.8723,856.14,0
164,34.1636,858.932,0
166,33.48998,889.355,0
168,32.8037,849.697,0
170,32.0755,878.59,0
172,31.3541,866.988,0
174,30.63519,903.508,0
176,29.9297,886.241,0
178,29.18507,866.057,0
180,28.42541,897.556,0
182,27.6574,916.077,0
184,26.8862,904.515,0
186,26.1188,958.232,0
188,25.3814,891.527,0
190,24.6171,984.832,0
192,23.8049,889.038,0
194,23.0416,972.867,0
196,22.1966,960.541,0
198,21.4775,951.976,0
200,20.6843,924.9405,0
202,19.9127,993.085,0
204,19.1039,994.628,0
206,18.3137,1007.89,0
208,17.4891,996.902,0
210,16.7191,974.989,0
212,15.8991,955.655,0
214,15.0659,1009.8,0
216,14.2452,1004.26,0
218,13.4348,1045.61,0
220,12.5884,1071.18,0
222,11.6695,1157.04,0
224,10.7706,1219.8,0
226,9.856453,1159.6,0
228,8.948747,1111.25,0
230,8.016234,1157.69,0
232,7.078714,1144.83,0
234,6.150703,1134.52,0
236,5.170396,1066.61,0
238,4.355673,1053.77,0
240,3.479635,1070.07,0
242,2.678718,1048.59,0
244,1.897164,902.707,0
246,1.271363,755.518,0
248,0.744538,638.151,0
250,0.406233,410.682,0
252,0.218454,330.993,0
254,0.062211,250.87,0
256,-0.027158,183.679,0
258,-0.136531,146.455,0
260,-0.197854,104.922,0
262,-0.265026,75.6824,0
264,-0.289169,62.6546,0
266,-0.3024,46.4951,0
268,-0.343996,40.6746,0
270,-0.385192,31.5484,0
272,-0.401227,23.9184,0
274,-0.398325,20.6185,0
276,-0.422912,16.1841,0
278,-0.473964,12.7566,0
280,-0.433228,9.75262,0
282,-0.430775,6.87759,0
284,-0.501961,4.91625,0
286,-0.47447,4.00563,0
288,-0.475401,3.84056,0
290,-0.479035,3.7766,0
292,-0.495046,3.83613,0
294,-0.479513,3.74466,0
296,-0.501876,3.29453,0
298,-0.491671,3.13152,0
300,-0.480556,3.30482,0
302,-0.501117,3.54322,0
304,-0.527516,3.05445,0
306,-0.494899,2.93749,0
308,-0.516378,3.15542,0
310,-0.517976,3.49639,0
312,-0.566254,3.45608,0
314,-0.536457,3.30049,0
316,-0.531834,3.03267,0
318,-0.555006,3.65883,0
320,-0.549429,2.7862,0
322,-0.548476,2.20001,0
324,-0.541805,1.81868,0
326,-0.568555,1.68395,0
328,-0.54776,1.48521,0
330,-0.563962,1.12285,0
332,-0.59996,0.429197,0
334,-0.586564,0.421443,0
336,-0.565867,0.749468,0
338,-0.57403,0.67991,0
340,-0.582657,0.401792,0
342,-0.617955,1.02338,0
344,-0.613338,1.58878,0
346,-0.593119,2.1908,0
348,-0.631218,2.23775,0
350,-0.603194,2.15195,0
352,-0.591561,2.00712,0

File: DBI-Lund_Cone_65kW_1.csv
Time,Mass,HRR,Back Surface Temperature
[s],[g],[kW/m2],[K]
0,73.31,1.04803,295.764
2,73.46624,0.898881,295.726
4,73.61,0.0569524,295.721
6,73.7076,-0.116656,295.714
8,73.8269,-0.0727754,295.6
10,73.9283,-0.740825,295.594
12,74.0028,-3.32763,295.635
14,74.0371,-5.07433,295.635
16,74.0429,48.9087,295.688
18,74.0458,139.054,295.904
20,73.9356,306.072,296.061
22,73.5934,470.365,296.412
24,73.18466,510.752,297.017
26,72.7187,603.152,297.501
28,72.2138,623.625,298.254
30,71.62124,702.327,299.483
32,71.1269,718.918,300.668
34,70.5476,743.368,302.339
36,69.9769,776.239,303.501
38,69.351,805.708,305.223
40,68.76565,790.835,307.463
42,68.1191,765.958,308.926
44,67.4942,769.008,311.065
46,66.8344,803.369,313.759
48,66.2419,841.755,316.152
50,65.5983,830.301,319.137
52,64.936,784.594,320.963
54,64.2822,793.34,323.594
56,63.616,832.352,326.787
58,62.9705,834.668,328.782
60,62.317,829.829,331.579
62,61.6451,827.971,335.05
64,61.0031,828.527,337.753
66,60.3166,809.747,341.225
68,59.6186,843.373,343.346
70,58.9326,770.334,346.28
72,58.3104,801.315,349.732
74,57.6249,814.7,351.881
76,56.9101,875.121,354.788
78,56.2131,853.638,358.26
80,55.54981,832.806,360.326
82,54.85323,911.791,364.51
84,54.1255,876.583,366.58
86,53.4143,848.615,369.196
88,52.713,879.525,372.67
90,52.0144,866.599,374.6
92,51.2874,837.888,377.43
94,50.5946,861.876,380.775
96,49.893,869.753,382.784
98,49.1431,893.061,386.596
100,48.3969,874.023,388.456
102,47.6841,865.277,391.244
104,46.9796,881.673,394.79
106,46.2735,857.102,396.928
108,45.51979,954.709,400
110,44.7899,935.168,403.713
112,44.03814,922.907,405.975
114,43.2575,944.103,410.493
116,42.5023,926.773,412.844
118,41.7409,871.08,415.909
120,40.9613,964.283,419.523
122,40.1503,971.647,421.861
124,39.4244,969.497,425.044
126,38.7197,960.742,427.437
128,37.8554,895.563,431.106
130,37.0599,965.13,435.657
132,36.2863,962.144,438.065
134,35.48339,948.949,441.282
136,34.6774,923.786,445.343
138,33.8679,944.505,447.633
140,33.0907,1008.09,452.104
142,32.2151,947.266,455.366
144,31.4487,962.153,458.12
146,30.5959,1042.03,461.898
148,29.7968,1033.11,465.886
150,28.9003,1107.83,470.594
152,28.0923,1024.34,475.287
154,27.25131,1036.25,478.077
156,26.4081,986.464,481.71
158,25.5415,1097.94,485.741
160,24.64031,1100.81,488.341
162,23.7718,1022.92,491.872
164,22.9192,1152.02,494.768
166,21.9845,1081.88,499.406
168,21.0351,1086.03,504.242
170,20.1579,1067.89,507.638
172,19.2569,1106,513.017
174,18.3075,1043.36,520.645
176,17.38568,1170.85,525.901
178,16.4045,1105.45,535.002
180,15.4127,1233.37,549.394
182,14.44757,1106.28,562.632
184,13.3872,1193.29,576.536
186,12.3954,1237.97,584.83
188,11.3501,1465.36,595.813
190,10.23633,1383.12,606.499
192,9.153481,1283.59,612.553
194,8.106595,1313.82,622.347
196,7.010262,1441.77,632.909
198,5.909118,1508.42,640.276
200,4.970378,1087.09,661.208
202,4.130499,1072.19,678.75
204,3.379629,824.298,724.55
206,2.766587,698.003,837.582
208,2.300683,563.899,907.707
210,1.973389,481.465,1006.467
212,1.712054,391.891,1099.93
214,1.512595,289.707,1079.554
216,1.372367,204.265,1005.221
218,1.295033,162.355,974.931
220,1.208384,104.214,957.348
222,1.153069,84.5499,936.223
224,1.144005,56.1974,928.43
226,1.133825,35.3655,920.337
228,1.124024,25.3038,889.845
230,1.095228,16.868,877.134
232,1.081064,9.48874,862.14
234,1.104635,7.98914,855.57
236,1.119454,6.49683,851.222
238,1.105729,4.9736,839.031
240,1.094496,3.4097,836.191
242,1.09957,2.44711,827.593
244,1.122458,2.28736,826.243
246,1.093557,1.78013,825.385
248,1.074912,1.24936,826.957
250,1.060973,0.98472,826.156
252,1.080104,0.433815,821.2
254,1.098265,-0.0238819,823.875
256,1.089578,-0.179411,822.55
258,1.059355,-0.259259,824.355
260,1.086479,-0.601085,820.638
262,1.081589,-0.673351,820.191
264,1.07813,-0.709466,822.028
266,1.074835,-1.23445,819.735
268,1.069559,-1.61246,823.504
270,1.084711,-1.44821,820.279
272,1.075993,-1.24142,820.367
274,1.045743,-1.78048,821.262
276,1.085569,-2.22184,817.874
278,1.079197,-2.27238,816.179
280,1.053333,-2.04023,815.619
282,1.032863,-1.92805,819.951
284,1.065281,-2.14316,821.363
286,1.045072,-2.26235,822.509
288,1.079969,-2.57735,822.175
290,1.070267,-2.79717,823.915
292,1.053593,-2.86781,824.658
294,1.0484,-3.00949,825.684
296,1.054097,-2.91422,821.8
298,1.079675,-2.66856,821.278
300,1.050446,-2.75537,816.91
302,1.019646,-2.50025,820.673
304,1.057278,-2.18175,821.521
306,1.03779,-2.62887,820.358
308,1.031017,-2.76158,821.542
310,0.989383,-3.71164,822.979
311,1.015315,-3.67023,824.466

File: DBI-Lund_Cone_65kW_2.csv
Time,Mass,HRR,Back Surface Temperature
[s],[g],[kW/m2],[K]
0,73.86,1.7356,0
2,73.8736,1.58845,0
4,74.1738,1.09694,0
6,74.2044,0.940486,0
8,74.2101,1.2201,0
10,74.21665,1.28169,0
12,74.15709,0.60943,0
14,74.1857,-2.80472,0
16,74.1487,6.26824,0
18,74.09771,53.1883,0
20,74.0271,218.411,0
22,73.7795,315.026,0
24,73.3778,443.333,0
26,72.9168,550.356,0
28,72.4351,612.291,0
30,71.8972,629.421,0
32,71.3966,654.627,0
34,70.8175,679.444,0
36,70.2198,727.846,0
38,69.6469,750.498,0
40,69.0608,742.377,0
42,68.4526,794.242,0
44,67.8464,794.167,0
46,67.2042,814.539,0
48,66.6113,789.103,0
50,65.9895,811.101,0
52,65.3544,770.843,0
54,64.7173,750.503,0
56,64.0649,803.423,0
58,63.4206,792.384,0
60,62.7479,786.091,0
62,62.0763,801.718,0
64,61.4695,808.87,0
66,60.8173,787.503,0
68,60.1754,771.623,0
70,59.4988,808.079,0
72,58.8452,772.621,0
74,58.1902,799.679,0
76,57.52639,841.834,0
78,56.84757,806.147,0
80,56.1885,859.455,0
82,55.5394,863.471,0
84,54.85173,842.802,0
86,54.1881,821.853,0
88,53.4904,804.791,0
90,52.8495,789.906,0
92,52.1454,795.538,0
94,51.4733,813.011,0
96,50.7813,823.658,0
98,50.0703,832.033,0
100,49.3786,874.078,0
102,48.67009,845.026,0
104,47.9643,854.312,0
106,47.217,882.326,0
108,46.482,881.423,0
110,45.7702,900.085,0
112,45.0399,930.296,0
114,44.2753,885.803,0
116,43.5611,955.934,0
118,42.8343,911.068,0
120,42.0958,902.714,0
122,41.3208,835.492,0
124,40.60809,926.205,0
126,39.8385,950.84,0
128,39.0682,906.17,0
130,38.2788,890.39,0
132,37.5242,925.239,0
134,36.7744,961.243,0
136,35.978,950.089,0
138,35.156,1009.67,0
140,34.3532,962.785,0
142,33.5872,975.832,0
144,32.8033,970.452,0
146,31.9872,929.478,0
148,31.135,958.679,0
150,30.3611,976.758,0
152,29.5189,975.153,0
154,28.6688,1017.13,0
156,27.8431,1069.78,0
158,27.0118,1033.77,0
160,26.1474,1004.75,0
162,25.2626,1056.11,0
164,24.4202,979.301,0
166,23.5302,997.496,0
168,22.6264,1080.52,0
170,21.7621,1278.13,0
172,20.8818,1074.34,0
174,19.96262,1080.11,0
176,19.017,1070.24,0
178,18.1149,1100.64,0
180,17.192,1197.29,0
182,16.2403,1144.97,0
184,15.2504,1175.72,0
186,14.303,1193.34,0
188,13.3173,1152.66,0
190,12.3228,1297.74,0
192,11.2559,1489.44,0
194,10.1101,1434.73,0
196,9.028553,1181.22,0
198,7.920362,1355.24,0
200,6.766751,1421.29,0
202,5.60258,1150.71,0
204,4.557108,1352.39,0
206,3.444517,1087.93,0
208,2.645822,942.695,0
210,1.926641,886.776,0
212,1.365667,695.287,0
214,0.951111,523.402,0
216,0.633365,417.392,0
218,0.44612,314.248,0
220,0.269686,263.075,0
222,0.134232,198.657,0
224,0.02151,145.303,0
226,-0.03775,115.177,0
228,-0.093908,84.9887,0
230,-0.146743,58.6911,0
232,-0.189679,40.5824,0
234,-0.159963,23.3073,0
236,-0.167959,16.1827,0
238,-0.224258,8.68348,0
240,-0.213944,6.8904,0
242,-0.210897,6.64839,0
244,-0.203836,5.7587,0
246,-0.213099,4.46361,0
248,-0.237335,4.05847,0
250,-0.25069,3.47954,0
252,-0.235694,2.82419,0
254,-0.255061,1.78444,0
256,-0.265619,1.467,0
258,-0.253342,1.29351,0
260,-0.244675,1.01067,0
262,-0.236853,1.22188,0
264,-0.235671,1.31349,0
266,-0.268554,1.3357,0
268,-0.251199,1.44355,0
270,-0.271385,1.67526,0
272,-0.269565,0.761656,0
274,-0.242297,1.09258,0
276,-0.259115,1.3397,0
278,-0.24987,1.2943,0
280,-0.28858,1.10232,0
282,-0.254349,0.92575,0
284,-0.256923,0.74124,0
286,-0.272766,0.658618,0
288,-0.292799,1.07688,0
290,-0.260209,1.58351,0
292,-0.275117,1.85476,0
294,-0.289403,1.59397,0
296,-0.31834,1.49572,0
298,-0.278474,1.42034,0
300,-0.293588,1.30663,0
302,-0.295495,1.05467,0
304,-0.308784,1.02893,0
306,-0.282773,1.28762,0
308,-0.301248,1.51784,0
310,-0.318327,1.55365,0
312,-0.308157,1.17644,0
314,-0.292786,1.06415,0
316,-0.278535,1.04304,0
318,-0.268337,0.801312,0
320,-0.295663,1.2215,0
322,-0.318304,1.52603,0
324,-0.301905,1.74333,0
326,-0.302467,1.07988,0
328,-0.317698,0.8819,0

File: DBI-Lund_Cone_65kW_3.csv
Time,Mass,HRR,Back Surface Temperature
[s],[g],[kW/m2],[K]
0,73.03,2.66635,0
2,73.1735,2.53946,0
4,73.2947,1.4448,0
6,73.3059,1.02257,0
8,73.31183,1.00265,0
10,73.3113,0.336861,0
12,73.2814,-0.851973,0
14,73.3161,-5.16743,0
16,73.28332,24.2544,0
18,73.2344,124.603,0
20,73.0352,317.443,0
22,72.7126,419.213,0
24,72.2956,496.426,0
26,71.8621,543.547,0
28,71.363,585.481,0
30,70.8201,669.15,0
32,70.2553,724.628,0
34,69.7345,726.602,0
36,69.1422,766.114,0
38,68.548,708.216,0
40,67.9267,730.385,0
42,67.3525,771.882,0
44,66.7608,782.878,0
46,66.1263,787.703,0
48,65.4982,818.824,0
50,64.839,796.48,0
52,64.2363,807.276,0
54,63.6152,799.652,0
56,62.9708,797.095,0
58,62.3015,841.729,0
60,61.7078,789.129,0
62,61.0605,797.399,0
64,60.3641,814.733,0
66,59.7419,831.792,0
68,59.0482,877.894,0
70,58.38682,827.516,0
72,57.7087,840.269,0
74,57.0522,822.324,0
76,56.4179,805.265,0
78,55.7102,820.567,0
80,55.0027,838.146,0
82,54.329,872.303,0
84,53.6344,788.235,0
86,52.964,808.088,0
88,52.2402,797.698,0
90,51.5441,849.508,0
92,50.8779,843.694,0
94,50.1882,890.86,0
96,49.4901,866.611,0
98,48.7577,929.528,0
100,48.0432,943.227,0
102,47.3548,875.015,0
104,46.6238,865.799,0
106,45.86568,872.576,0
108,45.1125,868.126,0
110,44.4399,882.39,0
112,43.7062,972.534,0
114,42.9609,952.055,0
116,42.1982,981.972,0
118,41.4677,916.555,0
120,40.7243,928.166,0
122,39.9558,876.656,0
124,39.1715,890.606,0
126,38.421,964.987,0
128,37.6714,920.784,0
130,36.896,898.804,0
132,36.1252,973.351,0
134,35.2937,1030.92,0
136,34.5541,1004.45,0
138,33.7496,896.84,0
140,32.952,993.469,0
142,32.1429,977.059,0
144,31.3647,956.457,0
146,30.517,963.621,0
148,29.6681,1047.98,0
150,28.8418,1093,0
152,28.0139,1067.64,0
154,27.11073,987.92,0
156,26.3264,986.887,0
158,25.4277,1057.91,0
160,24.5933,1100.89,0
162,23.6053,1088.38,0
164,22.7874,1140.18,0
166,21.90357,1087.2,0
168,20.9322,1132.23,0
170,20.0634,1106.22,0
172,19.1946,1096.97,0
174,18.2705,1168.71,0
176,17.32626,1292.15,0
178,16.3721,1143.06,0
180,15.4758,1196.76,0
182,14.5372,1106.23,0
184,13.5126,1141.48,0
186,12.4712,1393.85,0
188,11.4734,1236.49,0
190,10.4305,1219.26,0
192,9.380183,1282.04,0
194,8.243236,1216.84,0
196,7.090296,1194.87,0
198,5.990965,1258.65,0
200,4.973994,1353.65,0
202,3.928325,1194.5,0
204,2.975154,1080.67,0
206,2.20243,920.532,0
208,1.516654,725.848,0
210,0.986513,654.926,0
212,0.636187,447.688,0
214,0.427476,383.611,0
216,0.261203,272.423,0
218,0.155924,174.738,0
220,0.089155,138.631,0
222,0.040311,91.5395,0
224,0.000924,65.782,0
226,-0.034431,49.0485,0
228,-0.090289,32.3664,0
230,-0.065038,18.8779,0
232,-0.034,10.2991,0
234,-0.035688,7.08426,0
236,-0.108755,6.62986,0
238,-0.085984,5.40491,0
240,-0.037181,3.78907,0
242,-0.062152,3.63997,0
244,-0.106841,3.80726,0
246,-0.09806,3.06554,0
248,-0.10209,2.66708,0
250,-0.11521,2.1304,0
252,-0.136478,1.88503,0
254,-0.139483,1.87285,0
256,-0.122702,2.45776,0
258,-0.098933,2.89323,0
260,-0.139,2.94695,0
262,-0.142139,2.72409,0
264,-0.119489,2.67147,0
266,-0.12829,2.69286,0
268,-0.182418,2.72304,0
270,-0.189949,2.85949,0
272,-0.176155,2.2857,0
274,-0.16537,2.20248,0
276,-0.185565,2.07773,0
278,-0.176494,1.66539,0
280,-0.144443,1.3393,0
282,-0.165578,1.51415,0
284,-0.216439,1.685,0
286,-0.176752,1.5476,0
288,-0.172649,1.47033,0
290,-0.168262,1.01279,0
292,-0.18461,0.702784,0
294,-0.207364,0.902689,0
296,-0.207897,1.03899,0
298,-0.185354,0.122164,0
300,-0.191602,0.394578,0
302,-0.238993,0.680315,0
304,-0.228254,0.712878,0
306,-0.210595,0.828331,0
308,-0.222158,1.14676,0
310,-0.246303,1.02754,0
312,-0.213648,0.442391,0
314,-0.230361,-0.009261743,0
316,-0.239109,-0.399628,0