Folder: matl-db/Non-charring/PMMA/DBI_Lund (part 2)

File: DBI-Lund_Cone_25kW_4.csv
Time,Mass,HRR,Back Surface Temperature
[s],[g],[kW/m2],[K]
0,27.74,1.21876,295.779
3,29.47264,-1.22405,295.776
6,29.203,0.388699,295.94
9,29.13442,2.21234,296.077
12,29.0171,2.65796,296.17
15,28.7416,-0.260872,296.343
18,28.6079,-1.95409,296.453
21,28.5547,-3.13269,296.61
24,28.5804,-3.16721,296.753
27,28.5448,-4.9416,297.088
30,28.5033,-4.53352,297.436
33,28.5159,-4.53829,297.941
36,28.4729,-2.41029,298.573
39,28.4841,-2.85136,299.339
42,28.4298,-3.18551,300.22
45,28.5635,-3.07559,301.667
48,28.6986,-2.8485,302.973
51,28.37887,-2.25927,304.368
54,28.3731,-2.66436,305.883
57,28.3426,-3.12252,307.535
60,28.3605,-3.44852,309.412
63,28.3498,-3.36873,311.182
66,28.3274,-3.04937,313.1
69,28.3389,-0.437372,315.143
72,28.524,0.129521,317.166
75,28.7447,-3.01337,319.283
78,28.6793,-3.06876,321.981
81,28.6821,-3.21273,324.286
84,28.6487,-0.840346,326.675
87,28.6575,-1.90642,329.039
90,28.6515,-1.68748,331.493
93,28.6515,0.224004,334.672
96,28.6571,-2.00043,337.266
99,28.6277,-2.23252,339.813
102,28.5816,-2.09714,342.415
105,28.5792,-2.26979,345.073
108,28.6041,-5.0457,347.762
111,28.5693,21.358,350.084
114,28.4174,98.5024,352.954
117,28.4682,161.892,355.958
120,28.3775,222.045,358.672
123,28.2453,276.012,361.379
126,28.1031,304.519,364.773
129,27.9514,323.734,367.601
132,27.7953,315.576,370.447
135,27.6222,328.811,373.383
138,27.4321,329.523,376.149
141,27.2819,327.911,379.4
144,27.108,329.457,381.727
147,26.93694,340.034,383.635
150,26.6931,341.831,385.165
153,26.4734,350.204,386.316
156,26.2662,356.716,387.185
159,26.04517,352.03,387.988
162,25.8858,363.917,388.547
165,25.7156,366.317,389.764
168,25.5144,363.982,390.776
171,25.3172,364.816,392.062
174,25.1715,368.956,393.762
177,25.00406,386.252,395.35
180,24.75616,379.253,397.019
183,24.5958,368.491,398.837
186,24.4054,378.19,400.738
189,24.217,381.126,403.141
192,24.0414,372.558,405.153
195,23.817,387.675,407.085
198,23.6621,388.127,409.097
201,23.4564,385.547,411.081
204,23.2315,390.492,413.17
207,23.0729,381.141,415.16
210,22.8408,401.754,417.317
213,22.6222,400.124,419.324
216,22.4557,389.893,421.403
219,22.2358,394.85,423.511
222,22.0558,401.333,425.552
225,21.8963,404.622,427.975
228,21.663,397.428,430.011
231,21.4841,399.72,432.082
234,21.23795,409.905,434.11
237,21.0378,411.24,435.901
240,20.8301,414.388,438.481
243,20.631,401.311,440.495
246,20.43833,410.796,442.512
249,20.23073,408.235,444.439
252,20.0575,415.362,446.461
255,19.8458,411.265,448.947
258,19.5848,407.105,450.965
261,19.3868,429,452.909
264,19.1949,415.933,455.011
267,18.96024,420.01,456.951
270,18.747,427.681,458.914
273,18.55167,442.124,460.838
276,18.3287,437.267,462.834
279,18.0725,447.284,464.67
282,17.8884,450.28,466.666
285,17.6256,432.46,468.569
288,17.4564,439.012,470.852
291,17.1822,457.369,472.929
294,16.9703,460.379,474.893
297,16.7514,471.345,476.791
300,16.5252,472.659,478.691
303,16.291,477.892,481.073
306,16.04559,477.925,482.86
309,15.784,484.004,484.784
312,15.5608,485.947,486.624
315,15.3093,487.502,488.494
318,15.0723,496.695,490.335
321,14.8302,496.643,492.15
324,14.5843,492.385,494.063
327,14.3583,482.323,495.95
330,14.1238,488.393,497.99
333,13.873,507.585,499.989
336,13.64387,503.483,502.163
339,13.347,506.578,504.756
342,13.1337,498.665,506.994
345,12.8932,507.329,509.182
348,12.6756,500.911,511.193
351,12.4259,511.195,513.503
354,12.14387,519.159,516.461
357,11.8909,517.01,518.843
360,11.6811,523.1,521.29
363,11.42249,522.261,523.717
366,11.1403,529.498,526.032
369,10.8934,531.956,528.467
372,10.6407,529.635,530.927
375,10.3505,549.599,533.528
378,10.1183,543.328,535.968
381,9.841914,544.535,538.501
384,9.58538,557.066,541.222
387,9.302713,568.842,544.65
390,8.964548,565.358,548.563
393,8.694399,576.508,559.587
396,8.406447,569.007,570.453
399,8.13843,568.301,578.89
402,7.866698,582.051,586.712
405,7.607607,581.391,591.467
408,7.323638,592.689,595.513
411,7.006576,600.54,598.845
414,6.740359,592.434,601.997
417,6.457897,584.675,605.038
420,6.149877,583.506,607.846
423,5.860878,585.122,610.65
426,5.590808,603.137,613.362
429,5.306792,603.693,616.826
432,5.002912,604.078,618.988
435,4.732722,591.837,622.578
438,4.451381,603.504,625.636
441,4.16012,605.856,628.791
444,3.895083,604.405,632.079
447,3.609403,599.371,635.506
450,3.310461,572.31,639.759
453,3.061481,585.092,646.038
456,2.820042,566.14,651.553
459,2.538994,562.327,657.965
462,2.286236,537.838,666.261
465,2.041269,530.099,674.544
468,1.818281,514.418,684.367
471,1.574938,465.057,696.377
474,1.382545,396.06,709.03
477,1.234096,343.924,730.124
480,1.10519,307.388,798.338
483,0.980225,280.625,833.627
486,0.839532,258.516,865.468
489,0.715866,243.145,878.321
492,0.611502,224.01,900.3
495,0.49929,197.694,911.97
498,0.450105,177.11,928.373
501,0.363897,157.33,940.345
504,0.276274,138.464,964.544
507,0.231654,118.948,969.685
510,0.179088,104.362,967.801
513,0.112382,92.2818,962.409
516,0.094224,74.986,950.052
519,0.054992,60.5678,941.235
522,0.055099,42.5753,929.774
525,0.067,35.3125,921.051
528,0.041904,24.8775,885.393
531,-0.055708,19.1322,842.391
534,-0.116602,11.8534,800.354
537,0.008092,6.3354,779.978
540,0.016854,4.45377,761.231
543,0.021063,2.76432,749.489
546,0.023553,0.845291,740.119
549,0.015649,0.287734,732.14
552,-0.004544,-1.46233,727.459
555,-0.011252,-1.3233,724.171
558,-0.014663,-0.442236,721.658
561,-0.013086,-0.412093,718.364
564,-0.000519,-1.40315,716.704
567,-0.004034,-1.91834,716.762
570,0.018082,-3.77926,716.602
573,0.018251,-3.33278,714.496
576,-0.006178,0.02982264,712.434
579,-0.002367,-0.927474,712.124
582,0.00595,-1.20813,710.441
585,0.003033,-0.518168,707.805
588,-0.011537,0.270337,706.099
591,-0.01277,1.31205,705.705
594,-0.000608,2.13232,706.903
597,-0.02926,1.7092,708.448
600,-0.033,1.16605,705.934
603,-0.040109,-0.596762,704.987
606,-0.031621,-0.325247,703.326
609,-0.042325,-1.11304,703.701
612,-0.046921,-1.07195,703.918
615,-0.039429,-0.646892,704.612
618,-0.033107,-0.05221633,704.671
621,-0.036711,-2.12266,702.83
624,-0.059226,-5.54884,701.01
627,-0.018604,-2.4502,700.784
630,-0.043754,-3.22827,701.402
633,-0.044655,-3.58308,701.555
636,-0.056065,-3.04535,701.794
639,-0.053312,-3.16258,702.647
642,-0.042162,-3.66063,702.041
645,-0.024842,-3.17926,701.064
646,-0.038529,-3.10512,700.769

File: DBI-Lund_Cone_25kW_5.csv
Time,Mass,HRR,Back Surface Temperature
[s],[g],[kW/m2],[K]
0,27.52,9.6688,0
3,27.4616,7.56833,0
6,27.4853,4.72748,0
9,27.4425,1.77912,0
12,27.4707,-0.80651,0
15,27.4664,-0.749649,0
18,27.48169,1.91313,0
21,27.4437,2.35058,0
24,27.45856,0.574743,0
27,27.46858,0.59621,0
30,27.5032,-0.145961,0
33,27.4741,-0.454788,0
36,27.4602,-2.31597,0
39,27.4818,-4.22283,0
42,27.467,-5.3318,0
45,27.5096,-4.71365,0
48,27.4744,-4.29137,0
51,27.46086,-4.02804,0
54,27.4536,-4.93542,0
57,27.4507,-5.48722,0
60,27.4679,-3.11104,0
63,27.4583,-0.682502,0
66,27.4604,0.605753,0
69,27.4297,0.282705,0
72,27.4545,-2.38427,0
75,27.4688,-2.86181,0
78,27.4294,-2.9044,0
81,27.4472,-2.47492,0
84,27.4166,-1.92807,0
87,27.4354,-0.265387,0
90,27.3918,0.165328,0
93,27.4254,-0.431004,0
96,27.4167,-0.5885174,0
99,27.3798,-0.2943,0
102,27.3986,0.3009,0
105,27.38475,0.820987,0
108,27.3679,-1.21556,0
111,27.3524,7.70961,0
114,27.3402,90.446,0
117,27.2833,193.877,0
120,27.1431,266.544,0
123,26.9713,315.917,0
126,26.834,350.8,0
129,26.6511,369.213,0
132,26.4366,375.486,0
135,26.2843,380.303,0
138,26.0707,371.468,0
141,25.8744,399.561,0
144,25.7298,409.177,0
147,25.5595,404.932,0
150,25.3488,403.708,0
153,25.2017,409.962,0
156,24.9801,413.622,0
159,24.7797,413.874,0
162,24.5873,410.363,0
165,24.4076,414.544,0
168,24.1832,410.627,0
171,23.9804,427.956,0
174,23.808,418.447,0
177,23.5888,424.186,0
180,23.3977,432.223,0
183,23.2127,431.246,0
186,22.9822,429.876,0
189,22.8042,427.611,0
192,22.5776,439.805,0
195,22.3839,431.063,0
198,22.2044,437.574,0
201,22.006,427.657,0
204,21.7642,431.218,0
207,21.5867,435.978,0
210,21.3143,445.286,0
213,21.135,440.387,0
216,20.9435,437.52,0
219,20.7243,452.828,0
222,20.5073,452.711,0
225,20.3198,434.578,0
228,20.0811,452.485,0
231,19.8922,442.237,0
234,19.6767,451.892,0
237,19.4472,456.81,0
240,19.239,465.872,0
243,19.002,456.18,0
246,18.7902,471.577,0
249,18.5805,471.969,0
252,18.3247,471.076,0
255,18.1692,462.655,0
258,17.8999,462.702,0
261,17.6902,475.443,0
264,17.4896,485.269,0
267,17.2482,482.965,0
270,17.00073,493.061,0
273,16.7734,480.443,0
276,16.54979,491.0088,0
279,16.29837,506.874,0
282,16.0697,493.273,0
285,15.8523,503.912,0
288,15.6108,507.948,0
291,15.35275,507.884,0
294,15.1307,520.975,0
297,14.8717,517.033,0
300,14.6113,533.638,0
303,14.3876,540.098,0
306,14.0823,532.431,0
309,13.8678,533.623,0
312,13.60031,539.349,0
315,13.3484,535.954,0
318,13.09813,560.247,0
321,12.8528,555.986,0
324,12.5858,553.326,0
327,12.3196,554.326,0
330,12.0721,537.432,0
333,11.8233,548.904,0
336,11.5477,559.046,0
339,11.3009,561.005,0
342,11.036,549.932,0
345,10.76599,569.49,0
348,10.4934,566.013,0
351,10.1989,571.486,0
354,9.953443,573.538,0
357,9.673684,595.049,0
360,9.376553,568.134,0
363,9.119025,592.052,0
366,8.867136,583.82,0
369,8.570344,581.643,0
372,8.285993,594.552,0
375,8.024387,615.267,0
378,7.702996,612.674,0
381,7.443895,608.36,0
384,7.186842,597.519,0
387,6.871056,593.591,0
390,6.591761,592.958,0
393,6.256361,610.626,0
396,6.029654,601.014,0
399,5.742426,603.765,0
402,5.454589,584.825,0
405,5.165136,577.651,0
408,4.896633,592.853,0
411,4.624443,602.387,0
414,4.323702,582.371,0
417,4.061535,595.839,0
420,3.784775,618.449,0
423,3.478233,606.589,0
426,3.198489,601.616,0
429,2.913698,605.926,0
432,2.661099,624.512,0
435,2.344464,600.629,0
438,2.109631,606.124,0
441,1.767441,615.728,0
444,1.488793,592.715,0
447,1.198522,555.4,0
450,0.952684,536.659,0
453,0.730506,487.395,0
456,0.496946,439.282,0
459,0.279995,437.281,0
462,0.139548,303.398,0
465,0.011367,196.213,0
468,-0.045911,139.708,0
471,-0.087647,102.375,0
474,-0.133306,76.3497,0
477,-0.139457,62.3253,0
480,-0.213875,45.7528,0
483,-0.189004,36.1543,0
486,-0.204205,27.1594,0
489,-0.219002,23.7131,0
492,-0.23438,20.8593,0
495,-0.261096,17.6203,0
498,-0.279,12.2465,0
501,-0.260586,9.32141,0
504,-0.279963,4.98957,0
507,-0.270644,3.50574,0
510,-0.298067,4.27912,0
513,-0.306614,2.98686,0
516,-0.312776,1.24804,0
519,-0.306997,1.29844,0
522,-0.311555,2.06028,0
525,-0.330845,0.175788,0
528,-0.320915,-2.67768,0
531,-0.352877,-3.18662,0
534,-0.359781,-3.10654,0
537,-0.31191,-2.34351,0
540,-0.35933,-2.47676,0
543,-0.33513,-2.95757,0
546,-0.341356,-3.28906,0
549,-0.304733,-5.79323,0
552,-0.33769,-3.03645,0
555,-0.323519,-2.19066,0
558,-0.323211,-2.19325,0
561,-0.352914,-4.41944,0
564,-0.361261,-5.57136,0
567,-0.371121,-5.39517,0
570,-0.366127,-4.91508,0
573,-0.398605,-2.19866,0
576,-0.35498,-3.04325,0
579,-0.365824,-3.35645,0
582,-0.365139,-3.15206,0
585,-0.369,-3.76645,0
588,-0.36243,-4.34636,0
591,-0.361293,-4.57254,0
594,-0.369643,-2.83231,0
597,-0.37091,-3.11063,0
600,-0.383646,-2.94367,0
603,-0.375376,-4.43305,0
606,-0.358345,-4.47327,0
609,-0.39922,-5.33712,0
612,-0.366767,-4.25813,0
613,-0.363183,-3.13879,0

File: DBI-Lund_Cone_25kW_6.csv
Time,Mass,HRR,Back Surface Temperature
[s],[g],[kW/m2],[K]
0,27.45,14.0728,0
3,27.39329,10.875,0
6,27.4048,7.41995,0
9,27.406,4.74881,0
12,27.4076,4.31644,0
15,27.3971,3.66162,0
18,27.393,3.1691,0
21,27.3925,2.66068,0
24,27.4041,1.37435,0
27,27.3773,1.89276,0
30,27.3805,3.03002,0
33,27.373,3.63259,0
36,27.3833,3.31448,0
39,27.3737,0.587529,0
42,27.3811,0.296293,0
45,27.3605,0.234809,0
48,27.3865,0.617712,0
51,27.38321,1.08505,0
54,27.3761,3.91375,0
57,27.3986,3.08674,0
60,27.3768,1.36979,0
63,27.3726,0.541421,0
66,27.3805,-1.27113,0
69,27.3666,-0.749361,0
72,27.3692,0.787932,0
75,27.36964,0.465928,0
78,27.3589,0.502196,0
81,27.3716,0.430046,0
84,27.3751,0.77562,0
87,27.3725,3.67051,0
90,27.3456,4.02996,0
93,27.3319,3.92567,0
96,27.3425,5.43462,0
99,27.3548,5.01783,0
102,27.3103,5.30752,0
105,27.3275,2.62976,0
108,27.2674,21.0436,0
111,27.2568,101.74,0
114,27.1906,181.125,0
117,27.0848,242.647,0
120,26.9281,292.572,0
123,26.7897,327.725,0
126,26.631,350.634,0
129,26.478,355.468,0
132,26.2949,359.022,0
135,26.1069,366.504,0
138,25.9523,376.968,0
141,25.7424,392.925,0
144,25.5866,396.259,0
147,25.3875,396.568,0
150,25.1862,393.157,0
153,25.0022,404.066,0
156,24.82909,410.73,0
159,24.6458,404.343,0
162,24.439,413.523,0
165,24.2535,409.004,0
168,24.0524,417.52,0
171,23.8366,416.398,0
174,23.656,415.733,0
177,23.46974,423.045,0
180,23.2651,427.321,0
183,23.0243,425.281,0
186,22.8629,427.716,0
189,22.6438,430.303,0
192,22.43407,438.781,0
195,22.2645,440.976,0
198,22.03366,437.447,0
201,21.828,443.073,0
204,21.6458,439.159,0
207,21.4207,435.529,0
210,21.2177,434.584,0
213,20.9965,445.193,0
216,20.8076,443.112,0
219,20.5727,460.234,0
222,20.3536,457.839,0
225,20.1237,445.927,0
228,19.93656,458.46,0
231,19.7013,449.16,0
234,19.51662,454.198,0
237,19.3009,452.672,0
240,19.0514,471.48,0
243,18.8393,462.924,0
246,18.6307,472.253,0
249,18.4,476.105,0
252,18.19063,487.265,0
255,17.9563,469.476,0
258,17.7084,482.88,0
261,17.5007,466.488,0
264,17.2659,495.404,0
267,17.0238,489,0
270,16.8085,487.991,0
273,16.5392,499.866,0
276,16.3222,499.781,0
279,16.0818,498.764,0
282,15.85281,493.715,0
285,15.58102,515.253,0
288,15.36724,503.373,0
291,15.1138,524.446,0
294,14.8562,526.417,0
297,14.6249,528.899,0
300,14.3662,540.41,0
303,14.0802,525.798,0
306,13.8695,534.995,0
309,13.59415,548.409,0
312,13.3667,533.133,0
315,13.0804,548.648,0
318,12.85115,559.086,0
321,12.5773,546.742,0
324,12.3147,540.945,0
327,12.0478,555.041,0
330,11.791,551.766,0
333,11.5133,571.528,0
336,11.269,554.189,0
339,11,561.926,0
342,10.7028,574.927,0
345,10.4487,584.761,0
348,10.1227,576.496,0
351,9.891623,581.07,0
354,9.610517,590.341,0
357,9.326314,604.044,0
360,9.034477,613.202,0
363,8.753522,610.574,0
366,8.459958,612.193,0
369,8.183761,598.886,0
372,7.894062,607.452,0
375,7.609122,622.572,0
378,7.302638,596.768,0
381,7.036587,588.38,0
384,6.751269,615.156,0
387,6.467213,602.776,0
390,6.199304,604.348,0
393,5.914514,593.723,0
396,5.628052,587.677,0
399,5.341012,584.538,0
402,5.078598,592.366,0
405,4.771165,608.491,0
408,4.506537,601.138,0
411,4.252389,565.183,0
414,3.944719,573.061,0
417,3.677868,564.073,0
420,3.415426,569.717,0
423,3.134351,569.879,0
426,2.903163,569.663,0
429,2.610483,542.644,0
432,2.331657,550.397,0
435,2.067211,558.218,0
438,1.816336,534.575,0
441,1.571557,523.313,0
444,1.340473,509.952,0
447,1.089433,490.404,0
450,0.881254,450.776,0
453,0.70902,389.065,0
456,0.547319,353.294,0
459,0.373108,310.263,0
462,0.242687,248.441,0
465,0.153409,190.248,0
468,0.091768,151.251,0
471,0.008319,125.677,0
474,-0.021387,112.475,0
477,-0.073605,99.926,0
480,-0.102874,94.25,0
483,-0.159991,89.1072,0
486,-0.213109,76.1567,0
489,-0.223391,68.8276,0
492,-0.262538,56.5498,0
495,-0.299655,49.719,0
498,-0.290774,41.3431,0
501,-0.310459,29.6702,0
504,-0.327471,20.7749,0
507,-0.335929,16.3064,0
510,-0.314692,13.7413,0
513,-0.339987,12.8783,0
516,-0.348828,9.6412,0
519,-0.363193,8.00282,0
522,-0.341653,6.61742,0
525,-0.356747,5.33742,0
528,-0.356657,6.35523,0
531,-0.377849,6.72025,0
534,-0.391012,9.84208,0
537,-0.371588,9.68699,0
540,-0.357163,9.31315,0
543,-0.383834,6.51732,0
546,-0.38439,6.39645,0
549,-0.377421,7.10063,0
552,-0.388539,5.61191,0
555,-0.373647,4.69829,0
558,-0.366844,4.46599,0
561,-0.374639,4.60966,0
564,-0.397841,5.46917,0
567,-0.386926,5.02177,0
570,-0.371653,4.6039,0
573,-0.379667,3.29551,0
576,-0.421735,2.19878,0
579,-0.379221,2.62831,0
582,-0.398723,3.29714,0
585,-0.412536,4.59612,0
588,-0.382325,2.19549,0
591,-0.365869,4.38645,0
594,-0.40811,4.9336,0
597,-0.386071,7.13791,0
600,-0.372581,7.47305,0
603,-0.391761,6.8283,0
606,-0.402282,4.10045,0
609,-0.371663,3.28927,0
612,-0.410947,4.9424,0
615,-0.431759,4.59402,0
618,-0.405716,4.86742,0
621,-0.353,5.5174,0
624,-0.413081,5.75137,0
627,-0.411414,4.83251,0
630,-0.359548,4.55041,0
633,-0.384321,2.11152,0
636,-0.415266,2.35035,0
639,-0.394914,2.62509,0
640,-0.366186,1.70014,0

File: DBI-Lund_Cone_50kW_1.csv
Time,Mass,HRR,Back Surface Temperature
[s],[g],[kW/m2],[K]
0,73.92,1.9288,297.256
2,73.8672,1.49626,297.25
4,74.08865,0.910551,297.185
6,74.0261,0.250522,297.092
8,73.9532,0.265585,297.017
10,73.6345,0.310308,296.934
12,73.5971,0.462362,296.902
14,73.5872,0.599139,296.835
16,73.5479,0.708425,296.807
18,73.5488,0.339581,296.823
20,73.5464,0.237368,296.9
22,73.5526,0.251508,297.055
24,73.5094,-0.624896,297.366
26,73.4673,8.66409,297.675
28,73.3793,105.754,297.921
30,73.4569,183.52,298.898
32,73.4178,291.202,299.467
34,73.0608,384.346,300.343
36,72.6375,433.97,301.584
38,72.2584,474.737,302.831
40,71.8468,511.746,304.403
42,71.37251,510.852,305.502
44,70.927,545.921,307.109
46,70.4392,552.044,309.311
48,69.9877,564.705,310.437
50,69.4945,569.339,312.56
52,69.0108,578.722,314.984
54,68.558,600.669,316.508
56,68.06961,564.71,319.777
58,67.5619,590.203,321.411
60,67.0602,641.099,323.775
62,66.5627,635.255,326.693
64,66.0624,646.332,328.553
66,65.5258,620.267,330.966
68,64.99353,616.206,333.93
70,64.459,627.208,335.835
72,63.9549,632.365,339.63
74,63.4068,647.686,341.621
76,62.8667,640.388,344.18
78,62.327,629.848,346.969
80,61.7883,654.839,348.801
82,61.2361,646.159,351.264
84,60.6508,667.922,354.045
86,60.0802,691.022,355.875
88,59.5447,677.923,359.519
90,58.9917,660.305,361.398
92,58.4347,728.922,364.068
94,57.8198,700.313,366.974
96,57.28225,683.247,368.763
98,56.6792,703.426,371.304
100,56.0755,678.717,373.839
102,55.4688,692.496,375.514
104,54.92018,706.395,378.772
106,54.3091,706.085,380.319
108,53.6844,750.12,382.617
110,53.0182,725.32,385.445
112,52.4341,706.245,387.333
114,51.83776,727.385,389.784
116,51.292,733.783,391.65
118,50.6189,738.756,394.361
120,50.0061,707.596,398.114
122,49.3711,712.397,399.95
124,48.73921,744.651,402.618
126,48.1894,751.285,405.541
128,47.5906,743.724,407.408
130,46.9625,780.933,410.169
132,46.3411,760.393,412.987
134,45.7372,750.117,414.875
136,45.1194,782.781,418.372
138,44.4549,744.96,420.096
140,43.799,747.926,422.633
142,43.133,781.676,425.351
144,42.4644,785.256,426.965
146,41.8393,795.967,429.385
148,41.1645,829.706,432.102
150,40.4838,813.181,433.866
152,39.7937,763.641,436.401
154,39.1955,785.433,439.344
156,38.5268,809.036,441.927
158,37.8743,818.323,444.85
160,37.1941,831.255,446.639
162,36.4627,821.212,449.337
164,35.8181,810.275,452.145
166,35.1145,829.338,453.925
168,34.4195,805.636,456.465
170,33.6873,858.165,459.092
172,33.0327,893.035,461.541
174,32.3651,850.123,464.233
176,31.6775,869.216,465.83
178,30.9424,892.692,468.311
180,30.218,881.59,471.039
182,29.51413,871.132,472.784
184,28.7794,901.526,475.363
186,28.0398,903.499,478.188
188,27.2771,884.551,480.912
190,26.536,946.175,483.85
192,25.7854,926.722,485.871
194,24.9823,925.205,488.868
196,24.2379,924.204,492.177
198,23.4458,923.715,494.405
200,22.6948,981.751,497.767
202,21.8995,890.513,501.592
204,21.1387,921.576,505.214
206,20.3707,954.889,509.532
208,19.578,942.421,512.468
210,18.8144,1043.62,516.937
212,18.0591,945.251,521.913
214,17.1767,992.137,526.066
216,16.2824,961.441,534.373
218,15.5413,1001.68,543.647
220,14.6936,1031.75,550.043
222,13.8549,1013.65,562.351
224,12.9776,1002.25,568.446
226,12.0821,1078.16,577.461
228,11.2018,1123.23,586.264
230,10.3471,1151.06,591.894
232,9.42643,1070.73,600.093
234,8.448062,1211.11,609.297
236,7.528164,1155.08,615.43
238,6.558101,1196.86,625.846
240,5.590996,1227.56,629.181
242,4.577536,1160.38,633.973
244,3.646769,1065.5,641.672
246,2.793928,965.922,648.452
248,1.992321,1068.89,661.812
250,1.250223,876.851,686.059
252,0.676034,722.208,709.193
254,0.177593,559.775,788.96
256,-0.218755,492.686,836.924
258,-0.535851,342.221,931.806
260,-0.785713,298.124,1012.86
262,-0.910645,238.071,1038.249
264,-1.040734,191.135,1022.36
266,-1.177744,162.069,983.205
268,-1.270172,133.006,961.373
270,-1.359586,113.299,934.83
272,-1.412449,103.022,926.27
274,-1.497391,84.777,904.55
276,-1.503216,73.2767,873.282
278,-1.550298,62.9003,855.465
280,-1.611905,54.8205,840.081
282,-1.615464,50.2791,822.934
284,-1.664653,45.2149,817.946
286,-1.742804,38.6362,807.416
288,-1.762069,34.1333,798.943
290,-1.755956,28.763,790.677
292,-1.74385,23.9551,787.976
294,-1.808529,20.3936,785.141
296,-1.777502,17.4354,782.424
298,-1.829635,15.3446,776.536
300,-1.839586,12.8316,772.56
302,-1.843225,11.0091,768.514
304,-1.842751,9.48345,762.6
306,-1.989287,7.63964,762.217
308,-2.374,5.949,761.776
310,-2.351126,4.87468,758.889
312,-1.823225,4.32897,757.53
314,-1.824255,4.02523,759.182
316,-1.846092,3.79627,758.929
318,-1.810715,3.70657,757.741
320,-1.816982,3.60412,759.228
322,-1.86361,3.49649,757.648
324,-1.878375,3.83732,764.641
326,-1.851295,3.44382,764.685
328,-1.876951,3.04744,765.201
330,-1.903617,2.63059,769.694
332,-1.890118,2.69451,770.271
334,-1.903169,2.43147,767.683
336,-1.934139,1.96474,762.101
338,-1.912895,1.69966,761.542
340,-1.908897,1.76551,763.668
342,-1.934417,1.638,764.543
344,-1.91,1.17186,767.529
346,-1.90368,1.00275,767.214
348,-1.920423,1.1939,763.634
350,-1.967344,0.555078,759.176
352,-1.941051,1.05138,755.473
353,-1.936872,1.57547,755.419

File: DBI-Lund_Cone_50kW_2.csv
Time,Mass,HRR,Back Surface Temperature
[s],[g],[kW/m2],[K]
0,73.92,2.01242,0
2,73.8605,1.72763,0
4,73.9061,1.35916,0
6,73.93073,1.05104,0
8,73.929,1.3436,0
10,73.895,0.671672,0
12,73.9396,0.220433,0
14,73.9201,0.23504,0
16,73.909,0.472693,0
18,73.8598,0.470405,0
20,73.868,-0.115303,0
22,73.8929,-2.03853,0
24,73.8653,24.1436,0
26,73.85147,62.2287,0
28,73.771,131.486,0
30,73.588,262.55,0
32,73.32073,348.884,0
34,72.9537,452.226,0
36,72.55811,461.88,0
38,72.1851,482.241,0
40,71.7609,524.872,0
42,71.3276,551.112,0
44,70.855,575.891,0
46,70.3773,599.204,0
48,69.893,591.625,0
50,69.3798,611.936,0
52,68.85937,641.193,0
54,68.3583,654.829,0
56,67.8607,662.245,0
58,67.3739,636.804,0
60,66.82858,635.674,0
62,66.3746,635.342,0
64,65.8663,629.378,0
66,65.3568,668.754,0
68,64.7869,637.721,0
70,64.29487,638.21,0
72,63.7402,641.648,0
74,63.2105,655.564,0
76,62.7009,642.673,0
78,62.1012,680.953,0
80,61.6061,683.286,0
82,61.0562,660.453,0
84,60.4969,683.346,0
86,59.899,693.364,0
88,59.3675,688.539,0
90,58.789,681.424,0
92,58.2069,662.508,0
94,57.7062,694.606,0
96,57.14891,694.948,0
98,56.5447,738.675,0
100,55.9502,715.513,0
102,55.4157,718.705,0
104,54.8377,695.27,0
106,54.277,712.667,0
108,53.6429,729.168,0
110,53.0871,747.224,0
112,52.4866,722.049,0
114,51.8829,692.687,0
116,51.28384,749.924,0
118,50.706,771.372,0
120,50.1026,707.647,0
122,49.4715,750.497,0
124,48.8697,739.009,0
126,48.247,766.604,0
128,47.63226,740.085,0
130,47.0183,764.762,0
132,46.3746,774.134,0
134,45.719,765.138,0
136,45.0663,828.149,0
138,44.4611,763.967,0
140,43.8513,776.779,0
142,43.1843,788.418,0
144,42.5165,785.144,0
146,41.8952,792.521,0
148,41.2452,805.689,0
150,40.5584,842.405,0
152,39.9372,756.019,0
154,39.2896,810.207,0
156,38.6041,804.754,0
158,37.8819,821.644,0
160,37.2655,803.206,0
162,36.5876,829.004,0
164,35.8848,845.528,0
166,35.237,849.44,0
168,34.5772,868.88,0
170,33.8761,806.266,0
172,33.1668,835.182,0
174,32.4565,904.801,0
176,31.7831,844.042,0
178,31.0594,842.684,0
180,30.3186,830.995,0
182,29.5555,870.392,0
184,28.8642,858.595,0
186,28.1218,890.016,0
188,27.35412,879.57,0
190,26.5852,937.12,0
192,25.8726,875.74,0
194,25.1372,891.946,0
196,24.3619,904.787,0
198,23.5965,962.68,0
200,22.834,957.326,0
202,22.0663,954.835,0
204,21.2693,910.339,0
206,20.5114,992.095,0
208,19.7319,999.448,0
210,18.978,924.067,0
212,18.18,917.047,0
214,17.4098,952.815,0
216,16.6252,942.88,0
218,15.8456,1016.3,0
220,14.9786,996.558,0
222,14.1554,994.719,0
224,13.4037,1000.59,0
226,12.4634,1015.36,0
228,11.6516,1118.8,0
230,10.7813,989.247,0
232,9.909084,1024.07,0
234,9.089602,1051.66,0
236,8.227741,984.145,0
238,7.344897,1139.82,0
240,6.505997,974.677,0
242,5.673478,994.026,0
244,4.86388,924.219,0
246,4.13193,870.459,0
248,3.520455,829.225,0
250,2.868227,781.406,0
252,2.243295,719.389,0
254,1.709411,571.482,0
256,1.26055,510.735,0
258,0.898699,424.668,0
260,0.654878,362.895,0
262,0.42879,315.608,0
264,0.241907,236.444,0
266,0.066337,186.077,0
268,-0.015878,160.515,0
270,-0.119539,117.791,0
272,-0.20793,98.3007,0
274,-0.238268,76.3386,0
276,-0.282847,54.1509,0
278,-0.326218,41.6719,0
280,-0.340204,27.0071,0
282,-0.358974,17.0489,0
284,-0.375029,12.5251,0
286,-0.33524,7.15438,0
288,-0.337158,6.11834,0
290,-0.364577,4.77706,0
292,-0.35355,3.60097,0
294,-0.357963,2.84574,0
296,-0.361754,2.12457,0
298,-0.390137,1.57016,0
300,-0.380202,1.30861,0
302,-0.375814,1.3121,0
304,-0.376933,1.58029,0
306,-0.38892,1.61362,0
308,-0.3722,1.38758,0
310,-0.386401,1.3464,0
312,-0.400873,1.50472,0
314,-0.444269,1.681,0
316,-0.398423,1.55526,0
318,-0.392303,1.37561,0
320,-0.420041,1.47428,0
322,-0.412354,1.76929,0
324,-0.406378,1.53077,0
326,-0.443713,1.41517,0
328,-0.424574,1.50193,0
330,-0.427261,2.48384,0
332,-0.427695,2.51478,0
334,-0.44285,2.26111,0
336,-0.426,2.23899,0
338,-0.415047,2.25129,0
340,-0.452255,2.57258,0
342,-0.491303,2.01896,0
344,-0.465554,1.4958,0
346,-0.440211,1.43716,0
348,-0.442778,1.20605,0
350,-0.479889,1.09988,0
352,-0.48828,0.789965,0
354,-0.456293,0.774797,0
356,-0.45081,0.936146,0
358,-0.493793,1.11169,0
360,-0.485379,0.221341,0
362,-0.501,0.0281044,0
363,-0.514054,0.004520147,0