Folder: matl-db/Non-charring/PMMA/Edinburgh

Note: Non-charring/PMMA/Edinburgh/README.md
# University of Edinburgh

### Test Summary
Standard cone calorimeter and tests were carried out on 100 x 100 x 6 mm slabs of cast black PMMA. Standard cone calorimeter sample holders were used to expose a 95 x 95 mm face of the material to the heating element. A Schmidt-boelter heat flux gauge was used to calibrate the conical heater to within 1% of the desired heat flux. 

The sample was wrapped with 1 layer of aluminum foil to contain the melting of the PMMA slab over the course of the experiment. The foil was in contact with an aluminum block 10 mm thick with a hole milled for a 1 mm K-type thermocouple. The thermocouple was located 5 mm from the surface that was in contact with the foil. The remaining sample holder depth was filled with ceramic paper.

Before each trial the sample mass was recorded. The sample was observed to be entirely consumed in all of the experiments. The thermocouple wire leading from the sample holder was ran between the opening of the glass doors of the cone calorimeter so that the doors could remain closed. Some slack was provided in the cable to mitigate tension on the sample, however the mass readings may have been influenced by the presence of the thermocouple wire. The reported mass includes the mass of the sample holder, aluminum block, and backing insulation. 

Difference between total mass lost and reported initial sample mass is generally within 5-10%; the highest difference observed was approximately 10 g. The difference in recorded mass loss and initial sample mass may be a result of the thermocouple wire interfering with load cell measurements.



#### Experimental Conditions
* Extraction flow rate: 24L/s nominal
* Sample Surface Area: 0.009 m2 (nominal)
* Note: Samples were 10x10cm, but supported in holders that exposed a 95 x 95 mm face of the material to the heating element
* Sample holder dimensions:
    - Square pan complying with specifications of standard ISO 5660-1
    - Retainer frame: None
* Backing Insulation: 3mm thick Superwool brand cermaic paper on the back face of an aluminum block in contact with sample. Density ~200 kg/m3; thermal conductivity 0.05 W/m/K @ 200 C, 0.3 W/m/K @ 1000 C; specific heat capacity unknown, but estimated ~1100 J/kg/K based on similar material
* Thermocouple location: a 1-mm thermocouple was placed in the aluminum block 5 mm from the surface on the block in contact with the foil (back face of the tested sample)
* Sample chamber doors were closed


###### Sample Mass and Test Heating Conditions  
|Test Name | Initial sample mass (g)| Heat Flux (kW/m2)| HeaterTemperature [C]| Time to ignition (s)|
|----------|:------:| :---: | :---:  | :---: |
|Edinburgh_Cone_25kW_1| 69.99 | 25 | 575 | 103 |
|Edinburgh_Cone_25kW_2 | 69.23 | 25 | 575 | 104 |
|Edinburgh_Cone_25kW_3 | 73.51 | 25 | 575 | 98  |
|Edinburgh_Cone_65kW_1 | 67.00 | 25 | 840 | 16  |
|Edinburgh_Cone_65kW_2 | 70.45 | 25 | 840 | 16  |
|Edinburgh_Cone_65kW_3 | 71.63 | 25 | 840 | 17  |

File: Edinburgh_Cone_25kW_2.csv
Time,Mass,HRR,Temperature Backing Centre
[s],[g],[kW/m2],[K]
0,12.2867,-0.2,289.25
5.1,51.8667,-0.3,289.25
10.1,21.9867,2.9,289.35
15.2,69.1767,3,289.35
20.3,69.1667,2.7,289.35
25.3,69.1667,2.8,289.35
30.4,69.1467,6.2,289.35
35.5,69.1167,5.6,289.45
40.6,69.0767,5.7,289.45
45.6,69.0467,2.2,289.55
50.7,69.0267,2.4,289.65
55.8,68.9667,-0.9,289.75
60.8,68.9267,-0.8,289.75
66.7,68.8567,-0.6,289.95
71,68.8767,-0.6,290.05
76.1,68.8567,-0.3,290.15
81.1,68.8167,-0.4,290.35
86.2,68.7967,-3.7,290.55
91.3,68.7467,-3.9,290.75
96.3,68.7067,-0.4,290.95
101.4,68.6367,-4.1,291.15
106.5,68.5267,-1.7,291.45
111.5,68.2267,-0.7,291.75
116.6,67.6667,-0.5,292.05
121.7,67.0567,8.8,292.45
126.8,66.4567,49.7,292.95
131.8,65.8267,104,293.55
136.9,65.2067,162.3,294.15
142,64.5667,202.4,294.85
147,63.9367,225.4,295.55
152.1,63.2967,251.5,296.25
157.2,62.6567,259.3,296.85
162.2,62.0067,275.9,297.55
168.1,61.2467,284,298.35
172.4,60.7067,291.6,299.05
177.5,60.0567,289.1,299.75
182.5,59.3967,301.7,300.45
187.6,58.7467,293.7,301.15
192.7,58.1067,296.3,301.85
197.7,57.5167,302.1,302.55
202.8,56.8667,304.6,303.15
207.9,56.2367,300.2,303.85
212.9,55.5567,312.5,304.55
218,54.8767,297.8,305.15
223.1,54.2167,314.6,305.95
228.2,53.5567,310.5,306.65
233.2,52.9467,307.3,307.35
238.3,52.2967,312,308.05
243.4,51.6267,314.4,308.75
248.4,50.9767,316.3,309.45
253.5,50.3067,302.8,310.25
258.6,49.6267,300.9,310.95
263.6,48.9467,309.8,311.75
269.5,48.1667,315.6,312.55
273.8,47.5667,319.7,313.15
278.9,46.8567,313.2,313.85
283.9,46.1667,315.8,314.65
289,45.4567,321.8,315.45
294.1,44.7467,320,316.15
299.1,44.0567,324.6,316.95
304.2,43.3367,340.7,317.65
309.3,42.5867,325.1,318.45
314.3,41.8667,330,319.15
319.4,41.1267,330.3,320.25
325.5,40.2067,336.2,320.85
330.6,39.4567,337.2,321.65
335.6,38.7167,347.9,322.35
340.7,37.9367,344.7,323.15
345.8,37.1467,352.6,323.95
350.8,36.3667,340.6,324.75
355.9,35.5767,366.4,325.55
361,34.7867,364.5,326.55
366.1,34.0267,369.6,327.55
371.8,33.1467,372.5,328.75
376.2,32.4767,368.5,329.85
381.3,31.7167,365,331.05
386.3,30.9867,368.7,332.25
391.4,30.2467,365.3,333.45
396.5,29.5267,369.9,334.75
401.5,28.7767,367,336.05
406.6,28.0567,373.1,337.45
411.7,27.3567,361,338.85
416.8,26.7067,350.8,340.25
421.8,26.0067,346.5,341.75
426.9,25.3567,345.5,343.15
432,24.7267,334.8,344.65
437,24.0667,331.4,346.15
442.1,23.4667,320.1,347.65
447.2,22.9067,308.3,349.15
452.2,22.2867,296.3,350.65
457.3,21.7067,304.4,352.25
462.4,21.1267,294.8,353.85
467.5,20.5367,283.7,355.35
473.3,19.8667,288.5,357.15
477.6,19.3567,287.1,358.65
482.7,18.7267,281.2,360.35
487.8,18.2067,284.8,361.95
492.8,17.6467,285.8,363.75
497.9,17.1167,278.6,365.45
503,16.5467,275.3,367.15
508,16.0467,267.6,368.95
513.1,15.5367,268.2,370.75
518.2,15.0567,268.6,371.25
523.2,14.6067,253.8,370.95
528.3,14.0967,253.9,372.05
533.4,13.5867,245.8,375.35
538.5,13.2367,229.5,377.85
543.5,12.8767,230.5,380.05
548.6,12.4867,216.6,382.05
553.7,12.1267,208.3,384.15
558.7,11.8067,194,386.25
563.8,11.4667,192.5,388.35
568.9,11.1567,186.6,390.45
574.9,10.8367,173.7,392.95
579,10.5967,166.4,394.85
584.1,10.3567,156,397.05
589.2,10.0967,146.6,399.35
594.2,9.83667,144.6,401.65
599.3,9.60667,137.8,403.85
604.4,9.40667,132.4,406.15
609.4,9.18667,119.9,408.35
614.5,8.99667,117.2,410.55
619.6,8.80667,109.9,412.75
624.6,8.59667,105.2,414.95
629.7,8.46667,98.9,417.15
634.8,8.29667,93.1,419.25
639.9,8.10667,88.6,421.45
644.9,7.98667,85.8,423.45
650,7.84667,82.5,425.55
655.1,7.71667,76.5,427.65
660.1,7.62667,69.6,429.65
665.2,7.49667,66,431.65
670.3,7.37667,59.1,433.65
676.1,7.28667,59.9,435.75
680.4,7.23667,56.2,437.35
685.5,7.12667,53.9,439.15
690.5,6.99667,51.2,441.05
695.6,6.86667,47.8,442.85
700.7,6.71667,48.6,444.65
705.8,6.60667,45,446.45
710.8,6.51667,42.5,448.25
715.9,6.43667,43.2,450.05
721,6.34667,42.8,451.75
726,6.28667,39.3,453.45
731.1,6.24667,40.8,455.05
736.2,6.17667,36.8,456.65
741.2,6.08667,37.9,458.25
746.3,6.01667,34.7,459.85
751.4,5.92667,31.4,461.45
756.5,5.83667,31.7,463.15
761.5,5.76667,28.9,464.65
766.6,5.70667,29.1,466.15
771.7,5.59667,29.2,467.65
777.4,5.48667,28.3,469.25
781.8,5.44667,28.6,470.65
786.9,5.37667,28.9,472.05
791.9,5.30667,29.3,473.45
797,5.27667,30.1,474.85
802.1,5.21667,26.6,476.25
807.2,5.13667,26.6,477.75
812.2,5.09667,27.3,479.15
817.3,5.04667,27.3,480.55
822.4,4.95667,24.5,481.85
827.4,4.93667,24.7,483.25
832.5,4.89667,23.6,484.65
837.6,4.88667,24.1,485.95
842.6,4.84667,24.2,487.25
847.7,4.75667,24.2,488.55
852.8,4.70667,23.9,489.85
857.9,4.70667,24.2,491.15
862.9,4.63667,24.1,492.35
868,4.62667,20.7,493.65
873.1,4.54667,20.4,494.85
878.9,4.45667,20.7,496.25
883.2,4.40667,21.2,497.35
888.3,4.34667,21,498.45
893.3,4.25667,20.9,499.75
898.4,4.15667,21,500.95
903.5,4.15667,21.3,502.15
908.6,4.06667,21.6,503.35
913.6,4.03667,17.8,504.55
918.7,4.02667,18.2,505.75
923.8,3.90667,17.7,506.85
928.8,3.83667,18.2,508.05
933.9,3.79667,17.8,509.15
939,3.72667,18.4,510.35
944,3.69667,18.4,511.45
949.1,3.65667,19.2,512.55
954.2,3.57667,18.8,513.65
959.3,3.53667,18.9,514.85
964.3,3.49667,18,515.85
969.4,3.38667,18.5,516.95
974.5,3.33667,18.2,518.05
980.3,3.28667,18.6,519.25
984.6,3.25667,15.2,520.15
989.7,3.25667,15.4,521.25
994.7,3.19667,15.2,522.25
999.8,3.13667,15.4,523.25
1004.9,3.09667,15.8,524.25
1010,3.01667,15.3,525.25
1015,2.99667,15.6,526.25
1020.1,2.89667,15.7,527.25
1025.2,2.84667,15.9,528.25
1030.2,2.82667,15.8,529.25
1035.3,2.78667,15.5,530.25
1040.4,2.75667,15.4,531.25
1045.4,2.67667,15.6,532.15
1050.5,2.65667,15.4,533.15
1055.6,2.58667,15.8,534.15
1060.7,2.54667,16.2,535.05
1065.7,2.48667,12.5,535.95
1070.8,2.46667,12.7,536.95
1075.9,2.40667,13,537.85
1081.7,2.35667,13,538.95
1086,2.34667,12.7,539.65
1091.1,2.29667,12.7,540.55
1096.1,2.24667,12.7,541.35
1101.2,2.18667,12.9,542.25
1106.3,2.18667,12.8,543.15
1111.4,2.13667,13.2,543.95
1116.4,2.14667,9.8,544.65
1121.5,2.11667,10,545.55
1126.6,2.09667,9.8,546.25
1131.6,2.04667,10.2,547.05
1136.7,1.99667,10,547.85
1141.8,1.95667,10.2,548.75
1146.8,1.88667,10.3,549.45
1151.9,1.84667,10,550.25
1157,1.80667,10.2,551.05
1162.1,1.75667,10.2,551.85
1167.1,1.70667,10,552.55
1172.2,1.68667,10.1,553.25
1177.3,1.65667,10,554.05
1183.3,1.60667,10.1,554.75
1187.4,1.60667,6.6,555.45
1192.5,1.58667,7,556.15
1197.6,1.63667,7.1,556.75
1202.6,1.57667,7.2,557.35
1207.7,1.52667,6.8,558.05
1212.8,1.49667,3.5,558.75
1217.8,1.48667,7.2,559.35
1222.9,1.45667,3.8,559.95
1228,1.43667,3.8,560.55
1233,1.40667,3.9,561.15

File: Edinburgh_Cone_65kW_1.csv
Time,Mass,HRR,Temperature Backing Centre
[s],[g],[kW/m2],[K]
0,67.01,2.9,296.75
2,67.02,2.8,296.75
4.1,66.96,2.5,296.85
6.1,66.83,-0.1,296.85
8.1,66.58,2.4,296.95
10.1,66.25,2.3,296.95
12.2,65.87,2.5,297.05
14.2,65.48,2.2,297.05
16.2,65.1,2.2,297.05
18.3,64.73,9.4,297.15
20.3,64.33,24.4,297.25
22.3,63.91,56,297.35
24.3,63.49,100.2,297.35
26.4,63.06,134.2,297.45
28.4,62.61,190.5,297.55
30.4,62.14,238.4,297.65
32.4,61.67,297.9,297.75
35.1,61.07,317.1,297.85
36.6,60.72,337.9,297.95
38.5,60.3,374.9,298.05
40.6,59.83,400.1,298.15
42.6,59.31,441.5,298.25
44.6,58.81,440.8,298.45
46.6,58.31,463,298.55
48.7,57.79,498,298.75
50.7,57.27,510.8,298.95
52.7,56.77,514.6,299.05
56.8,55.74,508.7,299.65
58.8,55.23,556.4,299.85
60.8,54.68,560.8,300.15
62.9,54.18,579.6,300.45
64.9,53.64,586.5,300.75
66.9,53.12,564.2,301.05
69,52.59,604.5,301.35
71,52.05,558.1,301.65
73,51.52,582.5,302.15
75,50.99,600.6,302.55
77.1,50.44,595.7,303.05
79.1,49.91,607.5,303.55
81.1,49.38,631.3,303.95
83.1,48.83,631.8,304.55
85.2,48.27,618.8,305.05
87.2,47.73,630.5,305.55
89.2,47.18,624.5,306.15
91.3,46.64,647.6,306.65
93.3,46.09,651.5,307.25
95.3,45.56,664.7,307.85
97.3,45.01,636.5,308.35
99.4,44.44,651.7,308.95
101.4,43.89,653.2,309.55
103.4,43.34,647.1,310.25
105.5,42.78,652.9,310.85
107.5,42.21,651.9,311.45
109.5,41.67,668.6,312.05
111.5,41.12,687.9,312.55
113.6,40.57,678.3,313.05
115.6,40,657.2,313.55
117.6,39.45,691.4,314.05
119.7,38.86,658,314.45
121.7,38.29,691.8,314.95
123.7,37.68,693.4,315.35
125.7,37.12,689.9,315.85
127.8,36.53,646.8,316.35
129.8,35.97,650,316.75
131.8,35.43,689.1,317.25
133.8,34.83,662.6,317.75
136.2,34.2,674.7,318.05
137.9,33.7,714,318.55
139.9,33.12,694.8,318.95
142,32.52,663.4,319.45
144,31.94,674,319.85
146,31.35,666.2,320.25
148,30.72,693.7,320.65
150.1,30.09,694.7,321.05
152.1,29.49,671.4,321.45
154.1,28.87,663.7,321.95
156.2,28.22,685.1,322.35
158.2,27.59,706.4,322.75
160.2,26.94,676.3,323.15
162.2,26.28,642.6,323.55
164.3,25.61,687,324.05
166.3,24.92,710.7,324.45
168.3,24.21,673.7,324.85
170.4,23.51,695.2,325.25
172.4,22.81,715.3,325.75
174.4,22.07,736.4,326.15
176.4,21.33,747.5,326.65
178.5,20.61,703.3,327.15
180.5,19.9,766.2,327.65
182.5,19.2,719.2,328.25
184.6,18.49,753.4,328.85
186.6,17.76,772.3,329.55
188.6,17.03,853.1,330.15
190.6,16.3,813.8,330.95
192.7,15.57,839.5,331.65
194.7,14.84,804.2,332.45
196.7,14.09,812.6,333.35
198.7,13.35,817,334.15
200.8,12.61,882.5,335.05
202.8,11.91,829,335.95
204.8,11.21,864.6,336.85
206.9,10.52,885.4,337.85
208.9,9.89,890.3,338.85
210.9,9.24,926.3,339.85
212.9,8.63,929.6,340.85
215,8.06,939.5,341.85
217,7.53,951.3,342.95
219,7.04,975.6,344.05
221.1,6.59,942.5,345.25
223.1,6.16,972.7,346.45
225.1,5.78,932.3,347.85
227.1,5.41,960.5,349.15
229.2,5.11,967.6,350.65
231.2,4.8,947.4,352.05
233.2,4.56,940.5,353.75
235.3,4.32,869.5,355.75
237.8,4.07,864,357.15
239.3,3.94,799.2,358.85
241.3,3.78,765.2,360.65
243.4,3.6,720.2,362.45
245.4,3.44,674.3,364.15
247.4,3.3,612.2,365.65
249.4,3.15,576.6,367.35
251.5,3,529.6,368.95
253.5,2.87,483.4,370.75
255.5,2.75,456.4,371.45
257.6,2.68,422.3,371.45
259.6,2.55,375.3,371.35
261.6,2.39,354.2,371.45
263.6,2.27,332.8,371.45
265.7,2.14,297.7,371.55
267.7,2.08,283.5,371.65
269.7,1.98,261.7,371.75
271.8,1.9,249.2,372.05
273.8,1.81,226,372.95
277.8,1.68,200.1,382.65
279.9,1.6,183.3,385.25
281.9,1.52,172.4,387.35
283.9,1.44,168.9,389.25
286,1.36,155.3,391.05
288,1.3,148.4,392.65
290,1.24,139.7,394.25
292,1.18,135.6,395.75
294.1,1.11,128.4,397.15
296.1,1.07,123.3,398.65
298.1,1.02,112.1,400.05
300.1,0.97,111.1,401.45
302.2,0.91,104.2,402.85
304.2,0.87,102.1,404.25
306.2,0.83,100.7,405.65
308.3,0.78,94.3,407.05
310.3,0.74,92.2,408.35
312.3,0.69,84.5,409.65
314.3,0.66,83.9,411.05
316.4,0.64,80.8,412.35
318.4,0.54,77.6,413.65
320.4,0.52,73.8,414.95
322.5,0.45,73.6,416.35
324.5,0.39,71.4,417.65
326.5,0.35,70,418.95
328.5,0.35,67,420.25
330.6,0.3,64.6,424.45
337.4,0.17,60.7,425.35
338.9,0.15,61.3,427.05
340.7,0.13,55.6,427.95
343.2,0.07,56.1,429.05
344.8,0.04,54.4,430.25
346.8,0.03,54.9,431.45
348.8,0.01,52.5,432.65
350.8,-0.02,49.6,433.85
352.9,-0.05,49.6,434.95
354.9,-0.08,47.9,436.15
356.9,-0.12,45.1,437.25
359,-0.13,44.5,438.45
361,-0.14,42.9,439.55
363,-0.15,39.6,440.65
365,-0.18,40.5,441.85
367.1,-0.19,37.9,442.85
369.1,-0.21,35.3,443.95
371.1,-0.25,32.8,445.05
373.2,-0.26,33.1,446.05
375.2,-0.29,30.1,447.25
377.2,-0.3,27.9,448.25
379.2,-0.29,28.1,449.35
381.3,-0.29,25.7,450.45
383.3,-0.3,25.6,451.45
385.3,-0.33,23.1,452.45
387.4,-0.36,24.2,453.55
389.4,-0.38,20.9,454.55
391.4,-0.38,21.6,455.45
393.4,-0.39,21.5,456.45
395.5,-0.41,18.3,457.45
397.5,-0.44,19,458.45
399.5,-0.45,16.1,459.45
401.5,-0.45,16.3,460.45
403.6,-0.45,16.5,461.35
405.6,-0.48,13.5,462.35
407.6,-0.5,13.7,463.25
409.7,-0.51,13.9,464.25
411.7,-0.51,11.1,465.15
413.7,-0.53,11.2,466.05
415.7,-0.54,11.1,467.05
417.8,-0.54,8.6,467.95
419.8,-0.54,8.3,468.85
421.8,-0.56,8.4,469.75
423.9,-0.56,8.6,470.65
425.9,-0.57,5.7,471.55
427.9,-0.58,6,472.45
429.9,-0.58,5.9,473.35
432,-0.59,6.1,474.25
434,-0.6,3.1,475.15
436,-0.6,3.2,475.95
438.1,-0.6,3.4,476.85
440.1,-0.61,3.7,478.05
442.1,-0.63,3.6,478.75
444.6,-0.64,0.8,479.55
446.2,-0.65,0.9,480.45
448.2,-0.65,0.7,481.25
450.2,-0.66,0.8,482.15
452.2,-0.65,0.9,482.95
454.3,-0.65,-2.1,483.85
456.3,-0.65,-1.9,484.65
458.3,-0.67,-2.1,485.55
460.4,-0.65,-2,486.35
462.4,-0.66,-2,487.25
464.4,-0.68,-1.8,488.05
466.4,-0.7,-1.7,488.95
468.5,-0.7,-4.5,489.75
470.5,-0.7,-4.6,490.55
472.5,-0.73,-4.5,491.45
474.6,-0.75,-4.3,492.35
476.6,-0.73,-4.5,493.05
478.6,-0.74,-4.2,493.95
480.6,-0.74,-4.3,494.75
482.7,-0.76,-4,495.45
484.7,-0.76,-3.7,496.35
486.7,-0.75,-3.9,497.05
488.8,-0.77,-3.8,497.95
490.8,-0.77,-3.9,498.65
492.8,-0.77,-4.1,499.45
494.8,-0.77,-7.2,500.25
496.9,-0.79,-7,500.95
497.9,-0.8,-7.3,501.35