Folder: matl-db/Non-charring/PMMA/FM (part 2)

File: FM_Gasification_25kWm2_1.csv
Time,Mass,Temperature
[s],[g],[K]
1,168.333,299.763
4,168.085,346.596
7,168.605,373.252
10,168.497,393.735
13,168.544,409.872
16,168.604,423.646
19,168.617,435.679
22,168.59,448.223
25,168.588,458.499
28,168.558,468.292
31,168.487,477.696
34,168.486,485.64
37,168.473,493.415
40,168.435,500.983
43,168.422,507.924
46,168.386,514.772
49,168.373,520.858
52,168.373,526.876
55,168.3545,531.759
58,168.325,538.541
61,168.321,542.921
64,168.309,548.916
67,168.314,553.464
70,168.301,557.965
73,168.3,563.039
76,168.303,567.371
79,168.286,572.013
82,168.27,577.038
85,168.281,581.846
88,168.272,585.55
91,168.24,589.677
94,168.216,593.505
97,168.188,597.178
100,168.188,600.238
103,168.204,604.226
106,168.153,607.31
109,168.1244,610.17
112,168.104,613.408
115,168.089,618.183
118,168.046,622.041
121,168.029,625.256
124,167.98,628.918
127,167.976,631.025
130,167.925,632.962
133,167.886,635.46
136,167.87,638.05
139,167.927,639.229
142,167.856,641.634
145,167.832,642.547
148,167.83,644.992
151,167.761,645.139
154,167.716,645.785
157,167.663,648.015
160,167.613,648.876
163,167.555,648.624
166,167.456,652.532
169,167.391,651.69
172,167.273,649.117
175,167.182,651.671
178,167.08,652.074
181,166.995,652.402
184,166.871,653.549
187,166.751,652.88
190,166.647,656.588
193,166.535,656.525
196,166.396,652.944
199,166.274,658.602
202,166.13,658.512
205,165.979,662.052
208,165.852,654.087
211,165.697,663.895
214,165.566,662.305
217,165.416,657.37
220,165.284,659.459
223,165.13,658.148
226,164.977,664.494
229,164.867,667.725
232,164.68,666.747
235,164.512,665.852
238,164.352,668.81
241,164.219,670.326
244,164.074,670.958
247,163.907,666.079
250,163.747,671.464
253,163.571,670.735
256,163.46,672.758
259,163.298,669.362
262,163.189,673.509
265,163.031,670.935
268,162.843,671.44
271,162.652,674.888
274,162.533,677.495
277,162.316,671.05
280,162.146,675.1
283,161.97,670.32
286,161.76,676.358
289,161.574,673.728
292,161.403,674.472
295,161.174,671.742
298,160.942,673.931
301,160.782,675.406
304,160.576,670.422
307,160.443,680.751
310,160.208,672.588
313,160.038,677.12
316,159.826,678.364
319,159.603,677.535
322,159.394,679.454
325,159.172,676.156
328,158.966,680.538
331,158.751,676.398
334,158.54,677.352
337,158.282,676.477
340,158.027,672.668
343,157.808,677.697
346,157.558,678.235
349,157.33,676.017
352,157.098,671.422
355,156.846,678.982
358,156.642,674.366
361,156.393,679.492
364,156.154,678.252
367,155.867,678.631
370,155.649,676.656
373,155.429,668.732
376,155.172,675.808
379,154.9485,673.182
382,154.732,674.088
385,154.512,677.552
388,154.233,673.063
391,153.971,670.698
394,153.715,678.362
397,153.455,674.574
400,153.213,679.93
403,152.929,676.922
406,152.686,674.88
409,152.4,671.371
412,152.183,665.002
415,151.906,661.541
418,151.655,675.655
421,151.36,672.891
424,151.154,672.245
427,150.925,666.03
430,150.639,668.822
433,150.394,674.947
436,150.114,664.463
439,149.858,653.203
442,149.533,651.432
445,149.263,655.835
448,148.966,655.561
451,148.663,667.468
454,148.4,665.026
457,148.108,672.009
460,147.81,663.854
463,147.557,667.899
466,147.26,670.628
469,146.952,660.082
472,146.641,663.197
475,146.382,649.753
478,146.094,665.072
481,145.784,664.107
484,145.473,663.801
487,145.2156,660.404
490,144.84,661.461
493,144.548,647.201
496,144.227,648.32
499,143.963,644.743
502,143.594,671.088
505,143.318,653.408
508,142.94,645.382
511,142.654,630.846
514,142.319,661.477
517,142.043,644.871
520,141.684,642.455
523,141.362,641.368
526,140.99,637.914
529,140.691,627.789
532,140.31,636.536
535,140.029,647.97
538,139.6353,642.735
541,139.276,634.616
544,138.909,634.584
547,138.576,643.536
550,138.291,642.254
553,137.927,627.819
556,137.567,642.644
559,137.13,628.864
562,136.763,631.23
565,136.398,631.949
568,136.114,634.699
571,135.738,627.85
574,135.387,622.557
577,134.965,631.376
580,134.624,619.176
583,134.213,623.635
586,133.885,632.577
589,133.464,628.86
592,133.149,637.985
595,132.715,631.878
598,132.396,627.025
601,131.974,629.399
604,131.657,632.723
607,131.284,637.788
610,130.905,633.065
613,130.523,619.48
616,130.139,633.63
619,129.757,625.758
622,129.403,628.594
625,129.038,621.79
628,128.6577,624.302
631,128.312,627.906
634,127.914,630.454
637,127.552,634.246
640,127.202,641.082
643,126.849,646.997
646,126.515,634.829
649,126.176,649.76
652,125.849,648.26
655,125.569,673.931
658,125.317,692.263
661,125.087,710.572
664,124.891,711.339
667,124.714,711.653
670,124.55,728.156
673,124.379,743.021
676,124.277,745.925
679,124.177,747.886
682,124.082,747.038
685,124.004,754.984
688,123.938,757.055
691,123.858,762.194
694,123.816,763.264
697,123.757,765.015
700,123.724,767.479
703,123.683,767.142
706,123.633,770.909
709,123.636,771.124
712,123.58,775.541
715,123.562,777.492
718,123.544,778.862
721,123.526,781.549
724,123.491,781.711
727,123.506,781.982
730,123.471,780.178
733,123.458,780.663
736,123.479,779.912
739,123.46,782.557
742,123.461,782.116
745,123.428,783.998
748,123.423,783.431
749,123.426,782.339

File: FM_Gasification_50kWm2_1.csv
Time,Mass,Temperature
[s],[g],[K]
1,168.01,308.497
2,168.03,311.559
3,168.013,341.899
4,167.976,373.028
5,167.982,396
6,167.988,413.855
7,167.997,429.852
8,168.101,444.394
9,168.128,457.488
10,168.181,469.802
11,168.243,481.5
12,168.254,492.436
13,168.272,502.702
14,168.309,512.242
15,168.293,521.406
16,168.311,530.287
17,168.304,538.613
18,168.318,546.266
19,168.304,554.09
20,168.274,561.944
21,168.28,569.142
22,168.272,575.994
23,168.247,582.449
24,168.255,589.031
25,168.239,595.741
26,168.233,602.192
27,168.225,607.535
28,168.223,613.36
29,168.22,618.502
30,168.215,622.588
31,168.22,625.441
32,168.206,628.817
33,168.178,635.624
34,168.161,640.21
35,168.14,644.696
36,168.117,648.419
37,168.111,650.68
38,168.068,650.368
39,168.048,650.574
40,167.991,648.523
41,167.955,647.29
42,167.923,640.794
43,167.824,644.124
44,167.766,641.842
45,167.682,637.191
46,167.597,634.626
47,167.499,629.972
48,167.421,635.717
49,167.319,640.442
50,167.222,639.951
51,167.117,633.687
52,167.014,628.287
53,166.88,626.254
54,166.783,626.272
55,166.667,628.638
56,166.5716,629.436
57,166.464,629.908
58,166.373,635.058
59,166.241,636.913
60,166.151,628.649
61,166.009,624.906
62,165.908,625.731
63,165.786,629.704
64,165.656,626.034
65,165.55,626.604
66,165.415,628.858
67,165.296,628.291
68,165.158,627.077
69,165.031,623.747
70,164.923,619.064
71,164.771,628.885
72,164.65,623.851
73,164.511,629.968
74,164.362,632.921
75,164.236,625.704
76,164.107,626.803
77,163.974,624.121
78,163.848,626.115
79,163.708,644.63
80,163.544,631.55
81,163.418,623.976
82,163.277,622.376
83,163.14,623.667
84,163.008,621.998
85,162.904,629.339
86,162.728,637.897
87,162.61,634.341
88,162.471,625.572
89,162.314,635.63
90,162.17,637.603
91,162.033,634.634
92,161.895,632.141
93,161.745,641.151
94,161.591,636.53
95,161.44,641.948
96,161.303,633.92
97,161.16,624.96
98,161.0334,638.152
99,160.865,637.674
100,160.741,630.292
101,160.585,634.455
102,160.434,633.81
103,160.298,634.479
104,160.155,629.663
105,159.992,637.992
106,159.819,640.134
107,159.66,639.582
108,159.538,635.177
109,159.347,638.847
110,159.222,641.961
111,159.081,647.097
112,158.902,642.511
113,158.753,644.008
114,158.605,639.396
115,158.462,643.655
116,158.305,630.801
117,158.161,635.798
118,158.005,632.749
119,157.845,630.171
120,157.68,639.909
121,157.538,636.85
122,157.355,623.704
123,157.207,623.921
124,157.043,622.81
125,156.909,640.199
126,156.723,635.43
127,156.583,634.617
128,156.436,631.615
129,156.262,630.719
130,156.093,639.496
131,155.947,639.196
132,155.779,630.213
133,155.613,625.667
134,155.422,628.202
135,155.266,635.208
136,155.094,624.75
137,154.946,628.219
138,154.77,633.403
139,154.616,636.19
140,154.441,637.376
141,154.263,641.02
142,154.091,641.888
143,153.938,636.527
144,153.752,636.378
145,153.597,637.646
146,153.421,640.425
147,153.235,635.87
148,153.059,629.484
149,152.873,633.425
150,152.718,642.765
151,152.532,648.192
152,152.33,642.102
153,152.164,634.368
154,151.978,632.415
155,151.803,627.195
156,151.615,633.132
157,151.46,638.631
158,151.282,632.713
159,151.094,642.796
160,150.918,642.333
161,150.698,640.227
162,150.522,642.545
163,150.357,627.415
164,150.183,629.916
165,149.975,640.159
166,149.827,643.96
167,149.641,642.484
168,149.447,640.94
169,149.276,644.309
170,149.061,639.494
171,148.89,636.782
172,148.707,630.647
173,148.497,632.269
174,148.299,634.725
175,148.107,633.049
176,147.925,637.239
177,147.72,641.874
178,147.549,641.559
179,147.371,640.849
180,147.186,638.402
181,146.978,638.363
182,146.803,636.975
183,146.62,643.399
184,146.411,635.263
185,146.215,636.925
186,146.013,642.64
187,145.814,630.65
188,145.631,633.945
189,145.401,632.392
190,145.198,642.756
191,145.008,642.722
192,144.804,645.078
193,144.607,637.303
194,144.408,637.938
195,144.217,634.221
196,144.013,638.771
197,143.784,642.593
198,143.588,642.029
199,143.35,633.405
200,143.148,637.409
201,142.919,631.756
202,142.694,635.075
203,142.468,632.283
204,142.24,624.896
205,142.048,623.952
206,141.84,625.349
207,141.618,634.562
208,141.39,639.21
209,141.161,627.168
210,140.924,633.78
211,140.727,641.194
212,140.487,632.524
213,140.265,629.818
214,140.044,624.442
215,139.805,618.582
216,139.563,621.067
217,139.347,625.394
218,139.087,634.339
219,138.854,622.179
220,138.614,619.078
221,138.372,617.885
222,138.156,629.82
223,137.905,627.907
224,137.675,631.558
225,137.449,636.578
226,137.218,619.797
227,136.983,623.738
228,136.721,615.77
229,136.47,625.253
230,136.234,626.729
231,135.97,633.657
232,135.708,635.971
233,135.453,620.985
234,135.196,616.161
235,134.932,621.342
236,134.655,631.659
237,134.381,621.068
238,134.1081,625.992
239,133.849,631.293
240,133.564,622.44
241,133.312,620.661
242,133.052,624.601
243,132.753,627.168
244,132.487,619.573
245,132.198,626.103
246,131.894,631.27
247,131.62,626.274
248,131.324,622.693
249,131.027,633.704
250,130.712,634.176
251,130.415,622.945
252,130.128,615.123
253,129.847,618.921
254,129.549,621.789
255,129.27,626.548
256,128.95,623.805
257,128.679,623.973
258,128.367,637.733
259,128.048,639.694
260,127.769,641.665
261,127.451,639.883
262,127.164,645.744
263,126.881,646.412
264,126.592,644.882
265,126.314,647.535
266,126.057,641.006
267,125.801,639.273
268,125.515,635.951
269,125.272,638.877
270,125.003,639.55
271,124.794,628.066
272,124.6125,638.108
273,124.444,643.401
274,124.276,653.14
275,124.132,670.549
276,124.003,698.746
277,123.891,737.748
278,123.749,760.453
279,123.668,763.484
280,123.564,782.203
281,123.475,786.647
282,123.401,803.887
283,123.348,790.319
284,123.262,802.401
285,123.208,805.202
286,123.171,817.28
287,123.15,826.563
288,123.093,824.777
289,123.085,838.204
290,123.049,836.395
291,123.036,842.312
292,123.022,845.732
293,123.03,846.964
294,123.002,853.735
295,122.996,851.399
296,122.982,850.004
297,122.97,853.841
298,122.951,854.529
299,122.914,856.141

File: FM_Gasification_65kWm2_2.csv
Time,Mass,Temperature
[s],[g],[K]
1,166.066,302.02
2,166.264,310.736
3,166.023,356.076
4,165.948,394.233
5,165.942,421.009
6,165.912,444.406
7,166.064,465.381
8,166.39,484.268
9,166.607,501.53
10,166.707,517.425
11,166.765,531.685
12,166.773,545.338
13,166.728,557.942
14,166.728,570.258
15,166.723,581.682
16,166.698,593.369
17,166.694,604.367
18,166.677,614.252
19,166.654,623.214
20,166.642,631.126
21,166.626,637.905
22,166.587,646.116
23,166.546,655.365
24,166.516,660.669
25,166.474,663.217
26,166.391,662.66
27,166.318,663.587
28,166.217,663.547
29,166.113,661.976
30,166.017,663.936
31,165.895,663.583
32,165.752,664.101
33,165.617,669.51
34,165.46,666.831
35,165.354,671.779
36,165.182,670.915
37,165.055,671.119
38,164.877,668.848
39,164.738,672.405
40,164.549,675.343
41,164.4,670.495
42,164.217,674.42
43,164.051,667.342
44,163.868,667.74
45,163.699,666.25
46,163.524,672.678
47,163.334,671.616
48,163.164,668.77
49,162.962,670.27
50,162.838,672.45
51,162.65,668.859
52,162.481,662.606
53,162.273,668.849
54,162.097,668.398
55,161.903,672.766
56,161.694,667.639
57,161.532,665.872
58,161.342,674.506
59,161.151,666.296
60,160.986,667.002
61,160.808,671.594
62,160.623,663.571
63,160.423,671.755
64,160.235,670.372
65,160.018,665.52
66,159.825,651.164
67,159.627,643.247
68,159.471,654.753
69,159.26,654.334
70,159.054,667.357
71,158.879,659.045
72,158.666,651.745
73,158.487,661.443
74,158.282,669.571
75,158.048,677.396
76,157.835,674.428
77,157.666,667.679
78,157.484,664.166
79,157.26,667.553
80,157.062,665.592
81,156.844,662.725
82,156.646,663.055
83,156.441,666.4
84,156.247,662.952
85,156.044,658.83
86,155.822,658.773
87,155.623,659.382
88,155.425,665.545
89,155.205,655.668
90,154.989,668.457
91,154.801,676.514
92,154.572,664.905
93,154.384,648.885
94,154.154,655.438
95,153.959,656.048
96,153.739,666.099
97,153.528,658.109
98,153.318,654.243
99,153.102,657.374
100,152.913,655.043
101,152.695,653.592
102,152.467,664.186
103,152.251,664.188
104,152.019,666.4
105,151.783,655.444
106,151.589,659.808
107,151.338,657.904
108,151.1179,655.65
109,150.887,657.553
110,150.661,660.353
111,150.435,668.519
112,150.208,664.158
113,149.976,661.601
114,149.711,657.245
115,149.499,663.682
116,149.287,661.886
117,149.039,666.265
118,148.805,667.168
119,148.586,658.309
120,148.349,656.764
121,148.076,659.593
122,147.804,661.166
123,147.519,669.687
124,147.302,669.655
125,147.118,666.104
126,146.864,664.339
127,146.638,657.627
128,146.379,660.009
129,146.09,658.67
130,145.88,655.88
131,145.633,662.659
132,145.371,661.317
133,145.134,664.809
134,144.9,656.828
135,144.651,654.147
136,144.41,649.144
137,144.146,654.749
138,143.885,650.338
139,143.618,645.066
140,143.378,648.182
141,143.11,662.9
142,142.864,667.882
143,142.594,657.99
144,142.333,650.772
145,142.076,647.207
146,141.852,647.24
147,141.618,655.689
148,141.342,668.157
149,141.086,654.589
150,140.841,653.492
151,140.564,657.161
152,140.292,652.866
153,140.016,659.92
154,139.739,660.923
155,139.461,659.133
156,139.164,657.144
157,138.907,652.924
158,138.6,650.231
159,138.328,653.122
160,138.044,658.181
161,137.772,661.938
162,137.468,663.129
163,137.192,664.545
164,136.895,673.016
165,136.588,667.156
166,136.31,654.75
167,135.988,667.499
168,135.665,668.272
169,135.308,659.122
170,134.959,653.939
171,134.653,641.362
172,134.351,650.57
173,134.058,642.905
174,133.765,640.58
175,133.417,636.209
176,133.11,641.472
177,132.753,646.496
178,132.447,648.203
179,132.084,651.818
180,131.74,665.297
181,131.404,662.888
182,131.042,666.757
183,130.67,656.848
184,130.32,656.828
185,129.951,656.692
186,129.57,649.235
187,129.227,647.926
188,128.822,655.648
189,128.463,666.078
190,128.089,657.996
191,127.711,659.017
192,127.332,657.355
193,126.936,653.268
194,126.554,638.817
195,126.181,642.367
196,125.838,647.736
197,125.492,650.35
198,125.166,655.588
199,124.834,653.315
200,124.584,649.337
201,124.31,650.056
202,124.061,669.718
203,123.904,688.255
204,123.715,709.856
205,123.581,769.551
206,123.463,792.905
207,123.361,798.082
208,123.268,832.341
209,123.185,851.672
210,123.11,851.951
211,123.042,868.712
212,122.992,879.111
213,122.928,886.409
214,122.898,886.894
215,122.851,895.401
216,122.809,904.258
217,122.796,906.889
218,122.752,917.472
219,122.734,919.951
220,122.718,922.035
221,122.673,923.577
222,122.63,925.808
223,122.602,937.166
224,122.626,939.347
225,122.612,940.809
226,122.609,948.568
227,122.589,950.737
228,122.578,948.241
229,122.547,949.057
230,122.562,949.635
231,122.511,950.161
232,122.523,952.574
233,122.489,954.599
234,122.462,956.174
235,122.4,956.575
236,122.382,958.456
237,122.361,960.036
238,122.311,962.294
239,122.339,966.4
240,122.298,966.934

File: FM_Gasification_65kWm2_3.csv
Time,Mass,Temperature
[s],[g],[K]
1,168.191,294.508
2,168.305,296.667
3,168.286,332.687
4,168.295,375.497
5,168.279,405.566
6,168.27,429.431
7,168.273,450.769
8,168.342,470.02
9,168.41,487.335
10,168.402,503.709
11,168.408,518.764
12,168.392,532.255
13,168.389,544.987
14,168.386,557.929
15,168.372,569.504
16,168.396,579.877
17,168.375,590.732
18,168.367,601.553
19,168.351,612.005
20,168.363,619.339
21,168.342,627.211
22,168.318,632.321
23,168.308,637.943
24,168.268,646.411
25,168.244,650.962
26,168.183,653.241
27,168.132,653.703
28,168.071,650.305
29,167.946,648.797
30,167.854,647.031
31,167.741,645.936
32,167.607,651.353
33,167.465,649.662
34,167.311,654.044
35,167.202,655.823
36,167.035,654.638
37,166.88,656.454
38,166.733,644.896
39,166.59,638.309
40,166.415,641.321
41,166.247,641.23
42,166.118,635.918
43,165.919,626.756
44,165.725,620.948
45,165.571,627.297
46,165.401,618.176
47,165.236,625.254
48,165.076,631.604
49,164.863,622.568
50,164.67,602.134
51,164.485,617.078
52,164.305,635.341
53,164.119,618
54,163.939,632.138
55,163.728,626.206
56,163.553,606.007
57,163.35,599.923
58,163.16,620.86
59,162.995,625.422
60,162.802,634.853
61,162.597,625.931
62,162.389,631.775
63,162.224,625.3
64,162.006,643.142
65,161.842,641.589
66,161.655,618.395
67,161.468,610.993
68,161.267,619.229
69,161.077,639.196
70,160.888,641.34
71,160.691,623.249
72,160.494,628.748
73,160.283,624.103
74,160.084,639.558
75,159.883,630.643
76,159.691,616.025
77,159.5,621.747
78,159.294,631.515
79,159.128,626.962
80,158.906,615.89
81,158.708,640.147
82,158.526,635.071
83,158.299,626.462
84,158.123,625.689
85,157.916,643.182
86,157.691,634.293
87,157.49,630.643
88,157.257,628.103
89,157.054,619.486
90,156.856,634.49
91,156.664,636.107
92,156.43,625.309
93,156.237,624.094
94,156.011,625.694
95,155.824,628.893
96,155.586,633.29
97,155.363,640.236
98,155.175,633.047
99,154.929,625.056
100,154.746,633.581
101,154.541,629.412
102,154.293,628.855
103,154.07,638.706
104,153.87,636.305
105,153.669,629.942
106,153.456,627.437
107,153.233,636.325
108,152.991,646.291
109,152.756,643.025
110,152.548,650.137
111,152.333,643.017
112,152.098,639.27
113,151.88,652.144
114,151.672,652.063
115,151.441,654.948
116,151.192,634.334
117,150.9697,628.962
118,150.725,632.543
119,150.508,642.332
120,150.273,639.861
121,150.047,643.95
122,149.824,646.625
123,149.548,650.664
124,149.337,648.85
125,149.099,653.429
126,148.865,650.742
127,148.629,639.912
128,148.373,638.673
129,148.145,648.704
130,147.889,652.892
131,147.649,638.375
132,147.407,649.133
133,147.177,645.62
134,146.931,644.929
135,146.68,640.143
136,146.422,650.397
137,146.19,646.706
138,145.929,637.214
139,145.673,633.199
140,145.434,642.644
141,145.186,644.554
142,144.912,640.279
143,144.671,650.159
144,144.387,644.933
145,144.175,637.569
146,143.884,641.34
147,143.623,654.027
148,143.351,647.696
149,143.102,645.813
150,142.834,640.521
151,142.521,648.22
152,142.281,652.58
153,142.024,654.436
154,141.762,650.525
155,141.485,649.503
156,141.226,653.217
157,140.958,647.279
158,140.65,646.364
159,140.404,652.735
160,140.128,658.243
161,139.86,646.812
162,139.543,645.872
163,139.277,645.041
164,138.996,638.149
165,138.691,634.693
166,138.404,638.341
167,138.136,637.836
168,137.831,618.978
169,137.534,619.87
170,137.264,624.783
171,136.944,622.232
172,136.621,610.028
173,136.33,616.188
174,136.014,618.608
175,135.69,621.041
176,135.386,620.384
177,135.095,618.783
178,134.753,615.863
179,134.41,613.926
180,134.116,606.678
181,133.757,614.676
182,133.458,616.526
183,133.087,627.369
184,132.769,619.68
185,132.409,626.629
186,132.039,618.551
187,131.688,623.176
188,131.315,616.515
189,130.945,621.477
190,130.56,619.364
191,130.216,618.171
192,129.828,621.74
193,129.439,614.127
194,129.052,616.682
195,128.657,618.196
196,128.285,619.805
197,127.886,620.44
198,127.461,614.865
199,127.088,610.903
200,126.709,612.727
201,126.346,622.383
202,126.019,626.239
203,125.694,618.806
204,125.324,608.83
205,125.029,623.574
206,124.748,620.712
207,124.512,625.95
208,124.326,663.79
209,124.171,708.252
210,124.042,738.803
211,123.915,758.295
212,123.825,781.439
213,123.7233,796.325
214,123.648,779.758
215,123.601,778.285
216,123.54,794.8
217,123.498,796.487
218,123.442,800.353
219,123.41,810.317
220,123.37,811.983
221,123.326,809.252
222,123.327,837.986
223,123.29,851.042
224,123.309,859.04
225,123.283,856.663
226,123.278,862.454
227,123.276,866.859
228,123.249,873.312
229,123.247,879.017
230,123.213,881.155
231,123.21,885.853
232,123.205,887.951
233,123.192,891.03
234,123.191,892.5
235,123.175,893.709
236,123.186,890.645
237,123.157,892.395
238,123.17,892.938
239,123.162,896.323
240,123.147,896.363
241,123.137,896.091
242,123.124,900.034
243,123.121,900.089
244,123.106,900.683
245,123.11,899.455
246,123.078,900.338
247,123.057,901.343
248,123.083,901.041
249,123.07,902.599
250,123.053,902.31
251,123.053,906.178
252,123.032,907.094
253,123.009,904.981
254,122.994,905.571
255,123.012,905.606
256,122.993,907.772