Folder: matl-db/Non-charring/PMMA/GIDAZE+ (part 2)

File: GIDAZE+_Cone_65kW_1.csv
Time,Mass,HRR,Back Surface Temperature 1,Back Surface Temperature 3,Back Surface Temperature 4
[s],[g],[kW/m2],[K],[K],[K]
0,71.3,-0.787434,338.453,305.852,303.711
2,71.212,-0.662397,385.574,306.043,303.693
4,71.3007,-0.954844,427.041,306.27,303.668
6,71.195,-0.943874,464.663,306.663,303.628
8,71.0107,-0.673274,496.068,307.4,303.63
10,71.1095,-0.659609,523.455,308.535,303.636
12,71.19529,-1.00627,550.937,310.204,303.649
14,71.1088,-1.00042,578.399,312.307,303.663
16,71.0117,-1.03015,632.358,314.799,303.692
18,71.0921,0.686942,709.279,317.694,303.744
20,71.09126,49.5458,726.991,320.808,303.84
22,70.9318,185.225,725.345,324.153,303.934
24,70.3451,345.129,723.996,327.697,304.086
26,70.10858,388.712,722.457,331.374,304.258
28,69.8948,425.187,719.352,335.175,304.46
30,69.4097,495.926,716.958,339.014,304.695
32,68.4167,561.06,715.135,342.896,304.945
34,68.0333,584.996,714.217,346.772,305.267
36,67.7958,649.059,713.188,350.641,305.627
38,67.3786,646.588,712.808,354.457,306.074
40,66.0919,642.782,712.89,358.233,306.528
42,65.607,647.351,712.765,361.934,306.989
44,65.4864,697.483,713.287,365.546,307.497
46,65.2855,661.971,713.476,369.053,308.152
48,64.1752,672.301,713.658,372.799,308.657
50,63.1576,679.731,713.597,376.594,308.978
52,63.1566,689.941,714.759,380.422,309.441
54,62.889,726.169,714.053,384.275,310.158
56,62.5401,666.894,714.463,388.162,310.956
58,61.204,731.707,715.047,391.964,311.443
60,60.7156,707.29,716.672,395.712,311.978
62,60.2489,712.075,718.069,399.444,312.648
64,60.062,717.944,718.421,403.13,313.474
66,59.1646,692.718,718.315,406.732,314.357
68,58.2599,710.288,719.078,410.278,315.259
70,58.05379,731.79,720.061,413.774,316.179
72,57.33562,704.447,721.32,417.321,317.11
74,57.0049,747.46,722.522,420.923,318.124
76,56.78774,687.596,723.532,424.632,319.249
78,55.6302,727.239,723.967,428.359,320.73
80,54.7487,667.365,724.733,432.192,322.395
82,54.3635,753.137,727.254,436.092,324.54
84,54.0982,744.445,728.171,440.087,327.989
86,53.4342,731.507,727.21,444.205,330.773
88,52.9026,767.03,725.859,448.446,332.495
90,52.06386,722.43,723.541,452.859,332.903
92,50.8991,727.267,720.186,457.497,332.735
94,51.1,728.8911,717.542,462.473,331.839
96,50.54586,731.551,714.216,468.073,330.002
98,49.6289,720.094,712.237,473.985,328.401
100,48.8775,740.106,710.407,479.067,327.022
102,48.4281,784.706,709.201,483.878,326.065
104,48.06048,742.859,708.059,488.656,325.457
106,47.2326,794.392,708.112,493.657,325.131
108,46.02985,725.315,708.531,498.785,325.074
110,45.9133,755.918,708.437,503.998,325.129
112,45.376,745.606,707.329,509.526,325.371
114,45.0458,790.872,706.683,515.228,325.697
116,44.1116,786.091,706.295,521.104,326.108
118,43.622,776.18,705.733,527.275,326.557
120,42.4893,821.01,705.325,533.62,327.081
122,42.3208,816.988,705.433,540.221,327.615
124,41.5216,746.568,704.95,547.333,328.219
126,40.9211,824.157,705.137,554.951,328.822
128,39.9787,837.672,703.983,562.668,329.443
130,39.2645,815.896,703.756,570.629,330.105
132,38.74388,833.533,703.941,578.729,330.753
134,38.5594,805.87,703.513,586.611,331.389
136,37.8816,839.741,703.342,595.619,332.058
138,37.0324,873.059,702.078,606.87,332.698
140,35.646,823.71,703.019,619.822,333.341
142,35.5044,827.75,703.478,637.557,334.016
144,35.1034,822.319,702.735,677.333,334.673
146,34.2007,920.319,703.309,722.431,335.341
148,32.9287,905.963,703.054,750.599,336.05
150,32.17279,873.502,702.128,758.787,336.7
152,31.9867,1015.31,702.505,765.059,337.42
154,31.007,976.818,702.257,767.542,338.111
156,29.5535,933.677,702.649,771.606,338.799
158,29.1514,976.498,702.601,772.124,339.499
160,28.8837,984.549,701.902,776.678,340.192
162,28.0763,1019.39,701.464,775.984,340.869
164,26.8461,989.476,701.147,779.872,341.631
166,25.8946,1023.48,700.726,781.759,342.299
168,25.1056,997.582,700.963,785.008,342.954
170,24.82341,981.414,701.529,786.892,343.998
172,23.5577,1086.95,703.106,787.353,345.21
174,22.3592,969.683,703.88,785.986,346.325
176,21.3089,1085.36,703.797,785.807,347.427
178,21.1734,1064.43,707.411,784.545,348.843
180,20.4042,1008.59,709.076,786.524,350.625
182,18.7886,1076.58,714.375,787.232,353.169
184,18.316,1137.7,717.159,789.555,356.775
186,17.184,994.538,719.67,789.416,360.633
188,16.7677,1099,716.807,791.087,363.909
190,15.5854,1044.01,716.506,789.534,367.025
192,14.2194,1076.52,715.528,789.503,369.995
194,13.5061,1164.96,716.313,793.035,372.828
196,13.2591,1030.86,719.068,793.052,375.89
198,12.27595,1109.23,719.568,798.038,378.988
200,10.62218,1038.76,718.97,802.453,382.224
202,10.1874,1029.64,718.582,804.411,385.895
204,9.417907,1109.56,717.545,802.45,390.002
206,8.982353,1025.09,715.302,799.673,394.651
208,8.400909,941.514,712.864,801.61,398.232
210,7.14727,952.733,713.284,804.731,401.234
212,6.490198,875.12,718.887,803.53,404.3
214,6.237791,853.621,726.991,797.965,407.31
216,5.958349,712.344,734.007,798.264,410.217
218,4.455122,731.936,741.05,797.236,413.047
220,4.351766,647.945,745.22,794.734,416.414
222,3.951566,581.776,750.139,793.658,420.047
224,3.932683,566.53,756.792,798.667,423.728
226,3.465483,514.406,764.426,801.842,428.071
228,2.92606,476.953,773.344,811.695,434.341
230,2.643131,435.954,783.384,825.351,445.259
232,2.175381,417.903,789.891,841.646,467.841
234,2.12755,377,854.847,893.598,498.052
236,2.024923,330.464,900.675,956.016,542.59
238,1.722413,300.313,939.53,999.15,570.001
240,1.338983,281.442,966.404,983.646,610.129
242,1.209009,245.536,995.825,1081.514,633.132
244,0.867627,217.201,1035.461,1046,644.589
246,0.905059,196.758,1067.636,1116.335,657.488
248,0.722342,174.818,1101.518,1156.453,665.815
250,0.435612,145.392,1060.611,1228.587,650.655
252,0.401241,125.273,978.214,1177.016,635.5
254,0.585571,118.754,903.565,1131.214,619.845
256,0.601035,98.2235,863.832,1180.088,608.672
258,0.356102,83.5354,859.933,856.212,603.852
260,0.218585,71.102,855.082,775.556,593.78
262,0.104235,59.6214,855.91,682.659,587.472
264,0.18264,52.5538,854.56,634.307,582.324
266,0.306241,44.2917,849.762,688.516,577.138
268,0.306626,36.4826,850.379,699.774,573.748
270,0.121362,28.9319,849.356,692.534,570.65
272,0.000973,26.1701,847.091,636.963,568.937
274,-0.197865,19.7719,842.069,665.86,567.274
276,0.053851,17.9686,837.012,669.249,565.713
278,0.186327,14.2553,831.201,713.254,565.173
280,0.219926,10.5474,825.163,686.548,564.515
282,0.017968,8.06905,820.932,700.393,564.166
284,0.001181,5.1008,818.727,700.477,564.389
286,-0.198639,1.39185,816.13,707.863,564.192
288,-0.1026,-1.05242,816.176,646.023,565.012
290,-0.11858,-2.49997,808.977,646.352,564.143
292,0.086949,-3.31081,804.664,672.44,563.336
294,-0.086806,-4.26572,807.022,643.454,563.739
296,-0.183506,-4.89019,802.556,695.268,563.367
298,-0.118987,-5.1671,801.137,690.183,563.852
300,-0.102577,-5.74688,806.196,683.203,564.739
302,0.000845,-5.12589,811.561,691.269,566.371
304,-0.102099,-5.07178,802.465,711.836,565.932
306,-0.181754,-5.02303,802.165,703.273,566.066
308,-0.119075,-5.44094,802.61,606.817,566.472
310,0.104137,-5.34488,796.48,584.093,566.589
312,0.104192,-5.8464,795.441,561.444,566.596
314,-0.087137,-5.77518,799.351,580.785,565.763
316,-0.196325,-6.02804,798.948,641.571,565.047
318,-0.218121,-5.89097,793.355,687.263,563.879
320,-0.102888,-6.43829,794.409,682.263,563.794
322,0.00064,-6.1338,793.571,681.24,563.787
324,-0.079102,-6.55406,796.475,685.937,564.482
326,-0.102595,-6.25114,795.138,689.987,564.605
328,-0.287496,-6.40331,802.176,698.546,565.989
330,-0.102482,-6.44981,806.733,700.399,567.487
332,-0.102285,-6.18483,806.473,676.59,568.543
334,0.000276,-6.19863,803.861,649.123,569.234
336,-0.197796,-6.17109,806.133,646.327,570.109
338,-0.286962,-6.13146,811.517,647.097,571.452
340,-0.198603,-6.03375,813.571,660.878,572.477
342,-0.017782,-6.05302,816.423,650.2,574.013
344,0.00051,-7.17299,809.926,618.61,574.587
346,-0.102323,-7.06533,798.758,656.369,574.158
348,-0.286578,-6.60743,803.627,695.291,575.171
350,-0.136985,-6.63923,801.345,665.076,576.231
352,-0.102964,-6.80106,803.898,659.352,577.497
354,0.00055,-7.05701,804.45,641.611,578.349
356,-0.184448,-7.03875,805.798,662.091,579.31
358,-0.286758,-6.55925,807.374,652.991,579.938
360,-0.303982,-6.56514,809.855,704.268,580.39
362,-0.119037,-6.64845,808.456,713.768,580.772
364,-0.015745,-6.73437,810.726,703.439,581.487
366,-0.067507,-6.53503,814.589,678.824,582.654
368,-0.19807,-6.62748,805.137,702.47,583.004
370,-0.384871,-6.49312,799.451,666.602,583.259
372,-0.233115,-6.65864,795.814,647.483,583.567
374,-0.084154,-6.54835,797.87,641.763,584.27
376,-0.000345,-6.47084,804.886,670.456,585.718
378,-0.349775,-6.46709,808.257,682.747,586.92
380,-0.319808,-6.36171,811.213,718.314,587.813
382,-0.400114,-6.69498,811.61,683.269,589.163
384,-0.135295,-6.64565,803.18,651.393,589.435
386,-0.198181,-6.29807,797.804,665.979,589.394
388,-0.103204,-6.41177,795.188,656.302,589.833
390,-0.285376,-6.68402,796.285,654.48,590.594
392,-0.198235,-6.67441,801.338,622.155,591.93
393,-0.28633,-6.79456,800.427,627.434,592.451

File: GIDAZE+_Cone_65kW_2.csv
Time,Mass,HRR,T_1,T_3,T_4
[s],[g],[kW/m2],[K],[K],[K]
0,70.5,-0.395694,340.483,305.535,304.682
2,70.5143,-0.42921,366.451,305.774,304.722
4,70.4852,-0.292403,405.348,306.113,304.759
6,70.3159,-0.27211,440.761,306.595,304.81
8,70.4869,-0.363543,475.875,307.483,304.866
10,70.5933,-0.363992,503.947,308.883,304.897
12,70.5154,-0.239913,532.512,310.889,304.964
14,70.41783,-0.271062,556.902,313.447,305.026
16,70.487,-0.280113,578.843,316.397,305.07
18,70.591,-0.272577,617.296,319.717,305.143
20,70.6059,41.1501,700.77,323.206,305.253
22,70.1174,125.268,723.063,327.178,305.375
24,69.7442,259.674,725.266,331.093,305.513
26,69.5896,382.847,722.626,335.19,305.646
28,69.3164,459.369,720.404,339.359,305.858
30,68.8152,531.897,719.374,343.611,306.07
32,67.8915,561.83,718.333,347.886,306.33
34,67.2302,586.407,717.963,352.171,306.584
36,66.9728,593.462,717.278,356.414,306.925
38,66.7127,676.299,717.065,360.64,307.277
40,66.3412,657.37,716.951,364.86,307.643
42,65.0242,663.392,716.55,369.057,308.06
44,64.8122,675.106,716.729,373.278,308.531
46,64.3933,657.369,717.177,377.629,309.118
48,64.0979,672.831,717.48,382.287,309.742
50,63.0437,681.832,717.948,387.151,310.423
52,62.7961,688.379,718.457,391.912,311.076
54,61.8436,675.565,717.967,396.468,311.461
56,61.6772,681.481,718.169,400.834,311.931
58,61.2085,691.973,718.433,405.153,312.508
60,60.9219,693.96,718.451,409.282,313.138
62,59.7764,673.743,718.686,413.414,313.791
64,58.8271,730.365,718.218,417.6,314.48
66,58.6432,695.403,718.114,421.712,315.232
68,58.3989,673.633,718.038,425.858,315.991
70,58.0789,710.465,717.719,429.891,316.756
72,56.46965,700.163,717.609,433.954,317.52
74,56.1941,717.186,717.024,437.89,318.308
76,55.88982,691.939,716.209,441.889,319.16
78,55.5942,710.276,715.869,445.929,319.969
80,55.09263,714.671,715.493,450.066,320.896
82,53.9521,727.198,715.223,454.283,321.942
84,53.2671,727.171,715.449,458.521,323.334
86,52.762,703.62,716.199,462.79,325.114
88,52.5596,685.957,718.059,467.176,327.67
90,51.9158,683.439,718.246,471.679,330.934
92,51.3273,757.164,718.011,476.377,333.45
94,50.5155,675.053,717.387,481.117,334.667
96,49.2506,718.465,716.326,485.947,334.806
98,49.4998,702.857,714.804,491.087,332.507
100,49.1674,759.819,712.355,496.366,330.402
102,48.783,710.248,710.238,501.51,328.639
104,47.2557,725.915,708.198,506.522,327.27
106,46.6491,749.204,707.32,511.68,326.351
108,46.4384,727.019,706.578,523.483,325.806
110,45.9101,751.394,706.791,523.704,325.561
112,44.9721,705.16,706.137,529.3,325.54
114,44.607,782.157,705.563,534.618,325.699
116,43.9313,728.347,705.98,540.831,325.968
118,43.3507,736.965,705.635,549.707,326.342
120,43.049,783.459,705.707,558.009,326.793
122,42.1709,788.995,705.747,563.566,327.338
124,41.14325,762.921,705.791,569.759,327.858
126,40.7903,793.361,705.819,578.423,328.479
128,40.03105,834.939,705.666,584.855,329.095
130,39.717,771.272,705.742,592.19,329.761
132,39.3439,793.55,705.183,599.675,330.421
134,37.47713,841.826,705.356,607.595,331.144
136,37.3692,800.452,705.716,616.806,331.885
138,36.4261,778.459,705.411,627.702,332.598
140,36.1199,792.104,706.166,640.114,333.343
142,35.7522,829.517,705.846,656.235,334.062
144,35.5181,828.764,704.848,675.521,334.798
146,32.972,864.071,704.627,695.98,335.56
148,33.1369,842.465,704.48,708.784,336.303
150,32.1667,889.952,704.166,719.896,337.05
152,31.8288,896.805,704.003,728.504,337.783
154,31.49963,952.424,704.951,733.749,338.53
156,30.927,939.647,704.501,734.02,339.296
158,28.9498,880.633,703.55,742.156,340.012
160,28.421,940.368,703.219,747.421,340.719
162,27.7352,1034.2,704.106,752.418,341.441
164,27.16,946.569,703.672,754.506,342.152
166,26.6511,927.246,702.37,759.419,342.853
168,25.3963,942.287,702.271,758.416,343.542
170,24.8062,1014.98,703.674,763.083,344.234
172,23.34986,1071.14,702.915,766.86,344.904
174,22.91,1073.6,701.671,768.711,345.856
176,22.2465,1016.74,700.219,771.784,347.587
178,21.8866,1034.66,700.865,771.94,349.588
180,20.4246,970.567,701.859,774.499,352.012
182,19.2424,1033.67,702.825,773.239,354.722
184,18.7414,990.416,704.72,773.272,359.805
186,17.848,1217.85,704.513,769.971,363.12
188,17.5783,1126.31,704.586,769.578,364.233
190,16.5977,1135.8,702.993,770.953,362.599
192,15.2152,1058.17,702.236,770.08,362.463
194,14.2431,1167.72,699.352,770.914,362.759
196,13.5726,1076.72,698.123,769.237,363.319
198,12.5497,1071.33,697.435,769.621,364.297
200,11.5643,1072.93,701.499,770.849,369.149
202,10.7767,1011.03,704.886,772.415,378.196
204,9.934716,1009.65,707.385,779.118,383.86
206,9.290323,1054.75,709.477,783.727,388.531
208,8.562701,927.243,709.994,788.992,392.407
210,7.044847,965.661,709.674,792.348,395.903
212,7.198521,848.19,708.36,793.871,399.081
214,6.843055,727.452,707.662,795.64,401.948
216,6.292735,699.763,707.486,794.329,404.686
218,5.937792,638.371,707.567,797.15,407.499
220,4.962205,555.831,710.418,796.895,409.601
222,4.931167,515.481,714.576,796.35,410.89
224,4.634714,496.731,718.423,793.874,411.541
226,4.464146,477.214,719.72,789.622,413.598
228,4.242318,456.948,722.538,786.108,416.889
230,3.270879,454.458,728.373,785.989,421.933
232,2.95342,416.976,731.758,788.267,427.428
234,2.841054,381.43,740.725,790.842,432.316
236,2.739056,354.242,750.988,795.481,434.349
238,2.641856,335.277,762.989,802.571,440.504
240,1.534631,311.747,787.777,813.39,452.165
242,1.562385,279.804,822.508,867.339,473.111
244,1.607711,246.858,840.539,941.383,512.625
246,1.622751,216.189,859.344,953.107,526.373
248,1.448918,201.088,881.376,954.216,536.181
250,1.237695,173.251,915.629,961.603,548.104
252,0.947361,159.549,977.878,971.426,572.83
254,1.09502,141.3,1020.509,978.313,599.933
256,1.024283,114.723,1074.41,987.547,614.996
258,0.934651,110.846,1068.796,991.561,622.102
260,0.719029,94.6615,1020.648,1071.797,622.331
262,0.616075,82.5248,929.489,1188.397,616.123
264,0.702277,74.7824,876.362,993.171,609.269
266,0.807219,65.3102,852.148,916.869,603.37
268,0.7204,53.487,822.802,851.896,597.773
270,0.631924,44.7812,810.792,824.879,593.102
272,0.429491,41.2024,806.355,777.104,589.743
274,0.49194,32.876,804.22,746.213,587.065
276,0.603036,27.0255,807.186,732.703,585.469
278,0.80712,22.7595,807.853,706.108,584.481
280,0.533727,18.9391,800.456,713.516,582.823
282,0.505519,16.554,799.12,720.482,582.11
284,0.244639,15.6828,800.148,700.113,582.142
286,0.489232,15.2906,798.867,702.417,582.33
288,0.52028,11.7675,800.538,679.858,582.517
290,0.705356,10.0167,803.153,711.508,583.208
292,0.532875,8.18891,800.174,673.329,583.38
294,0.43005,7.20729,797.579,699.134,583.476
296,0.400986,5.47639,797.89,675.817,584.214
298,0.490982,4.96095,794.419,662.695,584.638
300,0.533097,2.61551,798.215,671.07,585.375
302,0.630281,2.07862,803.241,678.27,586.064
304,0.414874,-0.098031,806.251,630.812,587.75
306,0.332343,-0.0312931,807.439,656.518,588.819
308,0.30369,-0.152723,804.918,658.864,590.126
310,0.414608,-0.011514,800.375,675.362,590.692
312,0.587375,-1.21483,795.676,674.179,591.34
314,0.445517,-1.79204,801.921,695.698,592.19
316,0.401207,-2.19841,807.739,687.494,593.12
318,0.230433,-2.90793,811.374,703.979,593.904
320,0.401728,-2.93714,813.818,696.52,594.844
322,0.519428,-3.49415,811.432,657.329,596.114
324,0.519174,-3.60165,810.045,654.374,596.699
326,0.61533,-3.54372,812.727,648.352,598.242
328,0.190396,-2.63516,814.294,627.897,599.581
330,0.215545,-2.62146,814.541,676.312,600.478
332,0.215492,-2.17886,811.745,700.079,600.639
334,0.215227,-3.1389,810.27,673.76,601.843
336,0.415036,-3.14936,812.646,654.589,603.22
338,0.428875,-3.15457,809.724,698.196,603.466
340,0.587924,-3.1472,811.438,695.082,604.153
342,0.443987,-2.90504,802.024,739.022,604.668
344,0.332918,-3.14781,798.013,708.861,604.974
346,0.230605,-3.47742,798.714,684.464,605.965
348,0.215508,-4.19654,800.112,690.991,607.16
350,0.415619,-3.73057,796.626,708.591,607.948
352,0.520168,-3.68057,799.363,693.715,608.591
354,0.60418,-3.9408,803.136,655.628,609.761
356,0.532995,-3.96817,800.667,634.552,610.22
358,0.318214,-3.84638,806.136,647.356,611.67
360,0.31905,-3.9014,803.603,620.437,612.451
362,0.305054,-3.78104,808.357,622.315,613.6
364,0.415634,-3.7512,813.018,674.39,614.615
366,0.520404,-3.96721,810.808,676.096,613.414
368,0.333559,-4.0527,804.408,668.788,611.115
370,0.216962,-4.01129,800.013,649.185,609.22
372,0.216395,-3.68294,798.383,659.917,608.647
374,0.415224,-3.6612,795.33,657.817,608.265
376,0.602545,-3.94429,797.076,687.659,608.172
378,0.263744,-3.96258,797.104,700.902,608.558
380,0.230844,-3.95385,794.336,705.705,609.168
382,0.215558,-3.95765,795.244,666.988,610.043
384,0.399658,-3.95503,787.397,678.086,610.946
386,0.488934,-3.97796,787.744,676.904,611.694
388,0.346878,-3.96045,784.584,649.082,612.8
390,0.319008,-3.86003,788.747,674.947,613.586
392,0.216265,-3.92901,796.507,713.26,614.809
394,0.305766,-3.82654,795.327,691.935,615.975
396,0.50642,-3.77434,793.749,657.372,617.174
398,0.429966,-3.84379,796.699,660.174,617.843
400,0.319901,-3.68732,788.718,628.967,618.912
402,0.216973,-3.63385,786.748,633.305,619.742
404,0.49229,-3.72767,782.656,607.634,620.556
406,0.505628,-3.79786,781.61,629.932,621.193
408,0.521083,-3.35105,783.993,650.467,622.189

File: GIDAZE+_DSC_N2_10K_1.csv
Time,Temperature,Heat Flow
[s],[K],[W/g]
0,297.95,0.00847
60,302.95,0.05
84,307.95,0.046
102,312.95,0.0674
120,317.95,0.0912
144,322.95,0.11948
162,327.95,0.14861
186,332.95,0.1644
210,337.95,0.17745
240,342.95,0.18481
270,347.95,0.18105
300,352.95,0.18199
330,357.95,0.18919
360,362.95,0.19678
390,367.95,0.20872
420,372.95,0.2136
450,377.95,0.21362
480,382.95,0.22183
510,387.95,0.2153
540,392.95,0.20834
570,397.95,0.19184
600,402.95,0.18885
630,407.95,0.20646
660,412.95,0.2199
690,417.95,0.23304
720,422.95,0.23201
750,427.95,0.2443
780,432.95,0.24153
810,437.95,0.24536
840,442.95,0.2447
870,447.95,0.23482
900,452.95,0.23573
930,457.95,0.24001
960,462.95,0.25208
990,467.95,0.26643
1020,472.95,0.2736
1050,477.95,0.2759
1080,482.95,0.2734
1110,487.95,0.28314
1140,492.95,0.31017
1170,497.95,0.33876
1200,502.95,0.35473
1230,507.95,0.36383
1260,512.95,0.36975
1290,517.95,0.37592
1320,522.95,0.38633
1350,527.95,0.38243
1380,532.95,0.37947
1410,537.95,0.3703
1440,542.95,0.36455
1470,547.95,0.35203
1500,552.95,0.33202
1530,557.95,0.30606
1560,562.95,0.29356
1590,567.95,0.2805
1620,572.95,0.27579
1650,577.95,0.29229
1680,582.95,0.28884
1710,587.95,0.22787
1740,592.95,0.0605
1770,597.95,-0.13191
1800,602.95,-0.28027
1830,607.95,-0.43178
1860,612.95,-0.63992
1890,617.95,-0.90677
1920,622.95,-1.19486
1950,627.95,-1.46047
1980,632.95,-1.62358
2010,637.95,-1.70285
2040,642.95,-1.7155
2070,647.95,-1.54299
2100,652.95,-1.25023
2130,657.95,-0.88542
2160,662.95,-0.52837
2190,667.95,-0.22416
2220,672.95,0.0456
2250,677.95,0.3751
2280,682.95,0.6911
2310,687.95,0.82859
2340,692.95,0.8722
2370,697.95,0.91239
2400,702.95,0.94284
2430,707.95,1.00515
2460,712.95,1.05808
2490,717.95,1.06607
2520,722.95,1.05807
2550,727.95,1.0616
2580,732.95,1.07124
2610,737.95,1.07038
2640,742.95,1.06661
2670,747.95,1.04974
2700,752.95,1.03489
2730,757.95,1.0198
2760,762.95,1.0044
2790,767.95,0.98735
2820,772.95,0.96805
2850,777.95,0.9475
2880,782.95,0.90748
2910,787.95,0.87184
2940,792.95,0.84214
2970,797.95,0.80913
3000,802.95,0.77601
3030,807.95,0.74815
3060,812.95,0.7181
3090,817.95,0.6973
3120,822.95,0.68301
3150,827.95,0.67915
3180,832.95,0.67978
3210,837.95,0.67612
3240,842.95,0.67022
3270,847.95,0.67189
3300,852.95,0.67372
3330,857.95,0.68057
3360,862.95,0.68294
3390,867.95,0.6865
3420,872.95,0.68359
3450,877.95,0.68339
3480,882.95,0.68481
3510,887.95,0.6929
3540,892.95,0.69277
3570,897.95,0.69727
3600,902.95,0.68674
3630,907.95,0.68935
3660,912.95,0.69808
3690,917.95,0.71665

File: GIDAZE+_DSC_N2_10K_2.csv
Time,Temperature,Heat Flow,
[s],[K],[w/g],
0,297.714,-1.23E-02,
60.5,302.714,-2.09E-02,
82.1,307.714,1.25E-02,
102,312.714,1.79E-02,
121,317.714,1.68E-03,
140,322.714,-2.10E-02,
162,327.714,-4.79E-02,
184,332.714,-6.85E-02,
209,337.714,-8.93E-02,
236,342.714,-9.96E-02,
265,347.714,-9.89E-02,
296,352.714,-0.10218,
327,357.714,-0.11026,
358,362.714,-0.11211,
389,367.714,-0.11799,
419,372.714,-0.12504,
449,377.714,-0.12366,
479,382.714,-0.12496,
510,387.714,-0.11666,
540,392.714,-9.63E-02,
569,397.714,-5.74E-02,
599,402.714,-6.23E-02,
629,407.714,-9.02E-02,
659,412.714,-0.10426,
689,417.714,-0.10795,
719,422.714,-0.11324,
749,427.714,-0.12347,
779,432.714,-0.12435,
809,437.714,-0.12447,
839,442.714,-0.11744,
869,447.714,-0.10817,
899,452.714,-0.10333,
929,457.714,-0.10774,
959,462.714,-0.11716,
989,467.714,-0.12819,
1020,472.714,-0.13007,
1050,477.714,-0.12853,
1080,482.714,-0.1291,
1110,487.714,-0.13186,
1140,492.714,-0.15303,
1170,497.714,-0.18137,
1200,502.714,-0.19899,
1230,507.714,-0.20663,
1260,512.714,-0.21326,
1290,517.714,-0.21595,
1320,522.714,-0.22702,
1350,527.714,-0.22283,
1380,532.714,-0.22091,
1410,537.714,-0.21127,
1440,542.714,-0.19955,
1470,547.714,-0.17856,
1500,552.714,-0.16323,
1530,557.714,-0.13114,
1560,562.714,-0.10024,
1590,567.714,-5.48E-02,
1620,572.714,1.76E-03,
1650,577.714,6.59E-02,
1680,582.714,0.15727,
1710,587.714,0.28739,
1740,592.714,0.43881,
1770,597.714,0.60125,
1800,602.714,0.75221,
1830,607.714,0.86603,
1860,612.714,1.03435,
1890,617.714,1.25941,
1920,622.714,1.53643,
1950,627.714,1.78649,
1980,632.714,1.95531,
2010,637.714,2.05117,
2040,642.714,2.08211,
2070,647.714,1.92227,
2100,652.714,1.58788,
2130,657.714,1.19408,
2160,662.714,0.81505,
2190,667.714,0.50233,
2220,672.714,0.25072,
2250,677.714,-0.22635,
2280,682.714,-0.57908,
2310,687.714,-0.65991,
2340,692.714,-0.68538,
2370,697.714,-0.71429,
2400,702.714,-0.74915,
2430,707.714,-0.81509,
2460,712.714,-0.86925,
2490,717.714,-0.86948,
2520,722.714,-0.86426,
2550,727.714,-0.86083,
2580,732.714,-0.84643,
2610,737.714,-0.83859,
2640,742.714,-0.83236,
2670,747.714,-0.81463,
2700,752.714,-0.78958,
2730,757.714,-0.7584,
2760,762.714,-0.7263,
2790,767.714,-0.69084,
2820,772.714,-0.65462,
2850,777.714,-0.62,
2880,782.714,-0.57853,
2910,787.714,-0.53265,
2940,792.714,-0.49423,
2970,797.714,-0.45808,
3000,802.714,-0.41994,
3030,807.714,-0.40496,
3060,812.714,-0.39458,
3090,817.714,-0.39634,
3120,822.714,-0.38506,
3150,827.714,-0.37025,
3180,832.714,-0.36556,
3210,837.714,-0.3633,
3240,842.714,-0.36382,
3270,847.714,-0.3663,
3300,852.714,-0.36978,
3330,857.714,-0.3684,
3360,862.714,-0.37283,
3390,867.714,-0.37287,
3420,872.714,-0.37716,
3450,877.714,-0.37904,
3480,882.714,-0.38723,
3510,887.714,-0.37487,
3540,892.714,-0.39367,
3570,897.714,-0.39625,
3600,902.714,-0.39004,
3630,907.714,-0.38763,
3660,912.714,-0.39519,
3690,917.714,-0.41532,
,,,