Folder: matl-db/Non-charring/PMMA/GIDAZE+

Note: README.md
# matl-db
#### Welcome to the MaCFP Condensed Phase Subgroup database!

The MaCFP Condensed Phase Working Group was organized to enable the fire safety science research community to make significant progress towards establishing a common framework for the selection of experiments and the methodologies used to analyze these experiments when developing pyrolysis models. Key objectives of this effort include:
- Cataloguing current approaches used to parameterize pyrolysis models;
- Developing standard data set formats for experimental data on pyrolysis;
- Developing requirements for data set quality and establishing a data review committee;
- Quantifying the inter-laboratory variability for comparable experimental datasets; and
- Assessing the impact of the variability of model parameters on fire growth predictions

#### In preparation for MaCFP-4, please read the following:

[Guidelines for Participation in the MaCFP-4 Workshop (2026)](https://github.com/MaCFP/macfp-db/releases/download/macfp-4.0/MaCFP-4_Guidelines_for_Participation.pdf)

[Presentation of Target Experiments and Modeling Guidelines for the upcoming MaCFP-4 Workshop (meeting recording and presentation slides)](https://github.com/MaCFP/macfp-db/releases/tag/macfp-4.0)

Please visit our [wiki pages](https://github.com/MaCFP/matl-db/wiki/How-to-Contribute) for additional details, including how to contribute (experimentalists and modelers).

#### Presentations for previous MaCFP workshops can be found on online:

[**MaCFP-3 (Tsukuba, 2023)**](https://github.com/MaCFP/macfp-db/releases/tag/macfp-3.0)

[**MaCFP-2 (Waterloo, 2021)**](https://github.com/MaCFP/matl-db/releases/tag/v1.1.0)

[MaCFP-2 Preliminary Summary of Experimental Measurements](https://github.com/MaCFP/matl-db/releases/tag/v1.0.0)


#### Virtual Discusion Forum
If you have questions regarding any of the activities or measurement data of the MaCFP Condensed Subgroup, please [start a discussion post](https://github.com/MaCFP/matl-db/discussions). The purpose of this forum is to facilitate data sharing and model development to improve computational predictions of thermal degradation and pyrolysis in fire.

If you find problems with the database or if you have suggestions for improvement, please submit an [Issue](https://github.com/MaCFP/matl-db/issues).

File: GIDAZE+_Cone_25_2.csv
Time,Mass,HRR,T_1,T_3,T_4
[s],[g],[kW/m2],[K],[K],[K]
0,67,0.650939,315.111,300.725,301.148
4,67.2967,0.57986,354.478,300.8,301.198
8,67.0149,0.965393,386.157,300.925,301.254
12,67.1138,0.632052,414.551,301.15,301.31
16,67.11926,1.72507,436.667,301.67,301.337
20,67.1016,1.77592,455.147,302.648,301.401
24,67.1191,2.07512,468.847,304.218,301.487
28,67.0011,1.82098,483.305,306.197,301.603
32,67.2025,3.0098,490.603,308.615,301.755
36,67.015,2.87141,504.065,311.404,301.944
40,67.1055,3.86884,512.807,314.508,302.165
44,67.01561,4.01256,517.687,317.879,302.446
48,66.9057,3.61139,521.126,321.434,302.766
52,67.2938,3.77359,525.566,325.089,303.128
56,66.9196,3.68476,524.243,328.763,303.54
60,67.1072,2.85817,528.711,332.469,304.008
64,67.1328,2.57364,534.87,336.288,304.561
68,66.9057,1.68554,536.669,340.08,305.102
72,67.2037,1.37491,538.938,343.859,305.664
76,67.0022,1.46107,543.801,347.656,306.33
80,67.1071,1.62982,550.588,351.401,307.174
84,67.1065,0.451586,553.572,355.042,308.162
88,66.9891,0.582041,549.064,358.562,308.937
92,67.2193,0.39055,550.977,362.038,309.736
96,67.0032,0.748401,554.353,365.415,310.57
100,67.1071,0.502546,555.65,368.649,311.487
104,67.0033,0.475388,557.67,371.683,312.624
108,66.97482,0.625702,556.372,374.607,314.93
112,67.2047,1.42384,562.93,377.344,316.537
116,66.70013,93.9477,559.715,379.57,318.547
120,66.6158,197.578,675.975,382.091,320.732
124,65.6563,284.478,726.19,383.636,322.671
128,65.4129,330.114,722.166,385.643,324.576
132,64.7982,339.117,716.773,388.911,329.506
136,64.4156,350.169,713.175,391.488,334.16
140,63.5024,381.525,708.054,393.961,336.796
144,63.2238,386.449,705.16,396.679,338.286
148,62.4047,385.459,700.425,399.284,335.274
152,62.02501,380.703,696.39,401.104,331.15
156,61.3224,378.785,692.864,406.129,327.716
160,60.5085,382.269,690.447,410.303,325.873
164,60.0105,391.513,688.011,414.096,325.95
168,59.5074,395.74,686.773,417.761,326.186
172,58.9064,396.357,685.903,421.439,326.385
176,58.0995,406.552,685.228,425.032,326.79
180,57.7056,399.322,685.831,428.718,327.188
184,56.4812,394.859,684.577,432.335,328.002
188,56.3832,383.873,684.213,435.913,328.915
192,55.1923,395.435,683.767,439.491,329.782
196,54.7702,406.18,682.27,443.055,330.635
200,54.4891,389.604,681.489,446.657,331.367
204,53.4701,389.364,682.388,450.206,332.319
208,53.0045,399.873,682.711,453.713,333.279
212,51.8096,425.111,681.984,457.249,334.238
216,51.4565,408.778,680.892,460.725,335.199
220,50.9922,402.217,680.179,464.238,336.192
224,50.1708,406.768,680.251,467.758,337.07
228,49.6001,417.979,679.854,471.241,338.023
232,48.49916,453.492,680.253,474.741,338.873
236,48.2774,427.173,679.286,478.122,339.678
240,47.3543,423.322,679.113,481.644,340.5
244,46.9772,430.345,678.281,485.082,341.247
248,45.8726,419.955,677.012,488.539,342.005
252,45.5673,434.123,676.812,491.97,342.729
256,44.6643,450.217,675.805,495.44,343.178
260,44.1702,449.986,675.221,499.06,343.722
264,42.7786,430.348,674.483,502.571,344.445
268,42.5555,465.944,675.367,506.029,345.252
272,41.1471,475.797,673.898,509.562,346.126
276,40.8435,456.599,672.788,512.941,346.925
280,40.259,473.414,671.565,516.355,347.81
284,39.4456,480.314,671.85,519.93,348.551
288,38.8627,481.635,671.361,523.278,349.454
292,37.33,489.149,671.265,526.597,350.233
296,37.0495,489.165,670.205,530.114,351.033
300,35.949,529.157,670.046,536.287,351.885
304,35.3493,482.396,668.798,537.677,352.82
308,34.5406,502.635,670.02,540.1,353.684
312,33.3986,505.36,670.537,543.383,354.666
316,33.0156,521.748,670.173,546.451,355.82
320,31.5728,505.507,670.153,549.705,357.049
324,31.09847,483.743,667.424,553.089,358.061
328,30.0273,506.532,667.592,556.474,358.986
332,29.1086,509.277,667.1,559.833,359.996
336,28.50918,515.873,666.792,563.225,361.126
340,28.1236,472.759,667.195,566.531,362.326
344,26.6445,516.608,667.747,570.676,363.659
348,25.9638,512.846,668.305,572.737,365.013
352,24.9713,510.138,669.482,575.617,366.382
356,23.7857,506.414,674.008,578.037,367.913
360,23.72345,517.501,685.815,580.011,369.434
364,22.4916,497.653,698.344,581.601,371.017
368,21.8028,512.936,717.447,583.692,373.17
372,20.96955,558.025,739.176,584.973,376.213
376,19.597,518.667,752.361,583.396,386.116
380,19.49801,480.148,760.982,585.133,408.549
384,18.1055,443.943,765.561,585.609,426.155
388,17.8793,420.456,768.695,587.244,433.387
392,17.40638,436.241,770.239,589.949,433.107
396,16.2095,410.309,771.755,591.699,430.921
400,15.9823,392.334,773.281,594.691,430.983
404,15.1814,404.094,772.591,598.708,431.272
408,14.2879,380.543,774.051,602.448,434.952
412,13.9919,399.199,776.252,605.545,435.766
416,12.9863,372.138,776.897,609.045,435.914
420,12.5296,383.725,777.23,611.791,435.71
424,12.2847,369.476,778.006,618.587,438.556
428,11.1816,378.549,778.657,621.094,440.782
432,10.85249,363.929,781.641,627.868,442.559
436,10.5817,356.918,787.23,632.327,443.908
440,9.164241,369.366,791.281,640.123,445.42
444,8.861685,335.493,793.876,647.08,446.81
448,8.676429,369.76,797.82,652.725,446.354
452,7.89041,364.521,798.241,658.206,446.746
456,7.172296,362.001,800.464,662.859,448.525
460,6.959167,356.645,802.683,670.29,449.89
464,5.750146,331.082,804.739,676.648,451.581
468,5.550324,316.951,804.404,675.687,456.711
472,5.34965,270.949,807.026,677.443,456.855
476,4.635798,245.556,810.146,678.949,458.214
480,4.234313,229.24,814.794,679.634,459.629
484,4.144334,203.705,820.412,680.108,461.22
488,3.557907,183.401,826.502,680.665,465.404
492,3.427515,168.753,842.791,681.115,471.396
496,3.345077,161.87,847.541,678.695,475.046
500,2.840973,154.205,853.927,676.789,475.594
504,2.625201,145.151,885.322,676.075,473.458
508,2.639606,135.977,968.625,674.089,470.166
512,2.05436,122.363,1083.093,675.974,475.171
516,2.053301,109.512,1163.461,675.549,470.719
520,1.95177,96.2121,1204.498,673.125,472.844
524,1.646193,87.1561,1133.402,671.721,480.06
528,1.737909,79.4884,812.687,672.212,485.116
532,1.737945,66.9355,710.039,676.804,486.218
536,1.248898,57.668,657.808,686.654,486.144
540,1.049303,46.764,622.234,703.506,485.667
544,1.338782,42.9507,596.414,739.404,485.081
548,1.261876,34.3737,583.997,955.042,485.321
552,1.010904,28.3961,572.301,973.371,484.994
556,1.137369,23.0914,565.447,655.12,485.288
560,1.033908,20.0969,571.727,618.846,484.839
564,0.917312,18.6094,564.568,619.676,485.016
568,1.136276,13.7991,546.621,589.805,485.191
572,0.75897,9.49148,534.134,568.094,485.769
576,0.931088,4.23464,538.578,577.27,486.481
580,0.960435,1.32294,529.405,573.086,487.027
584,0.729331,1.88077,531.793,571.022,488.174
588,0.931583,0.970287,536.185,540.372,489.513
592,0.834765,0.216877,531.835,572.853,490.504
596,0.729637,-1.3221,541.335,574.718,492.04
600,1.019602,-3.13626,549.509,572.475,493.607
604,0.931816,-3.64197,546.608,559.252,495.107
608,0.917741,-3.79996,546.373,575.595,496.515
612,0.932166,-3.82536,538.129,585.989,497.898
616,0.745684,-3.87999,544.131,550.872,499.68
620,0.918085,-4.15504,539.314,573.811,501.345
624,0.729881,-3.95201,535.75,576.222,502.575
628,0.8356,-4.09166,531.159,587.171,503.899
632,0.863511,-4.91366,546.64,582.93,505.521
636,0.730779,-4.78491,548.266,553.636,506.699
640,1.020382,-4.30495,548.614,558.8,508.442
644,0.730973,-4.39121,545.134,581.362,509.88
648,0.902251,-3.78218,544.967,585.708,511.664
652,0.960888,-3.64726,538.956,592.221,513.041
656,0.745244,-3.57882,551.809,553.311,515.001
660,0.932372,-3.49581,537.156,585.466,515.847
664,0.946598,-3.52094,532.119,588.703,517.234
668,0.646533,-3.22464,546.796,585.77,518.902
672,0.917042,-3.27989,549.966,565.056,520.212
676,0.746094,-2.83965,544.162,589.157,521.333
680,0.806552,-4.08486,544.255,584.322,522.664
684,1.021047,-3.86573,531.778,585.374,523.626
688,0.6482,-3.97172,529.727,587.534,524.88
692,0.919299,-3.85089,536.655,588.821,526.126
696,0.746048,-3.56392,538.452,600.467,527.521
700,0.716795,-4.28399,542.482,600.048,529.008
704,0.835363,-4.1575,541.643,587.491,530.044
708,0.849649,-4.2522,530.605,604.721,530.912
712,0.647363,-4.27551,527.408,608.673,532.051
716,0.91788,-4.20053,539.906,592.069,533.609
720,0.744144,-4.12873,532.515,581.357,534.824
721,0.647084,-4.45839,529.902,593.18,535.162

File: GIDAZE+_Cone_25kW_2.csv
Time,Mass,HRR,Back Surface Temperature 1,Back Surface Temperature 3,Back Surface Temperature 4
[s],[g],[kW/m2],[K],[K],[K]
0,67,0.650939,315.111,300.725,301.148
4,67.2967,0.57986,354.478,300.8,301.198
8,67.0149,0.965393,386.157,300.925,301.254
12,67.1138,0.632052,414.551,301.15,301.31
16,67.11926,1.72507,436.667,301.67,301.337
20,67.1016,1.77592,455.147,302.648,301.401
24,67.1191,2.07512,468.847,304.218,301.487
28,67.0011,1.82098,483.305,306.197,301.603
32,67.2025,3.0098,490.603,308.615,301.755
36,67.015,2.87141,504.065,311.404,301.944
40,67.1055,3.86884,512.807,314.508,302.165
44,67.01561,4.01256,517.687,317.879,302.446
48,66.9057,3.61139,521.126,321.434,302.766
52,67.2938,3.77359,525.566,325.089,303.128
56,66.9196,3.68476,524.243,328.763,303.54
60,67.1072,2.85817,528.711,332.469,304.008
64,67.1328,2.57364,534.87,336.288,304.561
68,66.9057,1.68554,536.669,340.08,305.102
72,67.2037,1.37491,538.938,343.859,305.664
76,67.0022,1.46107,543.801,347.656,306.33
80,67.1071,1.62982,550.588,351.401,307.174
84,67.1065,0.451586,553.572,355.042,308.162
88,66.9891,0.582041,549.064,358.562,308.937
92,67.2193,0.39055,550.977,362.038,309.736
96,67.0032,0.748401,554.353,365.415,310.57
100,67.1071,0.502546,555.65,368.649,311.487
104,67.0033,0.475388,557.67,371.683,312.624
108,66.97482,0.625702,556.372,374.607,314.93
112,67.2047,1.42384,562.93,377.344,316.537
116,66.70013,93.9477,559.715,379.57,318.547
120,66.6158,197.578,675.975,382.091,320.732
124,65.6563,284.478,726.19,383.636,322.671
128,65.4129,330.114,722.166,385.643,324.576
132,64.7982,339.117,716.773,388.911,329.506
136,64.4156,350.169,713.175,391.488,334.16
140,63.5024,381.525,708.054,393.961,336.796
144,63.2238,386.449,705.16,396.679,338.286
148,62.4047,385.459,700.425,399.284,335.274
152,62.02501,380.703,696.39,401.104,331.15
156,61.3224,378.785,692.864,406.129,327.716
160,60.5085,382.269,690.447,410.303,325.873
164,60.0105,391.513,688.011,414.096,325.95
168,59.5074,395.74,686.773,417.761,326.186
172,58.9064,396.357,685.903,421.439,326.385
176,58.0995,406.552,685.228,425.032,326.79
180,57.7056,399.322,685.831,428.718,327.188
184,56.4812,394.859,684.577,432.335,328.002
188,56.3832,383.873,684.213,435.913,328.915
192,55.1923,395.435,683.767,439.491,329.782
196,54.7702,406.18,682.27,443.055,330.635
200,54.4891,389.604,681.489,446.657,331.367
204,53.4701,389.364,682.388,450.206,332.319
208,53.0045,399.873,682.711,453.713,333.279
212,51.8096,425.111,681.984,457.249,334.238
216,51.4565,408.778,680.892,460.725,335.199
220,50.9922,402.217,680.179,464.238,336.192
224,50.1708,406.768,680.251,467.758,337.07
228,49.6001,417.979,679.854,471.241,338.023
232,48.49916,453.492,680.253,474.741,338.873
236,48.2774,427.173,679.286,478.122,339.678
240,47.3543,423.322,679.113,481.644,340.5
244,46.9772,430.345,678.281,485.082,341.247
248,45.8726,419.955,677.012,488.539,342.005
252,45.5673,434.123,676.812,491.97,342.729
256,44.6643,450.217,675.805,495.44,343.178
260,44.1702,449.986,675.221,499.06,343.722
264,42.7786,430.348,674.483,502.571,344.445
268,42.5555,465.944,675.367,506.029,345.252
272,41.1471,475.797,673.898,509.562,346.126
276,40.8435,456.599,672.788,512.941,346.925
280,40.259,473.414,671.565,516.355,347.81
284,39.4456,480.314,671.85,519.93,348.551
288,38.8627,481.635,671.361,523.278,349.454
292,37.33,489.149,671.265,526.597,350.233
296,37.0495,489.165,670.205,530.114,351.033
300,35.949,529.157,670.046,536.287,351.885
304,35.3493,482.396,668.798,537.677,352.82
308,34.5406,502.635,670.02,540.1,353.684
312,33.3986,505.36,670.537,543.383,354.666
316,33.0156,521.748,670.173,546.451,355.82
320,31.5728,505.507,670.153,549.705,357.049
324,31.09847,483.743,667.424,553.089,358.061
328,30.0273,506.532,667.592,556.474,358.986
332,29.1086,509.277,667.1,559.833,359.996
336,28.50918,515.873,666.792,563.225,361.126
340,28.1236,472.759,667.195,566.531,362.326
344,26.6445,516.608,667.747,570.676,363.659
348,25.9638,512.846,668.305,572.737,365.013
352,24.9713,510.138,669.482,575.617,366.382
356,23.7857,506.414,674.008,578.037,367.913
360,23.72345,517.501,685.815,580.011,369.434
364,22.4916,497.653,698.344,581.601,371.017
368,21.8028,512.936,717.447,583.692,373.17
372,20.96955,558.025,739.176,584.973,376.213
376,19.597,518.667,752.361,583.396,386.116
380,19.49801,480.148,760.982,585.133,408.549
384,18.1055,443.943,765.561,585.609,426.155
388,17.8793,420.456,768.695,587.244,433.387
392,17.40638,436.241,770.239,589.949,433.107
396,16.2095,410.309,771.755,591.699,430.921
400,15.9823,392.334,773.281,594.691,430.983
404,15.1814,404.094,772.591,598.708,431.272
408,14.2879,380.543,774.051,602.448,434.952
412,13.9919,399.199,776.252,605.545,435.766
416,12.9863,372.138,776.897,609.045,435.914
420,12.5296,383.725,777.23,611.791,435.71
424,12.2847,369.476,778.006,618.587,438.556
428,11.1816,378.549,778.657,621.094,440.782
432,10.85249,363.929,781.641,627.868,442.559
436,10.5817,356.918,787.23,632.327,443.908
440,9.164241,369.366,791.281,640.123,445.42
444,8.861685,335.493,793.876,647.08,446.81
448,8.676429,369.76,797.82,652.725,446.354
452,7.89041,364.521,798.241,658.206,446.746
456,7.172296,362.001,800.464,662.859,448.525
460,6.959167,356.645,802.683,670.29,449.89
464,5.750146,331.082,804.739,676.648,451.581
468,5.550324,316.951,804.404,675.687,456.711
472,5.34965,270.949,807.026,677.443,456.855
476,4.635798,245.556,810.146,678.949,458.214
480,4.234313,229.24,814.794,679.634,459.629
484,4.144334,203.705,820.412,680.108,461.22
488,3.557907,183.401,826.502,680.665,465.404
492,3.427515,168.753,842.791,681.115,471.396
496,3.345077,161.87,847.541,678.695,475.046
500,2.840973,154.205,853.927,676.789,475.594
504,2.625201,145.151,885.322,676.075,473.458
508,2.639606,135.977,968.625,674.089,470.166
512,2.05436,122.363,1083.093,675.974,475.171
516,2.053301,109.512,1163.461,675.549,470.719
520,1.95177,96.2121,1204.498,673.125,472.844
524,1.646193,87.1561,1133.402,671.721,480.06
528,1.737909,79.4884,812.687,672.212,485.116
532,1.737945,66.9355,710.039,676.804,486.218
536,1.248898,57.668,657.808,686.654,486.144
540,1.049303,46.764,622.234,703.506,485.667
544,1.338782,42.9507,596.414,739.404,485.081
548,1.261876,34.3737,583.997,955.042,485.321
552,1.010904,28.3961,572.301,973.371,484.994
556,1.137369,23.0914,565.447,655.12,485.288
560,1.033908,20.0969,571.727,618.846,484.839
564,0.917312,18.6094,564.568,619.676,485.016
568,1.136276,13.7991,546.621,589.805,485.191
572,0.75897,9.49148,534.134,568.094,485.769
576,0.931088,4.23464,538.578,577.27,486.481
580,0.960435,1.32294,529.405,573.086,487.027
584,0.729331,1.88077,531.793,571.022,488.174
588,0.931583,0.970287,536.185,540.372,489.513
592,0.834765,0.216877,531.835,572.853,490.504
596,0.729637,-1.3221,541.335,574.718,492.04
600,1.019602,-3.13626,549.509,572.475,493.607
604,0.931816,-3.64197,546.608,559.252,495.107
608,0.917741,-3.79996,546.373,575.595,496.515
612,0.932166,-3.82536,538.129,585.989,497.898
616,0.745684,-3.87999,544.131,550.872,499.68
620,0.918085,-4.15504,539.314,573.811,501.345
624,0.729881,-3.95201,535.75,576.222,502.575
628,0.8356,-4.09166,531.159,587.171,503.899
632,0.863511,-4.91366,546.64,582.93,505.521
636,0.730779,-4.78491,548.266,553.636,506.699
640,1.020382,-4.30495,548.614,558.8,508.442
644,0.730973,-4.39121,545.134,581.362,509.88
648,0.902251,-3.78218,544.967,585.708,511.664
652,0.960888,-3.64726,538.956,592.221,513.041
656,0.745244,-3.57882,551.809,553.311,515.001
660,0.932372,-3.49581,537.156,585.466,515.847
664,0.946598,-3.52094,532.119,588.703,517.234
668,0.646533,-3.22464,546.796,585.77,518.902
672,0.917042,-3.27989,549.966,565.056,520.212
676,0.746094,-2.83965,544.162,589.157,521.333
680,0.806552,-4.08486,544.255,584.322,522.664
684,1.021047,-3.86573,531.778,585.374,523.626
688,0.6482,-3.97172,529.727,587.534,524.88
692,0.919299,-3.85089,536.655,588.821,526.126
696,0.746048,-3.56392,538.452,600.467,527.521
700,0.716795,-4.28399,542.482,600.048,529.008
704,0.835363,-4.1575,541.643,587.491,530.044
708,0.849649,-4.2522,530.605,604.721,530.912
712,0.647363,-4.27551,527.408,608.673,532.051
716,0.91788,-4.20053,539.906,592.069,533.609
720,0.744144,-4.12873,532.515,581.357,534.824
721,0.647084,-4.45839,529.902,593.18,535.162