Folder: matl-db/Non-charring/PMMA/GIDAZE+ (part 3)

File: GIDAZE+_DSC_O2-10_10K_1.csv
Time,Temperature,Heat Flow,
[s],[K],[W/g],
0,299.132,-5.75E-03,
61.5,304.132,-1.44E-02,
84.2,309.132,-1.38E-02,
105,314.132,-1.51E-02,
125,319.132,-4.17E-02,
146,324.132,-6.43E-02,
168,329.132,-9.06E-02,
191,334.132,-0.11001,
217,339.132,-0.12863,
245,344.132,-0.12951,
275,349.132,-0.13248,
305,354.132,-0.13818,
336,359.132,-0.14279,
367,364.132,-0.15624,
397,369.132,-0.16362,
427,374.132,-0.17083,
458,379.132,-0.17748,
488,384.132,-0.18343,
518,389.132,-0.18601,
548,394.132,-0.18512,
578,399.132,-0.17506,
608,404.132,-0.174,
638,409.132,-0.18156,
668,414.132,-0.19096,
697,419.132,-0.19464,
727,424.132,-0.20536,
757,429.132,-0.20685,
787,434.132,-0.21422,
817,439.132,-0.22734,
847,444.132,-0.23243,
878,449.132,-0.23771,
908,454.132,-0.24672,
937,459.132,-0.25212,
967,464.132,-0.2608,
997,469.132,-0.2646,
1030,474.132,-0.26973,
1060,479.132,-0.27628,
1090,484.132,-0.28569,
1120,489.132,-0.29357,
1150,494.132,-0.29261,
1180,499.132,-0.29637,
1210,504.132,-0.29471,
1240,509.132,-0.30493,
1270,514.132,-0.30987,
1300,519.132,-0.31286,
1330,524.132,-0.31209,
1360,529.132,-0.30895,
1390,534.132,-0.29583,
1420,539.132,-0.27483,
1450,544.132,-0.22846,
1480,549.132,-0.14703,
1510,554.132,-3.84E-03,
1540,559.132,0.22543,
1570,564.132,0.46593,
1600,569.132,0.53957,
1630,574.132,0.62369,
1660,579.132,0.75862,
1690,584.132,0.73803,
1720,589.132,0.54649,
1750,594.132,0.42262,
1780,599.132,0.41594,
1810,604.132,0.47392,
1840,609.132,0.50271,
1870,614.132,0.51325,
1900,619.132,0.49391,
1930,624.132,0.42781,
1960,629.132,0.29213,
1990,634.132,0.13245,
2020,639.132,-7.04E-02,
2050,644.132,-0.28144,
2080,649.132,-0.4336,
2110,654.132,-0.533,
2140,659.132,-0.59816,
2170,664.132,-0.65473,
2200,669.132,-0.71764,
2230,674.132,-0.74611,
2260,679.132,-0.74873,
2290,684.132,-0.75893,
2320,689.132,-0.66763,
2350,694.132,-0.56688,
2380,699.132,-0.49069,
2410,704.132,-0.44684,
2440,709.132,-0.40831,
2470,714.132,-0.39326,
2500,719.132,-0.39162,
2530,724.132,-0.3913,
2560,729.132,-0.39033,
2590,734.132,-0.39042,
2620,739.132,-0.38741,
2650,744.132,-0.38634,
2680,749.132,-0.38461,
2710,754.132,-0.40086,
2740,759.132,-0.41183,
2770,764.132,-0.41818,
2800,769.132,-0.42728,
2830,774.132,-0.43414,
2860,779.132,-0.44221,
2890,784.132,-0.43866,
2920,789.132,-0.44257,
2950,794.132,-0.44652,
2980,799.132,-0.44824,
3010,804.132,-0.46085,
3040,809.132,-0.45577,
3070,814.132,-0.45622,
3100,819.132,-0.45828,
3130,824.132,-0.45625,
3160,829.132,-0.46322,
3190,834.132,-0.46566,
3220,839.132,-0.45532,
3250,844.132,-0.45366,
3280,849.132,-0.45011,
3310,854.132,-0.44801,
3340,859.132,-0.43365,
3370,864.132,-0.44381,
3400,869.132,-0.43995,
3430,874.132,-0.43707,
3460,879.132,-0.4325,
3490,884.132,-0.42824,
3520,889.132,-0.42266,
3550,894.132,-0.42248,
3580,899.132,-0.42729,
3610,904.132,-0.42451,
3640,909.132,-0.42037,
3670,914.132,-0.42026,
,,,

File: GIDAZE+_DSC_O2-10_10K_2.csv
Time,Temperature,Heat Flow
[s],[K],[W/g]
0,299.402,9.64E-03
61.8,304.402,-9.57E-03
84.7,309.402,-2.99E-02
105,314.402,-4.08E-02
126,319.402,-2.00E-02
147,324.402,6.52E-03
169,329.402,3.61E-02
193,334.402,5.69E-02
219,339.402,7.71E-02
247,344.402,7.66E-02
277,349.402,8.33E-02
307,354.402,9.09E-02
338,359.402,9.56E-02
368,364.402,0.11417
399,369.402,0.11558
429,374.402,0.1217
459,379.402,0.13095
489,384.402,0.13884
520,389.402,0.13298
550,394.402,0.13221
580,399.402,0.12908
609,404.402,0.13351
639,409.402,0.14016
669,414.402,0.15153
699,419.402,0.15556
729,424.402,0.16463
759,429.402,0.16989
789,434.402,0.18158
819,439.402,0.18905
849,444.402,0.19667
879,449.402,0.20277
909,454.402,0.20732
939,459.402,0.21184
969,464.402,0.21993
999,469.402,0.22974
1030,474.402,0.2348
1060,479.402,0.23861
1090,484.402,0.24648
1120,489.402,0.25683
1150,494.402,0.25939
1180,499.402,0.26906
1210,504.402,0.26736
1240,509.402,0.26876
1270,514.402,0.27139
1300,519.402,0.27203
1330,524.402,0.27536
1360,529.402,0.27664
1390,534.402,0.26228
1420,539.402,0.22949
1450,544.402,0.18488
1480,549.402,9.98E-02
1510,554.402,-3.00E-02
1540,559.402,-0.26425
1570,564.402,-0.53829
1600,569.402,-0.64012
1630,574.402,-0.73224
1660,579.402,-0.85626
1690,584.402,-0.8241
1720,589.402,-0.60114
1750,594.402,-0.49032
1780,599.402,-0.47216
1810,604.402,-0.46348
1840,609.402,-0.48509
1870,614.402,-0.49131
1900,619.402,-0.47318
1930,624.402,-0.3891
1960,629.402,-0.25054
1990,634.402,-0.14752
2020,639.402,7.18E-02
2050,644.402,0.27697
2080,649.402,0.4401
2110,654.402,0.53147
2140,659.402,0.59127
2170,664.402,0.64138
2200,669.402,0.68612
2230,674.402,0.71898
2260,679.402,0.72267
2290,684.402,0.71336
2320,689.402,0.60424
2350,694.402,0.50131
2380,699.402,0.43253
2410,704.402,0.37952
2440,709.402,0.34667
2470,714.402,0.33415
2500,719.402,0.32843
2530,724.402,0.32732
2560,729.402,0.32095
2590,734.402,0.31735
2620,739.402,0.30794
2650,744.402,0.29373
2680,749.402,0.28782
2710,754.402,0.29226
2740,759.402,0.30538
2770,764.402,0.30939
2800,769.402,0.31573
2830,774.402,0.32402
2860,779.402,0.33213
2890,784.402,0.32417
2920,789.402,0.32643
2950,794.402,0.34057
2980,799.402,0.34245
3010,804.402,0.36626
3040,809.402,0.3656
3070,814.402,0.37577
3100,819.402,0.37559
3130,824.402,0.38657
3160,829.402,0.39326
3190,834.402,0.38824
3220,839.402,0.38581
3250,844.402,0.39215
3280,849.402,0.38915
3310,854.402,0.38509
3340,859.402,0.36995
3370,864.402,0.36531
3400,869.402,0.36124
3430,874.402,0.36004
3460,879.402,0.36166
3490,884.402,0.35558
3520,889.402,0.35848
3550,894.402,0.36894
3580,899.402,0.36519
3610,904.402,0.36268
3640,909.402,0.36877
3670,914.402,0.36709

File: GIDAZE+_DSC_O2-21_10K_2.csv
Time,Temperature,Heat Flow
[s],[K],[W/g]
0.00E+00,298.485,2.31E-02
6.10E+01,303.485,-1.85E-02
8.33E+01,308.485,-6.15E-02
1.03E+02,313.485,-6.91E-02
1.23E+02,318.485,-5.66E-02
1.43E+02,323.485,-3.63E-02
1.65E+02,328.485,-5.97E-03
1.88E+02,333.485,-2.15E-03
2.13E+02,338.485,5.67E-03
2.41E+02,343.485,4.61E-03
2.70E+02,348.485,3.27E-03
3.01E+02,353.485,5.94E-03
3.32E+02,358.485,1.86E-02
3.63E+02,363.485,2.37E-02
3.93E+02,368.485,2.45E-02
4.24E+02,373.485,2.61E-02
4.54E+02,378.485,2.02E-02
4.84E+02,383.485,2.39E-02
5.14E+02,388.485,2.20E-02
5.44E+02,393.485,2.02E-02
5.74E+02,398.485,1.07E-02
6.04E+02,403.485,1.11E-02
6.34E+02,408.485,8.90E-03
6.64E+02,413.485,1.16E-02
6.94E+02,418.485,1.36E-02
7.24E+02,423.485,2.18E-02
7.54E+02,428.485,2.65E-02
7.84E+02,433.485,3.25E-02
8.14E+02,438.485,3.98E-02
8.44E+02,443.485,4.31E-02
8.74E+02,448.485,5.17E-02
9.04E+02,453.485,5.76E-02
9.34E+02,458.485,6.32E-02
9.64E+02,463.485,6.83E-02
9.93E+02,468.485,7.21E-02
1.02E+03,473.485,7.72E-02
1.05E+03,478.485,7.82E-02
1.08E+03,483.485,7.15E-02
1.11E+03,488.485,7.44E-02
1.14E+03,493.485,7.85E-02
1.17E+03,498.485,8.69E-02
1.20E+03,503.485,9.09E-02
1.23E+03,508.485,8.58E-02
1.26E+03,513.485,8.89E-02
1.29E+03,518.485,9.60E-02
1.32E+03,523.485,9.23E-02
1.35E+03,528.485,8.15E-02
1.38E+03,533.485,6.72E-02
1.41E+03,538.485,3.60E-02
1.44E+03,543.485,-4.56E-03
1.47E+03,548.485,-7.17E-02
1.50E+03,553.485,-0.1719
1.53E+03,558.485,-0.23449
1.56E+03,563.485,-0.24672
1.59E+03,568.485,-0.31711
1.62E+03,573.485,-0.55357
1.65E+03,578.485,-1.0986
1.68E+03,583.485,-1.19204
1.71E+03,588.485,-0.78335
1.74E+03,593.485,-0.61518
1.77E+03,598.485,-0.64649
1.80E+03,603.485,-0.69775
1.83E+03,608.485,-0.70242
1.86E+03,613.485,-0.66668
1.89E+03,618.485,-0.51556
1.92E+03,623.485,-0.47834
1.95E+03,628.485,-0.34383
1.98E+03,633.485,-7.48E-02
2.01E+03,638.485,0.14203
2.04E+03,643.485,0.2743
2.07E+03,648.485,0.36151
2.10E+03,653.485,0.40927
2.13E+03,658.485,0.42841
2.16E+03,663.485,0.43441
2.19E+03,668.485,0.44216
2.22E+03,673.485,0.43105
2.25E+03,678.485,0.39657
2.28E+03,683.485,0.34227
2.31E+03,688.485,0.2497
2.34E+03,693.485,0.14032
2.37E+03,698.485,4.77E-02
2.40E+03,703.485,6.74E-03
2.43E+03,708.485,-1.43E-02
2.46E+03,713.485,-1.25E-02
2.49E+03,718.485,-9.74E-03
2.52E+03,723.485,-1.32E-02
2.55E+03,728.485,-7.44E-03
2.58E+03,733.485,-2.97E-03
2.61E+03,738.485,-1.18E-03
2.64E+03,743.485,-7.13E-03
2.67E+03,748.485,-9.09E-03
2.70E+03,753.485,-9.72E-03
2.73E+03,758.485,-1.10E-02
2.76E+03,763.485,-1.58E-02
2.79E+03,768.485,-1.31E-02
2.82E+03,773.485,-2.69E-02
2.85E+03,778.485,-2.43E-02
2.88E+03,783.485,-2.95E-02
2.91E+03,788.485,-4.84E-02
2.94E+03,793.485,-6.05E-02
2.97E+03,798.485,-6.65E-02
3.00E+03,803.485,-7.76E-02
3.03E+03,808.485,-9.33E-02
3.06E+03,813.485,-0.1012
3.09E+03,818.485,-0.10251
3.12E+03,823.485,-0.10275
3.15E+03,828.485,-0.10387
3.18E+03,833.485,-0.10094
3.21E+03,838.485,-0.10045
3.24E+03,843.485,-0.10983
3.27E+03,848.485,-0.12259
3.30E+03,853.485,-0.12731
3.33E+03,858.485,-0.14117
3.36E+03,863.485,-0.1499
3.39E+03,868.485,-0.1567
3.42E+03,873.485,-0.16364
3.45E+03,878.485,-0.15882
3.48E+03,883.485,-0.17231
3.51E+03,888.485,-0.19002
3.54E+03,893.485,-0.20134
3.57E+03,898.485,-0.19897
3.60E+03,903.485,-0.20783
3.63E+03,908.485,-0.20801
3.66E+03,913.485,-0.20215

File: GIDAZE+_DSC_O2-21_10K_3.csv
Time,Temperature,Heat Flow
[s],[K],[W/g]
0.00E+00,299.206,1.69E-02
6.17E+01,304.206,-0.12632
8.45E+01,309.206,-0.20867
1.05E+02,314.206,-0.24916
1.25E+02,319.206,-0.26284
1.46E+02,324.206,-0.25761
1.68E+02,329.206,-0.24581
1.92E+02,334.206,-0.22691
2.18E+02,339.206,-0.21093
2.46E+02,344.206,-0.20127
2.75E+02,349.206,-0.19311
3.06E+02,354.206,-0.18535
3.36E+02,359.206,-0.17714
3.67E+02,364.206,-0.17445
3.98E+02,369.206,-0.17529
4.28E+02,374.206,-0.17707
4.58E+02,379.206,-0.17984
4.88E+02,384.206,-0.184
5.18E+02,389.206,-0.19037
5.48E+02,394.206,-0.19971
5.78E+02,399.206,-0.20686
6.08E+02,404.206,-0.21198
6.38E+02,409.206,-0.20844
6.68E+02,414.206,-0.20615
6.98E+02,419.206,-0.20317
7.28E+02,424.206,-0.20027
7.58E+02,429.206,-0.19592
7.88E+02,434.206,-0.19258
8.18E+02,439.206,-0.18852
8.48E+02,444.206,-0.18488
8.78E+02,449.206,-0.18131
9.08E+02,454.206,-0.1781
9.38E+02,459.206,-0.17334
9.68E+02,464.206,-0.16798
9.98E+02,469.206,-0.16684
1.03E+03,474.206,-0.16299
1.06E+03,479.206,-0.1594
1.09E+03,484.206,-0.15657
1.12E+03,489.206,-0.1518
1.15E+03,494.206,-0.14987
1.18E+03,499.206,-0.1473
1.21E+03,504.206,-0.14334
1.24E+03,509.206,-0.14143
1.27E+03,514.206,-0.14099
1.30E+03,519.206,-0.13898
1.33E+03,524.206,-0.13662
1.36E+03,529.206,-0.14205
1.39E+03,534.206,-0.14866
1.42E+03,539.206,-0.17019
1.45E+03,544.206,-0.20607
1.48E+03,549.206,-0.25868
1.51E+03,554.206,-0.32396
1.54E+03,559.206,-0.36914
1.57E+03,564.206,-0.38637
1.60E+03,569.206,-0.44469
1.63E+03,574.206,-0.58111
1.66E+03,579.206,-0.81515
1.69E+03,584.206,-1.18264
1.72E+03,589.206,-1.1845
1.75E+03,594.206,-0.77321
1.78E+03,599.206,-0.46493
1.81E+03,604.206,-0.10792
1.84E+03,609.206,0.31192
1.87E+03,614.206,0.55795
1.90E+03,619.206,0.53432
1.93E+03,624.206,5.38E-02
1.96E+03,629.206,-3.27E-02
1.99E+03,634.206,-0.16653
2.02E+03,639.206,-3.96E-02
2.05E+03,644.206,9.90E-02
2.08E+03,649.206,0.20843
2.11E+03,654.206,0.27387
2.14E+03,659.206,0.30522
2.17E+03,664.206,0.32509
2.20E+03,669.206,0.34012
2.23E+03,674.206,0.35075
2.26E+03,679.206,0.3393
2.29E+03,684.206,0.29334
2.32E+03,689.206,0.21648
2.35E+03,694.206,0.14428
2.38E+03,699.206,5.37E-02
2.41E+03,704.206,-2.05E-02
2.44E+03,709.206,-6.36E-02
2.47E+03,714.206,-8.70E-02
2.50E+03,719.206,-9.09E-02
2.53E+03,724.206,-0.1028
2.56E+03,729.206,-0.11117
2.59E+03,734.206,-0.11848
2.62E+03,739.206,-0.12188
2.65E+03,744.206,-0.12512
2.68E+03,749.206,-0.13029
2.71E+03,754.206,-0.1325
2.74E+03,759.206,-0.13631
2.77E+03,764.206,-0.13889
2.80E+03,769.206,-0.14346
2.83E+03,774.206,-0.14418
2.86E+03,779.206,-0.14643
2.89E+03,784.206,-0.15154
2.92E+03,789.206,-0.15436
2.95E+03,794.206,-0.15554
2.98E+03,799.206,-0.15983
3.01E+03,804.206,-0.15893
3.04E+03,809.206,-0.16637
3.07E+03,814.206,-0.17041
3.10E+03,819.206,-0.17293
3.13E+03,824.206,-0.17663
3.16E+03,829.206,-0.18359
3.19E+03,834.206,-0.18733
3.22E+03,839.206,-0.19361
3.25E+03,844.206,-0.19535
3.28E+03,849.206,-0.19963
3.31E+03,854.206,-0.20845
3.34E+03,859.206,-0.21617
3.37E+03,864.206,-0.21655
3.40E+03,869.206,-0.2203
3.43E+03,874.206,-0.22272
3.46E+03,879.206,-0.21799
3.49E+03,884.206,-0.22402
3.52E+03,889.206,-0.22693
3.55E+03,894.206,-0.23024
3.58E+03,899.206,-0.23371
3.61E+03,904.206,-0.23584
3.64E+03,909.206,-0.24011
3.67E+03,914.206,-0.24163
,,-0.24454

File: GIDAZE+_DSC_O2-21_10K_4.csv
Time,Temperature,Heat Flow,
[s],[K],[W/g],
0.00E+00,298.749,-1.45E-02,
6.13E+01,303.749,9.96E-02,
8.38E+01,308.749,0.16471,
1.04E+02,313.749,0.19532,
1.24E+02,318.749,0.20362,
1.44E+02,323.749,0.19408,
1.66E+02,328.749,0.17597,
1.89E+02,333.749,0.15553,
2.15E+02,338.749,0.13619,
2.43E+02,343.749,0.12,
2.72E+02,348.749,0.11114,
3.03E+02,353.749,0.10319,
3.34E+02,358.749,9.38E-02,
3.64E+02,363.749,8.85E-02,
3.95E+02,368.749,8.40E-02,
4.25E+02,373.749,8.29E-02,
4.55E+02,378.749,8.27E-02,
4.86E+02,383.749,8.45E-02,
5.16E+02,388.749,8.66E-02,
5.46E+02,393.749,9.35E-02,
5.76E+02,398.749,0.10038,
6.06E+02,403.749,0.10145,
6.35E+02,408.749,9.78E-02,
6.65E+02,413.749,9.24E-02,
6.95E+02,418.749,8.67E-02,
7.25E+02,423.749,8.17E-02,
7.55E+02,428.749,7.67E-02,
7.85E+02,433.749,7.17E-02,
8.15E+02,438.749,6.61E-02,
8.45E+02,443.749,5.98E-02,
8.75E+02,448.749,5.34E-02,
9.05E+02,453.749,4.76E-02,
9.35E+02,458.749,4.17E-02,
9.65E+02,463.749,3.53E-02,
9.95E+02,468.749,3.01E-02,
1.03E+03,473.749,2.50E-02,
1.06E+03,478.749,1.86E-02,
1.09E+03,483.749,1.31E-02,
1.12E+03,488.749,8.89E-03,
1.15E+03,493.749,2.16E-03,
1.18E+03,498.749,-1.83E-03,
1.21E+03,503.749,-8.12E-03,
1.24E+03,508.749,-1.30E-02,
1.27E+03,513.749,-1.76E-02,
1.30E+03,518.749,-1.98E-02,
1.33E+03,523.749,-2.21E-02,
1.36E+03,528.749,-2.19E-02,
1.39E+03,533.749,-1.65E-02,
1.42E+03,538.749,-7.13E-04,
1.45E+03,543.749,3.14E-02,
1.48E+03,548.749,8.08E-02,
1.51E+03,553.749,0.14654,
1.54E+03,558.749,0.19336,
1.57E+03,563.749,0.20544,
1.60E+03,568.749,0.2571,
1.63E+03,573.749,0.38702,
1.66E+03,578.749,0.61267,
1.69E+03,583.749,0.99496,
1.72E+03,588.749,1.01504,
1.75E+03,593.749,0.58347,
1.78E+03,598.749,5.85E-02,
1.81E+03,603.749,-0.21552,
1.83E+03,608.749,-0.54082,
1.87E+03,613.749,-0.80661,
1.89E+03,618.749,-0.7684,
1.93E+03,623.749,-0.61812,
1.96E+03,628.749,-0.35247,
1.99E+03,633.749,-4.31E-02,
2.02E+03,638.749,-0.15732,
2.05E+03,643.749,-0.28318,
2.08E+03,648.749,-0.38182,
2.11E+03,653.749,-0.448,
2.14E+03,658.749,-0.48577,
2.17E+03,663.749,-0.50594,
2.20E+03,668.749,-0.51485,
2.23E+03,673.749,-0.51611,
2.26E+03,678.749,-0.49788,
2.29E+03,683.749,-0.45585,
2.32E+03,688.749,-0.36979,
2.35E+03,693.749,-0.28477,
2.38E+03,698.749,-0.2105,
2.41E+03,703.749,-0.15455,
2.44E+03,708.749,-0.13049,
2.47E+03,713.749,-0.12134,
2.50E+03,718.749,-0.11396,
2.53E+03,723.749,-0.1108,
2.56E+03,728.749,-0.10963,
2.59E+03,733.749,-0.10453,
2.62E+03,738.749,-0.10384,
2.65E+03,743.749,-0.1021,
2.68E+03,748.749,-0.10551,
2.71E+03,753.749,-0.10469,
2.74E+03,758.749,-0.1023,
2.77E+03,763.749,-0.10119,
2.80E+03,768.749,-9.81E-02,
2.83E+03,773.749,-9.83E-02,
2.86E+03,778.749,-9.71E-02,
2.89E+03,783.749,-9.07E-02,
2.92E+03,788.749,-8.98E-02,
2.95E+03,793.749,-8.66E-02,
2.98E+03,798.749,-9.00E-02,
3.01E+03,803.749,-9.02E-02,
3.04E+03,808.749,-9.06E-02,
3.07E+03,813.749,-8.94E-02,
3.10E+03,818.749,-9.15E-02,
3.13E+03,823.749,-8.85E-02,
3.16E+03,828.749,-8.43E-02,
3.19E+03,833.749,-8.94E-02,
3.22E+03,838.749,-9.20E-02,
3.25E+03,843.749,-9.27E-02,
3.28E+03,848.749,-8.98E-02,
3.31E+03,853.749,-8.97E-02,
3.34E+03,858.749,-9.10E-02,
3.37E+03,863.749,-9.07E-02,
3.40E+03,868.749,-9.05E-02,
3.43E+03,873.749,-8.75E-02,
3.46E+03,878.749,-8.85E-02,
3.49E+03,883.749,-8.60E-02,
3.52E+03,888.749,-9.13E-02,
3.55E+03,893.749,-9.17E-02,
3.58E+03,898.749,-9.37E-02,
3.61E+03,903.749,-9.94E-02,
3.64E+03,908.749,-9.52E-02,
3.67E+03,913.749,-9.62E-02,
,,,

File: GIDAZE+_FPA_65kW_Temp_1.csv
Time,Mass,Back Surface Temperature 1
[s],[g],[K]
1,0,302.461
3,0,302.529
5,0,302.585
7,0,302.639
9,0,302.717
11,0,302.789
13,0,302.875
15,0,303.026
17,0,303.49
19,0,304.033
21,0,304.479
23,0,304.957
25,0,305.485
27,0,306.035
29,0,306.609
31,0,307.202
33,0,307.871
35,0,308.567
37,0,309.287
39,0,310.02
41,0,310.79
43,0,311.548
45,0,312.379
47,0,313.199
49,0,314.096
51,0,315.014
53,0,315.931
55,0,316.88
57,0,317.891
59,0,318.873
61,0,319.925
63,0,321.066
65,0,322.247
67,0,323.48
69,0,324.774
71,0,326.151
73,0,327.654
75,0,329.174
77,0,331.062
79,0,333.306
81,0,336.114
83,0,341.613
85,0,350.098
87,0,358.935
89,0,364.65
91,0,366.786
93,0,368.191
95,0,367.958
97,0,364.471
99,0,360.671
101,0,353.902
103,0,347.173
105,0,342.572
107,0,339.838
109,0,338.307
111,0,337.313
113,0,336.778
115,0,336.517
117,0,336.391
119,0,336.356
121,0,336.425
123,0,336.628
125,0,336.888
127,0,337.082
129,0,337.343
131,0,337.733
133,0,338.155
135,0,338.629
137,0,339.118
139,0,339.651
141,0,340.196
143,0,340.761
145,0,341.316
147,0,341.945
149,0,342.564
151,0,343.168
153,0,343.831
155,0,344.472
157,0,345.112
159,0,345.791
161,0,346.439
163,0,347.08
165,0,347.72
167,0,348.331
169,0,348.912
171,0,349.443
173,0,349.979
175,0,350.619
177,0,351.562
179,0,352.58
181,0,354.404
183,0,357.204
185,0,359.497
187,0,361.861
189,0,364.258
191,0,367.006
193,0,370.936
195,0,375.691
197,0,384.22
199,0,393.814
201,0,404.792
203,0,420.466
205,0,442.685
207,0,458.268
209,0,459.193
211,0,454.977
213,0,458.086
215,0,473.023
217,0,500.897
219,0,520.81
221,0,533.948
223,0,541.768
225,0,548.086
227,0,549.913
229,0,561.417
231,0,557.081
233,0,552.229
235,0,550.402
237,0,553.268
239,0,555.901
241,0,557.822
243,0,559.542
245,0,561.377
247,0,563.668
249,0,567.871
251,0,570.009
253,0,571.735
255,0,574.958
257,0,578.55
259,0,580.496
261,0,583.1
263,0,585.483
265,0,587.942
267,0,592.223
269,0,587.972
271,0,586.305
273,0,591.159
275,0,592.396
277,0,594.906
279,0,595.332
281,0,597.085
283,0,601.683
285,0,604.105
287,0,609.01
289,0,609.349
291,0,612.626
293,0,614.493
295,0,616.999
297,0,626.124
299,0,622.311
301,0,622.093
303,0,625.268
305,0,628.915
307,0,628.258
309,0,630.264
311,0,634.672
313,0,633.371
315,0,636.216
317,0,635.568
319,0,638.426
321,0,639.523
323,0,640.515
325,0,642.545
327,0,644.245
329,0,646.25
331,0,646.716
333,0,647.054
335,0,652.984
337,0,651.548
339,0,652.476
341,0,653.053
343,0,655.052
345,0,655.378
347,0,658.385
349,0,654.118

File: GIDAZE+_FPA_65kW_Temp_2.csv
Time,Mass,Back Surface Temperature 1
[s],[g],[K]
1,0,297.032
3,0,296.989
5,0,296.959
7,0,296.901
9,0,296.882
11,0,296.86
13,0,296.885
15,0,296.962
17,0,297.491
19,0,297.79
21,0,298.202
23,0,298.647
25,0,299.131
27,0,299.697
29,0,300.288
31,0,300.91
33,0,301.601
35,0,302.314
37,0,303.09
39,0,303.945
41,0,304.808
43,0,305.74
45,0,306.693
47,0,307.698
49,0,308.709
51,0,309.76
53,0,310.826
55,0,311.909
57,0,313.039
59,0,314.195
61,0,315.379
63,0,316.631
65,0,317.926
67,0,319.21
69,0,320.636
71,0,322.041
73,0,323.596
75,0,325.193
77,0,326.938
79,0,328.947
81,0,331.397
83,0,334.826
85,0,341.523
87,0,353.717
89,0,362.267
91,0,366.013
93,0,367.549
95,0,367.864
97,0,361.602
99,0,355.457
101,0,345.464
103,0,339.185
105,0,335.268
107,0,332.613
109,0,330.968
111,0,330.177
113,0,329.701
115,0,329.527
117,0,329.478
119,0,329.553
121,0,329.725
123,0,330.014
125,0,330.389
127,0,330.811
129,0,331.211
131,0,331.736
133,0,332.303
135,0,332.967
137,0,333.65
139,0,334.352
141,0,335.117
143,0,335.568
145,0,336.154
147,0,336.762
149,0,337.47
151,0,338.151
153,0,338.906
155,0,339.642
157,0,340.254
159,0,340.787
161,0,341.28
163,0,341.909
165,0,342.53
167,0,343.174
169,0,343.81
171,0,344.474
173,0,345.902
175,0,347.545
177,0,348.973
179,0,350.821
181,0,353.11
183,0,356.293
185,0,361.893
187,0,377.402
189,0,407.91
191,0,414.981
193,0,426.436
195,0,434.198
197,0,445.722
199,0,460.71
201,0,475.664
203,0,489.162
205,0,502.171
207,0,514.943
209,0,509.577
211,0,486.663
213,0,497.407
215,0,555.686
217,0,666.116
219,0,623.553
221,0,610.854
223,0,645.051
225,0,707.833
227,0,689.27
229,0,610.29
231,0,598.065
233,0,595.087
235,0,594.212
237,0,597.693
239,0,597.375
241,0,600.384
243,0,606.271
245,0,615.219
247,0,613.365
249,0,615.226
251,0,623.468
253,0,630.265
255,0,638.056
257,0,635.935
259,0,646.33
261,0,655.001
263,0,658.264
265,0,683.339
267,0,659.117
269,0,649.307
271,0,656.801
273,0,662.366
275,0,658.682
277,0,665.825
279,0,671.036
281,0,664.888
283,0,670.472
285,0,678.525
287,0,681.028
289,0,676.101
291,0,683.189
293,0,685.808
295,0,677.752
297,0,682.41
299,0,680.49
301,0,685.757
303,0,685.253
305,0,683.558
307,0,684.753
309,0,687.25
311,0,691.277
313,0,692.16
315,0,690.245
317,0,691.149
319,0,690.949
321,0,690.157
323,0,693.058
325,0,697.63
327,0,696.533
329,0,695.532
331,0,696.693
333,0,698.644
335,0,700.571
337,0,700.893
339,0,703.521
341,0,704.68
343,0,703.84
344,0,704.844