Folder: matl-db/Non-charring/PMMA/HKPolyU (part 4)

File: HKPolyU_TGA_N2_1.csv
Time,Temperature,Mass
[s],[k],[mg]
0.004,300.03,4.104
0.171,301.319,4.102
0.346,302.901,4.1002
0.521,304.753,4.0987
0.696,306.785,4.0975
0.871,308.955,4.0967
1.046,311.172,4.096
1.221,313.4,4.0955
1.396,315.613,4.0954
1.571,317.742,4.0952
1.746,319.807,4.0952
1.921,321.788,4.0952
2.096,323.698,4.0953
2.271,325.525,4.0954
2.446,327.281,4.0954
2.621,329.002,4.0953
2.796,330.689,4.0953
2.971,332.358,4.0952
3.146,334.007,4.0951
3.321,335.669,4.0951
3.496,337.333,4.0951
3.671,339.017,4.0949
3.846,340.732,4.0949
4.021,342.446,4.0948
4.196,344.179,4.0947
4.371,345.943,4.0948
4.546,347.701,4.0947
4.721,349.48,4.0947
4.896,351.254,4.0946
5.071,353.039,4.0946
5.246,354.811,4.0944
5.421,356.597,4.0945
5.596,358.373,4.0945
5.771,360.143,4.0945
5.946,361.927,4.0945
6.121,363.693,4.0945
6.296,365.46,4.0946
6.471,367.223,4.0946
6.646,368.978,4.095
6.821,370.728,4.095
6.996,372.483,4.095
7.171,374.242,4.095
7.346,376.008,4.0956
7.521,377.766,4.0955
7.696,379.529,4.0958
7.871,381.291,4.0955
8.046,383.058,4.0955
8.221,384.823,4.0954
8.396,386.595,4.0953
8.571,388.349,4.0951
8.746001,390.131,4.0951
8.920999,391.896,4.0949
9.096,393.666,4.0946
9.271,395.433,4.0942
9.446,397.2,4.0938
9.621001,398.97,4.0933
9.795999,400.732,4.0928
9.971,402.509,4.0923
10.146,404.27,4.0918
10.321,406.033,4.0914
10.496,407.797,4.0909
10.671,409.559,4.0903
10.846,411.322,4.0897
11.021,413.081,4.0891
11.196,414.852,4.0884
11.371,416.603,4.0878
11.546,418.366,4.0872
11.721,420.124,4.0865
11.896,421.891,4.0859
12.071,423.645,4.0849
12.246,425.403,4.0841
12.421,427.17,4.0832
12.596,428.932,4.0822
12.771,430.694,4.0813
12.946,432.452,4.0802
13.121,434.205,4.0788
13.296,435.969,4.0775
13.471,437.728,4.0757
13.646,439.488,4.0741
13.821,441.243,4.0722
13.996,443.001,4.07
14.171,444.766,4.0677
14.346,446.519,4.0651
14.521,448.276,4.0623
14.696,450.028,4.0593
14.871,451.781,4.0561
15.046,453.525,4.0526
15.221,455.281,4.0491
15.396,457.035,4.0455
15.571,458.794,4.0418
15.746,460.542,4.0382
15.921,462.297,4.0346
16.096,464.06,4.0311
16.271,465.816,4.0277
16.446,467.565,4.0243
16.621,469.322,4.021
16.796,471.074,4.0175
16.971,472.826,4.0142
17.146,474.571,4.0109
17.321,476.326,4.0074
17.496,478.078,4.004
17.671,479.832,4.0005
17.846,481.598,3.9972
18.021,483.348,3.9942
18.196,485.097,3.9914
18.371,486.848,3.9889
18.546,488.599,3.9867
18.721,490.357,3.9847
18.896,492.109,3.9832
19.071,493.861,3.9818
19.246,495.607,3.9805
19.421,497.362,3.9795
19.596,499.112,3.9788
19.771,500.866,3.9779
19.946,502.614,3.9775
20.121,504.364,3.9768
20.296,506.103,3.9759
20.471,507.852,3.9752
20.646,509.603,3.9745
20.821,511.347,3.9737
20.996,513.088,3.9729
21.171,514.835,3.9719
21.346,516.583,3.9709
21.521,518.32,3.9699
21.696,520.067,3.9687
21.871,521.809,3.9675
22.046,523.557,3.9661
22.221,525.294,3.9646
22.396,527.046,3.963
22.571,528.788,3.9611
22.746,530.537,3.9592
22.921,532.274,3.957
23.096,534.011,3.9548
23.271,535.755,3.9524
23.446,537.494,3.9499
23.621,539.238,3.947
23.796,540.978,3.9439
23.971,542.719,3.9406
24.146,544.453,3.937
24.321,546.195,3.933
24.496,547.934,3.9287
24.671,549.671,3.9242
24.846,551.412,3.9191
25.021,553.151,3.9139
25.196,554.888,3.9083
25.371,556.631,3.9021
25.546,558.367,3.8957
25.721,560.107,3.8888
25.896,561.841,3.8818
26.071,563.58,3.8744
26.246,565.314,3.8667
26.421,567.055,3.8588
26.596,568.791,3.8506
26.771,570.527,3.8421
26.946,572.262,3.8333
27.121,573.999,3.8244
27.296,575.737,3.8149
27.471,577.475,3.8052
27.646,579.208,3.7948
27.821,580.949,3.783
27.996,582.678,3.7711
28.171,584.417,3.7583
28.346,586.148,3.7444
28.521,587.88,3.7292
28.696,589.617,3.7125
28.871,591.355,3.6942
29.046,593.089,3.6737
29.221,594.816,3.6514
29.396,596.539,3.6265
29.571,598.267,3.5989
29.746,599.993,3.568
29.921,601.716,3.5338
30.096,603.438,3.4958
30.271,605.164,3.4535
30.446,606.876,3.4066
30.621,608.598,3.3547
30.796,610.313,3.2976
30.971,612.032,3.2349
31.146,613.744,3.1665
31.321,615.456,3.0919
31.496,617.173,3.0111
31.671,618.882,2.9247
31.846,620.595,2.832
32.021,622.304,2.7339
32.196,624.013,2.6305
32.371,625.719,2.5218
32.546,627.433,2.4087
32.721,629.149,2.2919
32.896,630.87,2.1734
33.071,632.6,2.052
33.246,634.327,1.9308
33.421,636.056,1.8081
33.596,637.799,1.6861
33.771,639.539,1.566
33.946,641.27,1.4489
34.121,643.011,1.3347
34.296,644.758,1.2254
34.471,646.506,1.1075
34.646,648.251,0.999
34.821,650.004,0.8941
34.996,651.759,0.7949
35.171,653.513,0.7019
35.346,655.277,0.6146
35.521,657.033,0.5341
35.696,658.796,0.4616
35.871,660.559,0.3966
36.046,662.32,0.3382
36.221,664.089,0.2863
36.396,665.848,0.2406
36.571,667.612,0.2002
36.746,669.369,0.1651
36.921,671.129,0.1348
37.096,672.887,0.1089
37.271,674.644,0.0866
37.446,676.398,0.0679
37.621,678.15,0.0519
37.796,679.901,0.0383
37.971,681.651,0.027
38.146,683.395,0.0174
38.321,685.143,0.0095
38.496,686.883,0.0028
38.671,688.63,-0.0025
38.846,690.368,-0.007
39.021,692.112,-0.0107
39.196,693.853,-0.0136
39.371,695.597,-0.016
39.546,697.327,-0.0181
39.721,699.065,-0.0198
39.896,700.803,-0.0209
40.071,702.536,-0.0219
40.246,704.273,-0.0224
40.421,706.009,-0.0228
40.596,707.739,-0.023
40.771,709.481,-0.023
40.946,711.207,-0.0231
41.121,712.945,-0.023
41.296,714.68,-0.023
41.471,716.415,-0.0228
41.646,718.15,-0.0227
41.821,719.885,-0.0226
41.996,721.627,-0.0226
42.171,723.357,-0.0225
42.346,725.088,-0.0224
42.521,726.819,-0.0223
42.696,728.553,-0.0221
42.871,730.286,-0.0219
43.046,732.019,-0.0218
43.221,733.754,-0.0216
43.396,735.488,-0.0216
43.571,737.22,-0.0214
43.746,738.952,-0.0213
43.921,740.687,-0.0211
44.096,742.42,-0.021
44.271,744.152,-0.0208
44.446,745.887,-0.0207
44.621,747.625,-0.0206
44.796,749.362,-0.0204
44.971,751.09,-0.0204
45.146,752.824,-0.0201
45.321,754.551,-0.0199
45.496,756.281,-0.0198
45.671,758.01,-0.0197
45.846,759.75,-0.0195
46.021,761.482,-0.0195
46.196,763.215,-0.0194
46.371,764.95,-0.0191
46.546,766.691,-0.0189
46.721,768.421,-0.0188
46.896,770.154,-0.0187
47.071,771.888,-0.0186
47.246,773.626,-0.0185
47.421,775.356,-0.0183
47.596,777.087,-0.0182
47.771,778.823,-0.0181
47.946,780.548,-0.018
48.121,782.285,-0.0179
48.296,784.026,-0.0177
48.471,785.761,-0.0177
48.646,787.49,-0.0177
48.821,789.224,-0.0175
48.996,790.963,-0.0174
49.171,792.693,-0.0173
49.346,794.429,-0.017
49.521,796.162,-0.017
49.696,797.895,-0.0169
49.871,799.63,-0.0168
50.046,801.362,-0.0167
50.221,803.094,-0.0167
50.22934,803.176,-0.0166

File: HKPolyU_TGA_N2_2.csv
Time,Temperature,Mass
[s],[k],[mg]
0.15,300.048,4.189604
10.26,302.387,4.188328
20.76,304.673,4.187013
31.26,306.8776,4.18617
41.76,308.987,4.185528
52.26,311.002,4.184952
62.76,312.929,4.18425
73.26,314.772,4.18404
83.76,316.546,4.183632
94.26,318.27,4.183013
104.76,319.951,4.182574
115.26,321.616,4.182403
125.76,323.272,4.1818
136.26,324.952,4.18143
146.76,326.632,4.181277
157.26,328.344,4.180717
167.76,330.08,4.180428
178.26,331.843,4.180119
188.76,333.6265,4.179918
199.26,335.4346,4.179627
209.76,337.265,4.179254
220.26,339.0954,4.17924
230.76,340.9394,4.178744
241.26,342.786,4.178906
251.76,344.618,4.178704
262.26,346.454,4.178445
272.76,348.283,4.17835
283.26,350.1086,4.178424
293.76,351.918,4.178087
304.26,353.724,4.178204
314.76,355.511,4.1782
325.26,357.287,4.177894
335.76,359.067,4.177918
346.26,360.844,4.178035
356.76,362.613,4.177765
367.26,364.379,4.177567
377.76,366.148,4.177605
388.26,367.918,4.177619
398.76,369.685,4.17739
409.26,371.469,4.177322
419.76,373.2419,4.17729
430.26,375.0263,4.177071
440.76,376.8034,4.177137
451.26,378.5948,4.177038
461.76,380.3809,4.176808
472.26,382.1685,4.17651
482.76,383.9473,4.176572
493.26,385.7388,4.176697
503.76,387.519,4.176306
514.26,389.2897,4.17608
524.76,391.0704,4.175985
535.26,392.8396,4.175594
545.76,394.6164,4.175217
556.26,396.392,4.175056
566.76,398.1717,4.17468
577.26,399.9391,4.173955
587.76,401.702,4.173547
598.26,403.4664,4.173104
608.76,405.2345,4.172387
619.26,406.9983,4.171686
629.76,408.768,4.17093
640.26,410.5402,4.1704
650.76,412.304,4.1696
661.26,414.0772,4.168808
671.76,415.837,4.16797
682.26,417.6036,4.167133
692.76,419.3748,4.166391
703.26,421.1343,4.165494
713.76,422.8988,4.16457
724.26,424.6706,4.16347
734.76,426.4331,4.162507
745.26,428.2035,4.161453
755.76,429.9579,4.160022
766.26,431.7229,4.158693
776.76,433.4886,4.157178
787.26,435.2527,4.155646
797.76,437.0016,4.153778
808.26,438.7618,4.15173
818.76,440.5215,4.149444
829.26,442.2762,4.147153
839.76,444.0322,4.144398
850.26,445.796,4.141544
860.76,447.5541,4.138223
871.26,449.3068,4.13473
881.76,451.0724,4.131183
892.26,452.8293,4.127359
902.76,454.5793,4.123476
913.26,456.3371,4.119422
923.76,458.0938,4.115395
934.26,459.8518,4.111278
944.76,461.6041,4.107459
955.26,463.3601,4.103601
965.76,465.1255,4.099774
976.26,466.8816,4.095996
986.76,468.634,4.092197
997.26,470.3808,4.08855
1007.76,472.1373,4.084659
1018.26,473.8842,4.080584
1028.76,475.6412,4.076468
1039.26,477.3898,4.0722
1049.76,479.1438,4.068146
1060.26,480.8992,4.064031
1070.76,482.6553,4.060074
1081.26,484.4117,4.05642
1091.76,486.1703,4.053159
1102.26,487.9272,4.050278
1112.76,489.6776,4.047633
1123.26,491.4278,4.045435
1133.76,493.1783,4.043801
1144.26,494.9366,4.04222
1154.76,496.6822,4.040938
1165.26,498.436,4.039906
1175.76,500.1898,4.038742
1186.26,501.9455,4.03794
1196.76,503.7008,4.036958
1207.26,505.4497,4.036325
1217.76,507.1912,4.035414
1228.26,508.944,4.034534
1238.76,510.6868,4.033468
1249.26,512.4296,4.032638
1259.76,514.171,4.03154
1270.26,515.9207,4.03036
1280.76,517.6664,4.029122
1291.26,519.4083,4.027643
1301.76,521.1491,4.026252
1312.26,522.902,4.024594
1322.76,524.6419,4.022768
1333.26,526.387,4.0207
1343.76,528.133,4.0187
1354.26,529.8737,4.016445
1364.76,531.6174,4.013855
1375.26,533.3698,4.011157
1385.76,535.11,4.008271
1396.26,536.8525,4.005164
1406.76,538.5924,4.001868
1417.26,540.335,3.998106
1427.76,542.0763,3.994184
1438.26,543.8164,3.989728
1448.76,545.5582,3.985122
1459.26,547.3004,3.979956
1469.76,549.0379,3.97448
1480.26,550.779,3.968425
1490.76,552.5133,3.961907
1501.26,554.2622,3.954798
1511.76,555.996,3.947416
1522.26,557.7344,3.939485
1532.76,559.4694,3.93123
1543.26,561.2062,3.922405
1553.76,562.9448,3.913419
1564.26,564.679,3.903847
1574.76,566.4175,3.893828
1585.26,568.1564,3.883637
1595.76,569.8972,3.873015
1606.26,571.6292,3.861881
1616.76,573.3676,3.850514
1627.26,575.1104,3.838648
1637.76,576.8459,3.82616
1648.26,578.5775,3.813045
1658.76,580.318,3.79904
1669.26,582.0515,3.784006
1679.76,583.785,3.767748
1690.26,585.5236,3.750177
1700.76,587.2529,3.730934
1711.26,588.9935,3.710122
1721.76,590.7224,3.687274
1732.26,592.4555,3.662208
1742.76,594.1794,3.634766
1753.26,595.9144,3.604613
1763.76,597.6365,3.571488
1774.26,599.3609,3.535092
1784.76,601.0856,3.495056
1795.26,602.8014,3.45111
1805.76,604.52,3.402664
1816.26,606.2375,3.349475
1826.76,607.952,3.291449
1837.26,609.6806,3.227728
1847.76,611.3938,3.158205
1858.26,613.1081,3.082742
1868.76,614.8202,3.001044
1879.26,616.5332,2.913094
1889.76,618.2428,2.818735
1900.26,619.9483,2.718388
1910.76,621.6598,2.61205
1921.26,623.365,2.499867
1931.76,625.0706,2.382402
1942.26,626.7867,2.259944
1952.76,628.5023,2.133717
1963.26,630.2226,2.004796
1973.76,631.9502,1.87353
1984.26,633.6778,1.741304
1994.76,635.416,1.609592
2005.26,637.1556,1.480388
2015.76,638.886,1.345704
2026.26,640.6306,1.217924
2036.76,642.364,1.090606
2047.26,644.1097,0.9647501
2057.76,645.8536,0.8410132
2068.26,647.6033,0.7240485
2078.76,649.356,0.60851
2089.26,651.1097,0.4997082
2099.76,652.87,0.3969956
2110.26,654.6306,0.2998692
2120.76,656.3921,0.210312
2131.26,658.1508,0.1290463
2141.76,659.9152,0.0558987
2152.26,661.6859,-0.01002835
2162.76,663.4552,-0.06869929
2173.26,665.22,-0.1207391
2183.76,666.9843,-0.1663293
2194.26,668.7489,-0.2058274
2204.76,670.512,-0.2400786
2215.26,672.2668,-0.269477
2225.76,674.021,-0.2946666
2236.26,675.7798,-0.3159917
2246.76,677.5317,-3.34E-01
2257.26,679.2863,-3.50E-01
2267.76,681.0402,-3.63E-01
2278.26,682.7882,-0.3732795
2288.76,684.5313,-0.3822994
2299.26,686.273,-0.3896316
2309.76,688.0206,-0.3958725
2320.26,689.7649,-0.400897
2330.76,691.5083,-0.4050969
2341.26,693.2504,-0.408407
2351.76,694.9894,-0.4111564
2362.26,696.7219,-0.4134358
2372.76,698.4596,-0.4151735
2383.26,700.1974,-0.416676
2393.76,701.9329,-0.4177021
2404.26,703.6712,-0.4183113
2414.76,705.4096,-0.4187559
2425.26,707.147,-0.4189654
2435.76,708.885,-0.419084
2446.26,710.6218,-0.4189595
2456.76,712.3586,-0.419032
2467.26,714.0876,-0.4189772
2477.76,715.8283,-0.4189462
2488.26,717.5549,-0.4188813
2498.76,719.2946,-0.4188378
2509.26,721.0262,-0.4188008
2519.76,722.76,-0.4186731
2530.26,724.4914,-0.418712
2540.76,726.2301,-0.418582
2551.26,727.9604,-0.41856
2561.76,729.689,-0.4185541
2572.26,731.4294,-0.4184086
2582.76,733.161,-0.4184006
2593.26,734.8924,-0.4183614
2603.76,736.6216,-0.4182826
2614.26,738.3596,-0.4182086
2624.76,740.0881,-0.4181362
2635.26,741.8224,-0.4179346
2645.76,743.5556,-0.4179322
2656.26,745.292,-0.4178027
2666.76,747.026,-0.4177353
2677.26,748.7538,-0.4176848
2687.76,750.4881,-0.4176444
2698.26,752.2244,-0.4175574
2708.76,753.9559,-0.4175362
2719.26,755.6913,-0.4174296
2729.76,757.4219,-0.4172549
2740.26,759.1516,-0.41725
2750.76,760.8861,-0.4172441
2761.26,762.6153,-0.4171817
2771.76,764.3521,-0.4170394
2782.26,766.087,-0.4168537
2792.76,767.8253,-0.416875
2803.26,769.5586,-0.4167586
2813.76,771.287,-0.4166226
2824.26,773.0185,-0.4166212
2834.76,774.7516,-0.4164653
2845.26,776.4864,-0.4164461
2855.76,778.216,-0.4164588
2866.26,779.9474,-0.416408
2876.76,781.6809,-0.416448
2887.26,783.4148,-0.4163164
2897.76,785.1509,-0.4162594
2908.26,786.886,-0.4162992
2918.76,788.6217,-0.4162744
2929.26,790.358,-0.4161654
2939.76,792.0899,-0.4161037
2950.26,793.8232,-0.4160758
2960.76,795.5586,-0.4160438
2971.26,797.292,-0.4160274
2981.76,799.023,-0.415676
2992.26,800.7545,-0.4155873
3002.76,802.4899,-0.4156787
3013.26,804.2186,-0.4155359
3013.76,804.3014,-0.415531