Folder: matl-db/Non-charring/PMMA/HKPolyU

Note: Non-charring/PMMA/HKPolyU/README.md
### Experimental Conditions, TGA
A TA Instruments SDT Q600 (V20.9 Build 20) was used to conduct Simultaneous Thermal Analysis (TGA + DSC) experiments. STA experiments performed in Nitrogen and in Air. Although tests were conducted simultaneously, TGA and DSC measurement data presented here are separated into two files, for consistency with other datasets.

* Heating Rate: 10 K/min
* Temperature program
  - Initial temperature 300 K
  - Isotherm: None [?]
  - Maximum Temperature 800 K
* Sample mass: ~4 mg
* Sample geometry: powdered
* Calibration type: Annual internal mass calibration  [?]
* Crucible type: 6.8? / 85 µL, Al2O3 crucibles        [?]
* Carrier Gas
  - Air or Nitrogen
  - Flow rate = 100 ml/min
 
| Test Name | O2 vol % |  Initial Sample Mass (mg) | 
| --------- | :----: | :------------------------:|
|HKPolyU\_STA\_N2\_1 |  0  | 4.104|  
|HKPolyU\_STA\_N2\_2 |  0  | 4.1896|  
|HKPolyU\_STA\_Air\_1 | 21? |3.9309|  
|HKPolyU\_STA\_Air\_2 | 21? |3.8808|  


### Experimental Conditions, Cone calorimeter
* Extraction flow rate: 7.14L/s
* Sample holder dimensions:
    - Insulation board with a dimension of 10 cm * 10 cm * 5 cm
* Backing Insulation: thermal conductivity?0.1 W/m.K, density?800 kg/m3, heat capacity?0.5
* Thermocouple location:
    - Back surface [center?]
###### Test Heating Conditions  
|Test Name | Heat Flux (kW/m2)| Heater Temperature (K) 
|----------|:------:| :---: |
|HKPolyU\_Cone\_25KW\_1 | 25| 900  |
|HKPolyU\_Cone\_25KW\_2 | 25| 900  |
|HKPolyU\_Cone\_65KW\_1 | 65| 1188 |
|HKPolyU\_Cone\_65KW\_2 | 65| 1188 |

File: HKPolyU_Cone_25kW_1.CSV
Time,Mass,Heat release,Back surface temperature
[s],[g],[kW],[K]
1,75.47,0.01,304.8
3,75.43,0.01,304.9
5,75.39,0.02,304.9
7,75.37,0.01,304.9
9,75.4,0.01,304.9
11,75.37,0.01,304.8
13,75.33,0.01,304.7
15,75.31,0.01,304.8
17,75.31,0.01,304.9
19,75.34,0.02,304.9
21,75.34,0.01,305.3
23,75.37,0.01,305.6
25,75.35,0.01,306
27,75.31,0.01,306.6
29,75.28,0.01,307.1
31,75.25,0.02,308
33,75.25,0.02,308.7
35,75.25,0.02,309.8
37,75.27,0.01,310.5
39,75.29,0.01,311.6
41,75.26,0.01,312.9
43,75.24,0.02,314.1
45,75.2,0.02,315.3
47,75.18,0.01,316.5
49,75.2,0.01,317.6
51,75.17,0.01,319.1
53,75.16,0.02,320.7
55,75.15,0.02,321.9
57,75.2,0.02,323.3
59,75.19,0.03,324.5
61,75.13,0.04,325.7
63,75.11,0.03,327.1
65,75.09,0.03,328.1
67,75.05,0.03,330.5
69,74.96,0.03,333.8
71,74.81,0.02,336.2
73,74.63,0.02,338.7
75,74.44,0.02,341.1
77,74.25,0.03,343.4
79,73.98,0.04,345.7
81,73.69,0.06,347.9
83,73.44,0.17,349.6
85,73.2,0.51,352
87,72.89,1.04,353.9
89,72.62,1.59,356.3
91,72.28,2.12,358
93,71.92,2.75,360.1
95,71.58,3.46,361.7
97,71.24,3.99,363.5
99,70.9,4.48,365.3
101,70.55,4.9,367.1
103,70.17,5.24,368.8
105,69.82,5.64,370.3
107,69.45,6.03,371.7
109,69.05,6.43,373.1
111,68.71,6.7,374.3
113,68.31,6.91,375.5
115,67.89,7.13,376.6
117,67.52,7.33,378
119,67.18,7.5,379.3
121,66.8,7.58,380.9
123,66.33,7.63,382.3
125,65.99,7.75,384.1
127,65.54,8.03,386.3
129,65.14,8.31,388.3
131,64.75,8.47,390.2
133,64.36,8.52,391.9
135,63.94,8.57,394
137,63.55,8.65,396.7
139,63.14,8.7,399.7
141,62.74,8.72,402.6
143,62.34,8.74,404.6
145,61.98,8.81,407.6
147,61.56,8.89,409.4
149,61.17,8.92,411.1
151,60.78,8.94,413.3
153,60.35,8.96,415.7
155,59.96,8.98,417.9
157,59.55,8.99,420.3
159,59.16,9.05,422.7
161,58.72,9.11,424.8
163,58.35,9.05,426.6
165,58.01,9.04,429.3
167,57.56,9.09,431.4
169,57.15,9.19,433.1
171,56.72,9.3,435.6
173,56.31,9.36,437.5
175,55.86,9.37,439.5
177,55.5,9.31,441.6
179,55.02,9.25,443.6
181,54.57,9.22,445.6
183,54.18,9.2,447.5
185,53.76,9.18,449.6
187,53.36,9.23,451.8
189,52.99,9.38,454.1
191,52.58,9.56,456.2
193,52.13,9.67,458
195,51.74,9.78,460
197,51.31,9.87,462
199,50.86,9.84,464
201,50.49,9.8,465.6
203,50.02,9.82,467.6
205,49.59,9.83,469.8
207,49.17,9.83,471.5
209,48.74,9.79,473.2
211,48.27,9.74,475.2
213,47.84,9.72,477.1
215,47.45,9.69,479.1
217,46.97,9.68,480.7
219,46.55,9.82,482.8
221,46.1,9.97,484.6
223,45.64,10.1,486.6
225,45.23,10.18,488
227,44.79,10.25,489.7
229,44.32,10.32,491.1
231,43.85,10.31,492.4
233,43.43,10.3,493.6
235,43,10.3,494.7
237,42.53,10.31,496.5
239,42.04,10.35,497.7
241,41.58,10.49,499.2
243,41.12,10.59,500.6
245,40.69,10.56,502.1
247,40.23,10.5,503.3
249,39.75,10.47,504.6
251,39.32,10.46,505.6
253,38.85,10.63,506.8
255,38.36,10.75,508
257,37.9,10.83,509.1
259,37.46,10.89,510
261,36.98,10.99,511.1
263,36.49,11.06,511.2
265,36.01,11.06,512.2
267,35.53,10.99,513.3
269,35.05,11,514.4
271,34.57,11.08,515.1
273,34.13,11.16,517.2
275,33.69,11.22,518.3
277,33.24,11.26,520.3
279,32.78,11.25,522.1
281,32.29,11.23,523.8
283,31.78,11.22,526.2
285,31.35,11.27,527.3
287,30.89,11.37,529.9
289,30.4,11.39,532.5
291,29.97,11.3,534.5
293,29.53,11.26,538.3
295,29.11,11.25,540.9
297,28.62,11.25,542.6
299,28.18,11.27,545
301,27.72,11.28,543.3
303,27.27,11.25,545.1
305,26.85,11.12,545.7
307,26.4,10.96,545.8
309,25.94,10.83,546.6
311,25.5,10.78,547.4
313,25.06,10.78,548.4
315,24.63,10.95,550.1
317,24.16,11.11,551
319,23.76,11.11,551.5
321,23.33,11.08,553
323,22.92,11.06,553.5
325,22.49,11.01,554.1
327,22.08,10.85,555
329,21.68,10.63,556.1
331,21.28,10.28,557.5
333,20.88,10.08,559
335,20.48,10.05,561.3
337,20.05,10.04,562.8
339,19.68,10.04,564.8
341,19.28,10.03,567
343,18.84,9.92,569.6
345,18.5,9.72,571.8
347,18.11,9.47,574.3
349,17.67,9.22,577.1
351,17.32,9.11,579.3
353,16.96,9.03,581.8
355,16.55,8.92,584.2
357,16.15,8.84,586.6
359,15.77,8.75,589.2
361,15.44,8.67,591.3
363,15.04,8.61,593.6
365,14.67,8.53,595.7
367,14.3,8.38,597.4
369,13.95,8.25,599.5
371,13.59,8.13,601.2
373,13.23,8.02,602.8
375,12.91,7.97,603.9
377,12.58,7.91,605
379,12.21,7.65,606.6
381,11.9,7.48,608.6
383,11.53,7.38,610.3
385,11.18,7.21,612.2
387,10.86,7.04,614.1
389,10.58,6.84,615.9
391,10.23,6.54,617.7
393,9.88,6.28,620.2
395,9.54,6.05,623
397,9.23,5.89,625.9
399,8.96,5.81,630.6
401,8.66,5.76,636.4
403,8.39,5.74,654.7
405,8.09,5.69,672.9
407,7.82,5.58,687.4
409,7.53,5.44,702.7
411,7.26,5.3,718.5
413,7,5.08,730.6
415,6.78,4.93,741.8
417,6.55,4.78,757.8
419,6.36,4.58,778.9
421,6.1,4.35,791.1
423,5.89,4.12,800.4
425,5.68,3.89,821.6
427,5.48,3.7,825.2
429,5.3,3.5,823.9
431,5.08,3.28,833.7
433,4.87,3.05,846.8
435,4.73,2.84,861.6
437,4.55,2.64,867.7
439,4.38,2.48,867.2
441,4.17,2.35,859.8
443,4.03,2.21,845.1
445,3.88,2.08,819.3
447,3.77,1.98,784
449,3.65,1.9,759.9
451,3.53,1.77,751.6
453,3.39,1.63,743.5
455,3.26,1.53,737.8
457,3.15,1.44,732.3
459,3.04,1.34,721.7
461,2.86,1.22,717.6
463,2.73,1.09,716.9
465,2.63,0.95,713.9
467,2.51,0.86,710.8
469,2.37,0.81,725.2
471,2.26,0.77,719.2
473,2.14,0.73,713.8
475,2,0.69,710.3
477,1.85,0.67,702.2
479,1.75,0.67,700.5
481,1.66,0.67,706.2
483,1.54,0.66,702.9
485,1.47,0.65,708.7
487,1.33,0.62,703.2
489,1.24,0.58,697.9
491,1.14,0.55,695.2
493,1.04,0.52,693.1
495,0.92,0.52,691.6
497,0.8,0.52,690.1
499,0.72,0.52,691
501,0.58,0.51,692.7
503,0.51,0.49,693
505,0.42,0.44,691.4
506,0.38,0.42,691.1

File: HKPolyU_Cone_25kW_2.CSV
Time,Mass,Heat release,Back surface temperature
[s],[g],[kW],[K]
1,77.53,0.02,305
3,77.52,0.02,305
5,77.51,0.01,305.1
7,77.49,0.04,305.1
9,77.49,0.06,305.1
11,77.5,0.04,305.1
13,77.5,0.02,305.1
15,77.52,0.01,304.9
17,77.51,0.02,304.9
19,77.5,0,304.9
21,77.5,0.01,305
23,77.49,0.01,305.3
25,77.47,0.01,305.6
27,77.47,0.03,305.6
29,77.47,0.03,305.8
31,77.45,0.03,306.4
33,77.45,0,306.9
35,77.47,0.03,307.4
37,77.45,0,308
39,77.46,0.03,308.7
41,77.42,0,309.5
43,77.41,0.01,310.4
45,77.41,0.04,311.3
47,77.4,0.04,312.1
49,77.39,0.03,312.9
51,77.38,0.03,313.9
53,77.35,0.02,314.8
55,77.35,0.03,315.9
57,77.36,0.03,317.1
59,77.35,0.03,318.1
61,77.34,0.03,319.2
63,77.35,0.05,320.3
65,77.35,0.11,321.5
67,77.31,0.19,322.4
69,77.23,0.25,323.4
71,77.09,0.22,324.5
73,76.93,0.22,325.6
75,76.8,0.23,326.8
77,76.63,0.3,328.2
79,76.41,0.44,329.5
81,76.19,0.71,331
83,75.93,1.21,333
85,75.67,1.72,335.9
87,75.43,2.17,338.7
89,75.07,2.72,341
91,74.76,3.37,343.2
93,74.43,3.9,345.3
95,74.07,4.36,347.3
97,73.79,4.8,349
99,73.44,5.17,350.7
101,73.06,5.6,352.4
103,72.74,6.08,353.9
105,72.37,6.47,355.3
107,72.01,6.76,356.5
109,71.62,7.01,357.6
111,71.24,7.22,358.7
113,70.81,7.39,359.5
115,70.49,7.56,360.3
117,70.11,7.77,361
119,69.73,7.93,361.7
121,69.35,8.12,361.7
123,68.96,8.35,361.3
125,68.54,8.49,361.1
127,68.19,8.64,360.7
129,67.82,8.74,359.9
131,67.41,8.79,358.7
133,67.01,8.83,357.9
135,66.6,8.83,356.9
137,66.25,8.83,356.5
139,65.81,8.8,356.3
141,65.41,8.77,356.2
143,64.99,8.82,356.5
145,64.62,8.87,357.4
147,64.21,8.86,358.3
149,63.86,8.83,360
151,63.42,8.82,362
153,63,8.86,363.4
155,62.64,9.11,365.2
157,62.27,9.35,365.6
159,61.83,9.44,366.3
161,61.46,9.47,366.9
163,61.05,9.46,367.2
165,60.63,9.41,368
167,60.2,9.37,368.8
169,59.8,9.29,369.4
171,59.43,9.21,371.4
173,59.02,9.18,373.3
175,58.6,9.18,374.7
177,58.2,9.23,376.3
179,57.78,9.29,377.6
181,57.42,9.43,378.9
183,57,9.56,379.8
185,56.61,9.64,381.2
187,56.17,9.55,382.2
189,55.77,9.41,383.4
191,55.37,9.34,384.5
193,54.96,9.36,385.6
195,54.53,9.41,386.4
197,54.13,9.47,387.7
199,53.73,9.55,388.3
201,53.31,9.63,389.4
203,52.9,9.65,390.4
205,52.55,9.65,391.1
207,52.09,9.65,392.2
209,51.69,9.64,393.1
211,51.24,9.57,394.2
213,50.81,9.53,395.2
215,50.46,9.54,396.2
217,50.08,9.62,397.1
219,49.62,9.68,398.2
221,49.19,9.72,398.9
223,48.8,9.74,399.8
225,48.4,9.76,400.9
227,47.95,9.76,401.9
229,47.56,9.69,402.8
231,47.12,9.64,403.7
233,46.7,9.62,404.6
235,46.29,9.66,405.4
237,45.85,9.71,406.2
239,45.42,9.8,406.9
241,45.03,9.87,407.6
243,44.61,9.92,408.7
245,44.15,9.96,409.4
247,43.75,9.98,409.9
249,43.3,10,410.7
251,42.83,10.02,411.2
253,42.49,10.03,411.9
255,42.02,10.03,412.7
257,41.64,10.01,413.7
259,41.15,9.98,414.3
261,40.77,9.99,414.7
263,40.33,9.99,415.4
265,39.93,10,416.1
267,39.51,10.04,416.8
269,39.1,10.09,417.6
271,38.61,10.16,418.3
273,38.15,10.23,419
275,37.74,10.24,419.6
277,37.33,10.12,420.2
279,36.88,10.02,420.4
281,36.45,10.05,420.7
283,36.04,10.2,421.4
285,35.6,10.31,421.8
287,35.16,10.35,422
289,34.74,10.35,421.5
291,34.26,10.32,421.1
293,33.85,10.24,420.7
295,33.38,10.19,420.4
297,32.95,10.26,419.3
299,32.52,10.33,417.9
301,32.09,10.38,417
303,31.65,10.48,417.1
305,31.24,10.53,417.5
307,30.83,10.56,417.8
309,30.35,10.54,417.8
311,29.91,10.47,417.1
313,29.45,10.4,416.9
315,28.99,10.36,416.5
317,28.53,10.42,416
319,28.1,10.55,416.2
321,27.66,10.64,417.5
323,27.16,10.71,418.2
325,26.77,10.76,418.9
327,26.34,10.77,420.4
329,25.87,10.77,422.8
331,25.44,10.76,426.5
333,25.03,10.75,437.2
335,24.6,10.72,446.3
337,24.17,10.73,452.5
339,23.73,10.73,458.7
341,23.31,10.72,465.6
343,22.89,10.67,471.3
345,22.51,10.53,478.6
347,22.1,10.39,483.1
349,21.65,10.3,486.3
351,21.28,10.16,490
353,20.87,10.03,496
355,20.46,9.93,500.9
357,20.08,9.86,505.3
359,19.72,9.83,509.7
361,19.34,9.74,514.4
363,18.95,9.53,519.4
365,18.51,9.43,524.3
367,18.16,9.38,528.2
369,17.77,9.23,532.4
371,17.37,9.02,536.1
373,17.03,8.87,540.5
375,16.69,8.79,544.8
377,16.3,8.67,548.7
379,15.91,8.52,552.7
381,15.58,8.37,556.4
383,15.21,8.21,559.9
385,14.86,8.11,562.8
387,14.51,7.93,566
389,14.18,7.71,568.9
391,13.87,7.59,571.2
393,13.52,7.4,574.2
395,13.14,7.23,576.8
397,12.78,7.12,580.9
399,12.44,6.99,583.9
401,12.1,6.85,586.2
403,11.73,6.63,586.8
405,11.38,6.46,591.9
407,11.02,6.39,592.5
409,10.62,6.38,595.8
411,10.3,6.37,597.9
413,9.98,6.33,598.8
415,9.68,6.27,600.2
417,9.36,6.23,601.3
419,8.99,6.19,602.6
421,8.61,6.09,604
423,8.33,5.93,606.1
425,8.01,5.75,609.1
427,7.69,5.53,612.4
429,7.45,5.27,616.7
431,7.16,5.08,620.4
433,6.92,4.9,624.2
435,6.62,4.72,629.3
437,6.36,4.58,636.7
439,6.12,4.42,645.7
441,5.89,4.3,654.2
443,5.66,4.1,664.4
445,5.41,3.86,677.2
447,5.15,3.62,686.5
449,4.94,3.42,695.2
451,4.74,3.24,705.6
453,4.53,3.05,714.6
455,4.34,2.81,731.1
457,4.12,2.59,741
459,3.95,2.42,753.8
461,3.75,2.24,767.9
463,3.62,2.11,774.6
465,3.47,2.01,774
467,3.28,1.9,751.1
469,3.14,1.68,721.5
471,3.05,1.47,698.6
473,2.89,1.27,680.7
475,2.79,1.08,666.7
477,2.68,0.89,655.8
479,2.57,0.73,647
481,2.43,0.56,640.2
483,2.36,0.4,634.3
485,2.25,0.29,631
487,2.12,0.22,628.2
489,2.04,0.18,623.6
491,1.9,0.15,622.4
493,1.75,0.14,621.5
495,1.69,0.13,620.4
497,1.55,0.12,619.6
499,1.44,0.12,619.4
501,1.34,0.12,617.9
503,1.22,0.11,618.3
505,1.1,0.1,617.2
507,0.99,0.1,615.7
509,0.89,0.09,615

File: HKPolyU_Cone_65kW_1.CSV
Time,Mass,Heat release,Back surface temperature
[s],[g],[kW],[K]
1,81.94,0,297.2
2,81.93,0.01,297.2
3,81.92,0.01,297.2
4,81.9,0.01,297.2
5,81.91,0,297.3
6,81.9,0,297.3
7,81.91,0,297.3
8,81.9,0.01,297.3
9,81.88,0.01,297.3
10,81.86,0.01,297.3
11,81.86,0,297.3
12,81.87,0,297.3
13,81.89,0,297.3
14,81.88,0.01,297.3
15,81.82,0.01,297.4
16,81.74,0.01,297.4
17,81.6,0,297.5
18,81.42,0,297.6
19,81.22,0.01,297.6
20,80.99,0,297.7
21,80.72,0,297.9
22,80.47,0,298
23,80.18,0,298.3
24,79.89,0.01,298.4
25,79.56,0.02,298.7
26,79.21,0.03,299.1
27,78.91,0.04,299.4
28,78.58,0.09,299.8
29,78.23,0.21,300.2
30,77.88,0.5,300.7
31,77.55,0.97,301.2
32,77.2,1.69,301.7
33,76.81,2.7,302.3
34,76.47,4.12,303
35,76.1,5.35,303.7
36,75.72,6.65,304.5
37,75.32,7.87,305.3
38,74.95,9.05,306.2
39,74.6,10.22,307.2
40,74.21,11.32,308
41,73.86,12.41,309
42,73.55,13.08,310
43,72.98,13.61,311.1
44,72.63,15.11,312.2
45,72.24,15.84,313.3
46,71.85,16.44,314.3
47,71.5,17.04,315.6
48,71.13,17.67,316.8
49,70.73,18.21,317.9
50,70.35,18.61,319.1
51,69.96,18.92,320.4
52,69.57,19.22,321.6
53,69.17,19.55,322.9
54,68.79,19.94,324.1
55,68.42,20.29,325.5
56,67.99,20.55,326.8
57,67.6,20.71,328.1
58,67.23,20.84,329.5
59,66.85,20.99,330.8
60,66.46,21.17,332.2
61,66.03,21.33,333.6
62,65.66,21.44,334.9
63,65.28,21.5,336.4
64,64.91,21.47,337.7
65,64.51,21.43,339.1
66,64.12,21.4,340.6
67,63.72,21.38,342
68,63.35,21.42,343.4
69,63,21.57,344.8
70,62.62,21.74,346.4
71,62.22,21.88,347.9
72,61.81,21.98,349.5
73,61.4,22.08,351.1
74,60.99,22.17,352.7
75,60.62,22.22,354
76,60.22,22.29,355.6
77,59.81,22.4,357
78,59.43,22.5,358.5
79,59.06,22.57,359.7
80,58.68,22.61,361.1
81,58.3,22.62,362.4
82,57.88,22.6,363.6
83,57.48,22.54,364.9
84,57.08,22.5,365.9
85,56.7,22.46,366.8
86,56.31,22.42,367.8
87,55.9,22.4,368.3
88,55.52,22.44,368.8
89,55.15,22.55,369.3
90,54.77,22.71,369.6
91,54.38,22.87,370
92,53.97,23,370.5
93,53.57,23.09,371
94,53.19,23.19,371.6
95,52.78,23.28,372.3
96,52.41,23.35,373.3
97,52.02,23.36,374.2
98,51.62,23.35,375.3
99,51.21,23.33,376.6
100,50.82,23.26,378
101,50.46,23.19,379.9
102,50.06,23.14,381.9
103,49.67,23.1,383.9
104,49.28,23.07,386
105,48.9,23.06,388.2
106,48.51,23.09,390.3
107,48.12,23.13,392.5
108,47.77,23.16,394.6
109,47.37,23.13,396.7
110,46.98,23.05,398.8
111,46.57,23,400.9
112,46.2,22.97,402.9
113,45.82,22.96,404.9
114,45.43,23,406.9
115,45.02,23.03,408.9
116,44.64,23.06,410.8
117,44.27,23.13,412.8
118,43.86,23.19,414.8
119,43.44,23.24,416.7
120,43.04,23.27,418.6
121,42.72,23.13,420.6
122,42.35,22.91,422.5
123,41.99,22.74,424.4
124,41.63,22.63,426.6
125,41.23,22.57,428.6
126,40.83,22.56,430.8
127,40.42,22.67,432.8
128,40.01,22.82,435
129,39.57,22.96,437.3
130,39.17,23.08,439.6
131,38.78,23.18,441.8
132,38.39,23.31,444
133,37.98,23.47,446.2
134,37.54,23.65,448.5
135,37.13,23.83,450.7
136,36.71,23.97,453
137,36.3,24.06,455.3
138,35.89,24.06,457.6
139,35.47,23.95,460
140,35.09,23.82,462.1
141,34.66,23.73,464.4
142,34.24,23.86,466.7
143,33.83,24.15,469
144,33.4,24.43,471.2
145,32.97,24.64,473.2
146,32.56,24.78,475
147,32.16,24.87,476.4
148,31.73,24.82,477.6
149,31.32,24.7,478.6
150,30.87,24.61,479.7
151,30.4,24.64,480.8
152,29.95,24.84,482
153,29.5,25.1,483.3
154,29.06,25.31,484.8
155,28.6,25.46,486.6
156,28.15,25.63,488.3
157,27.69,25.79,490.3
158,27.23,26.02,492.4
159,26.79,26.3,494.9
160,26.35,26.56,496.9
161,25.91,26.75,499.1
162,25.46,26.9,501.2
163,24.99,27.06,503.2
164,24.52,27.2,506.1
165,24.07,27.32,509.3
166,23.62,27.44,511.9
167,23.19,27.53,514.2
168,22.73,27.59,516
169,22.28,27.68,517.9
170,21.84,27.84,520.2
171,21.42,28.04,523
172,21.02,28.26,526.4
173,20.63,28.41,529.4
174,20.22,28.53,533
175,19.8,28.61,536.4
176,19.41,28.69,539.8
177,19.01,28.77,543.2
178,18.6,28.89,546.9
179,18.21,28.99,550.3
180,17.82,29.05,553.5
181,17.45,29.09,556.5
182,17.08,29.06,558.9
183,16.7,28.92,560.8
184,16.3,28.71,562.6
185,15.87,28.41,564.7
186,15.48,28.06,565.4
187,15.08,27.6,563.4
188,14.71,27.06,556.3
189,14.35,26.48,542.6
190,13.96,25.96,541.8
191,13.6,25.49,548.6
192,13.26,25.09,563.3
193,12.91,24.77,594.5
194,12.58,24.55,615.5
195,12.28,24.32,644.5
196,11.98,24.08,679.9
197,11.68,23.82,656.8
198,11.37,23.57,680.7
199,11.06,23.36,706.7
200,10.78,23.18,730.1
201,10.48,22.94,752.6
202,10.18,22.58,774.3
203,9.89,22.08,792.7
204,9.58,21.58,809.2
205,9.26,21.03,827.7
206,8.99,20.41,842.6
207,8.74,19.59,851.9
208,8.49,18.7,910.8
209,8.26,17.69,954.6
210,8.04,16.85,942.1
211,7.79,15.99,949.5
212,7.54,15.13,954.5
213,7.32,14.34,965.3
214,7.11,13.6,979.2
215,6.91,12.71,987
216,6.73,11.85,990.9
217,6.55,11.09,1003.9
218,6.35,10.33,1006.8
219,6.16,9.66,1002.5
220,5.95,9.02,1000
221,5.8,8.36,998.7
222,5.62,7.68,986.5
223,5.42,7.01,989.1
224,5.24,6.41,982.3
225,5.06,5.82,966.8
226,4.89,5.29,945.4
227,4.69,4.77,937.5
228,4.53,4.32,929.2
229,4.39,3.89,924.9
230,4.2,3.54,919.2
231,4.05,3.19,911.6
232,3.9,2.87,905.7
233,3.75,2.54,901.7
234,3.61,2.21,900
235,3.43,1.93,897.8
236,3.25,1.68,896.5
237,3.12,1.49,895.5
238,2.98,1.32,893.7
239,2.82,1.18,892.5
240,2.66,1.03,892.6
241,2.49,0.88,891.5
242,2.34,0.74,892.2
243,2.18,0.61,891
244,2.03,0.51,891.1
245,1.87,0.43,888.9
246,1.72,0.36,889.7
247,1.58,0.31,887.9
248,1.41,0.26,887.7
249,1.26,0.21,887.6
250,1.11,0.18,887.1
251,0.92,0.15,888
252,0.75,0.13,885.8
253,0.6,0.12,886.5
254,0.47,0.1,886.1
255,0.33,0.1,885.6

File: HKPolyU_Cone_65kW_2.CSV
Time,Mass,Heat release,Back surface temperature
[s],[g],[kW],[K]
1,79.79,0.01,296.3
2,79.75,0.01,296.4
3,79.73,0,296.3
4,79.73,0,297.4
5,79.71,0,297.3
6,79.7,0.01,297.3
7,79.72,0.01,297.3
8,79.71,0.01,297.3
9,79.69,0,297.1
10,79.66,0,297.3
11,79.66,0,296.6
12,79.69,0.01,296.7
13,79.69,0.01,296.7
14,79.66,0.01,296.8
15,79.6,0,296.8
16,79.5,0,296.7
17,79.35,0,296.8
18,79.19,0.01,296.7
19,78.98,0.01,296.9
20,78.73,0.01,297
21,78.45,0,297.6
22,78.17,0,297.7
23,77.89,0.01,297.9
24,77.59,0.02,298.1
25,77.24,0.02,297.6
26,76.93,0.02,297.9
27,76.6,0.04,298.2
28,76.28,0.11,298.6
29,75.96,0.26,299.1
30,75.6,0.64,299.5
31,75.24,1.36,299.7
32,74.87,2.26,300.2
33,74.49,3.35,300.9
34,74.13,4.58,301.3
35,73.76,5.82,301.8
36,73.39,6.99,302.5
37,72.97,8.24,303.3
38,72.59,9.64,303.8
39,72.22,10.94,304.8
40,71.86,12.12,305.5
41,71.46,13.06,306.4
42,71.09,13.87,307.2
43,70.73,14.76,308
44,70.34,15.61,308.9
45,69.94,16.33,309.7
46,69.52,17.01,310.6
47,69.13,17.64,311.6
48,68.77,18.13,312.4
49,68.38,18.58,313.5
50,67.97,19,314.5
51,67.59,19.36,315.4
52,67.23,19.67,316.3
53,66.85,19.9,317.2
54,66.44,20.1,318.3
55,66.02,20.24,319.5
56,65.67,20.39,320.2
57,65.31,20.55,321.3
58,64.91,20.69,322.4
59,64.53,20.8,323.4
60,64.14,20.9,324.2
61,63.74,20.97,325.5
62,63.34,21.02,326.4
63,62.98,21.05,327.4
64,62.58,21.11,328.5
65,62.15,21.22,329.5
66,61.79,21.39,330.2
67,61.42,21.56,331.5
68,61.01,21.73,332.7
69,60.57,21.88,333.9
70,60.2,21.99,335.4
71,59.81,22.06,336.7
72,59.4,22.1,338.2
73,59,22.12,339.9
74,58.62,22.17,340.5
75,58.23,22.24,342.4
76,57.85,22.32,343.8
77,57.45,22.38,347.1
78,57.06,22.41,349.1
79,56.66,22.4,350.7
80,56.28,22.4,351.9
81,55.88,22.42,353.9
82,55.48,22.46,351.6
83,55.08,22.52,355
84,54.69,22.6,356.2
85,54.29,22.71,358.2
86,53.87,22.83,357
87,53.48,22.93,327.3
88,53.1,23.02,361.7
89,52.72,23.07,343.8
90,52.31,23.1,364.6
91,51.92,23.1,361.3
92,51.53,23.04,365
93,51.14,22.97,353.1
94,50.74,22.92,367.3
95,50.32,22.9,361.3
96,49.93,22.97,364.7
97,49.54,23.09,371.6
98,49.13,23.19,362.7
99,48.75,23.25,350.6
100,48.37,23.29,376
101,47.98,23.3,378.2
102,47.6,23.3,379.6
103,47.2,23.34,379.9
104,46.79,23.39,384.2
105,46.4,23.42,385.5
106,46.01,23.46,387.9
107,45.61,23.47,389.8
108,45.2,23.49,391.7
109,44.83,23.52,393.2
110,44.46,23.56,395.1
111,44.06,23.6,394.4
112,43.68,23.62,369.3
113,43.28,23.63,382.4
114,42.87,23.62,379.3
115,42.45,23.61,383.1
116,42.09,23.57,389.8
117,41.69,23.47,392
118,41.31,23.39,281.9
119,40.92,23.33,392
120,40.52,23.32,391.9
121,40.12,23.31,390.3
122,39.7,23.31,392.5
123,39.29,23.32,394.6
124,38.89,23.32,396.7
125,38.5,23.32,398.8
126,38.08,23.34,400.9
127,37.67,23.38,402.9
128,37.26,23.52,404.9
129,36.85,23.73,406.9
130,36.42,23.91,408.9
131,36.02,24.01,410.8
132,35.61,24.06,412.8
133,35.19,24.07,414.8
134,34.79,24.08,416.7
135,34.38,24.09,418.6
136,33.97,24.09,420.6
137,33.56,24.14,422.5
138,33.14,24.24,424.4
139,32.73,24.36,426.6
140,32.32,24.48,428.6
141,31.89,24.67,430.8
142,31.44,24.85,432.8
143,31,25.01,435
144,30.58,25.13,437.3
145,30.12,25.21,439.6
146,29.66,25.32,441.8
147,29.23,25.42,444
148,28.79,25.5,446.2
149,28.34,25.55,469.4
150,27.91,25.64,471.3
151,27.47,25.73,474.1
152,27.01,25.79,476.8
153,26.55,25.84,479.9
154,26.08,25.86,481.6
155,25.63,25.87,483.8
156,25.21,25.97,489.8
157,24.79,26.22,488.7
158,24.32,26.51,486.1
159,23.84,26.72,497.8
160,23.42,26.86,506.7
161,22.97,26.98,503.6
162,22.52,27.17,507.3
163,22.05,27.43,508.3
164,21.58,27.75,511.5
165,21.14,28.03,511.9
166,20.67,28.23,513.8
167,20.23,28.39,512.3
168,19.74,28.5,512.9
169,19.3,28.67,514.5
170,18.87,28.82,517.4
171,18.46,28.94,521.1
172,18.03,29.12,523.8
173,17.59,29.28,531.3
174,17.13,29.4,532.4
175,16.72,29.5,537.3
176,16.3,29.57,538.9
177,15.89,29.64,545.1
178,15.48,29.7,547.1
179,15.06,29.74,550.9
180,14.63,29.73,556.4
181,14.24,29.65,558.8
182,13.81,29.52,562.8
183,13.38,29.35,568.2
184,12.97,29.09,570.4
185,12.6,28.78,575.4
186,12.19,28.51,576.8
187,11.79,28.28,581.2
188,11.41,28.05,584.9
189,11.03,27.84,588.6
190,10.64,27.65,592.2
191,10.29,27.45,602.4
192,9.95,27.26,616.4
193,9.62,27.14,630.8
194,9.3,27.01,647.1
195,9,26.83,667.6
196,8.71,26.59,691.6
197,8.41,26.32,714.6
198,8.14,26.1,735.9
199,7.87,25.92,753.4
200,7.58,25.75,769.4
201,7.29,25.42,783.4
202,7.02,24.95,802.3
203,6.77,24.24,832.4
204,6.5,23.28,852.2
205,6.31,22.02,867.1
206,6.1,20.85,881.1
207,5.89,19.8,891.8
208,5.69,18.81,902.5
209,5.46,18,914.9
210,5.28,17.01,926.5
211,5.04,15.83,935.9
212,4.85,14.55,947.7
213,4.68,13.38,958.2
214,4.48,12.29,965.7
215,4.29,11.3,966
216,4.1,10.51,973.1
217,3.92,9.78,975.2
218,3.77,8.96,979.6
219,3.61,8.15,982.5
220,3.44,7.44,988.2
221,3.27,6.78,989.7
222,3.13,6.12,988.1
223,2.96,5.51,988.8
224,2.81,4.92,987.2
225,2.65,4.4,985.2
226,2.48,3.98,982.6
227,2.33,3.65,973.7
228,2.18,3.35,968.3
229,2.02,3.07,957.6
230,1.88,2.79,948.7
231,1.76,2.54,943.4
232,1.59,2.34,936.5
233,1.42,2.16,928
234,1.29,2,920.9
235,1.18,1.81,915.9
236,1.03,1.62,911.6
237,0.86,1.43,908.6
238,0.72,1.24,905.6
239,0.57,1.08,904.2
240,0.43,0.95,903.1
241,0.25,0.83,902.1
242,0.15,0.72,900.2
243,0.02,0.63,899.3