Folder: matl-db/Non-charring/PMMA/HKPolyU (part 3)

File: HKPolyU_DSC_N2_2.csv
Time,Temperature,Heat Flow
[s],[k],[W/g]
0.15,300.048,2.91094
10.26,302.387,3.72779
20.76,304.673,3.69396
31.26,306.8776,3.60849
41.76,308.987,3.46647
52.26,311.002,3.27306
62.76,312.929,3.03081
73.26,314.772,2.75324
83.76,316.546,2.45367
94.26,318.27,2.13626
104.76,319.951,1.81711
115.26,321.616,1.50189
125.76,323.272,1.20143
136.26,324.952,0.917153
146.76,326.632,0.656235
157.26,328.344,0.420114
167.76,330.08,0.209743
178.26,331.843,0.0216553
188.76,333.6265,-0.14246
199.26,335.4346,-0.287089
209.76,337.265,-0.416603
220.26,339.0954,-0.530107
230.76,340.9394,-0.631192
241.26,342.786,-0.725132
251.76,344.618,-0.811588
262.26,346.454,-0.890526
272.76,348.283,-0.964755
283.26,350.1086,-1.03444
293.76,351.918,-1.10023
304.26,353.724,-1.15909
314.76,355.511,-1.21504
325.26,357.287,-1.26545
335.76,359.067,-1.31206
346.26,360.844,-1.35403
356.76,362.613,-1.39118
367.26,364.379,-1.4229
377.76,366.148,-1.44996
388.26,367.918,-1.47205
398.76,369.685,-1.48949
409.26,371.469,-1.50195
419.76,373.2419,-1.51042
430.26,375.0263,-1.51522
440.76,376.8034,-1.51678
451.26,378.5948,-1.51487
461.76,380.3809,-1.51287
472.26,382.1685,-1.50928
482.76,383.9473,-1.50373
493.26,385.7388,-1.49796
503.76,387.519,-1.49156
514.26,389.2897,-1.48654
524.76,391.0704,-1.47956
535.26,392.8396,-1.47337
545.76,394.6164,-1.46794
556.26,396.392,-1.46166
566.76,398.1717,-1.4545
577.26,399.9391,-1.44696
587.76,401.702,-1.43664
598.26,403.4664,-1.42657
608.76,405.2345,-1.4158
619.26,406.9983,-1.40445
629.76,408.768,-1.39188
640.26,410.5402,-1.37942
650.76,412.304,-1.36684
661.26,414.0772,-1.35417
671.76,415.837,-1.3418
682.26,417.6036,-1.32883
692.76,419.3748,-1.31579
703.26,421.1343,-1.30368
713.76,422.8988,-1.29068
724.26,424.6706,-1.27837
734.76,426.4331,-1.26552
745.26,428.2035,-1.25409
755.76,429.9579,-1.24368
766.26,431.7229,-1.23256
776.76,433.4886,-1.22295
787.26,435.2527,-1.21289
797.76,437.0016,-1.20354
808.26,438.7618,-1.1941
818.76,440.5215,-1.18509
829.26,442.2762,-1.17747
839.76,444.0322,-1.16968
850.26,445.796,-1.16174
860.76,447.5541,-1.15413
871.26,449.3068,-1.14596
881.76,451.0724,-1.13527
892.26,452.8293,-1.12563
902.76,454.5793,-1.11621
913.26,456.3371,-1.10071
923.76,458.0938,-1.08449
934.26,459.8518,-1.07003
944.76,461.6041,-1.05527
955.26,463.3601,-1.04087
965.76,465.1255,-1.02292
976.26,466.8816,-1.00515
986.76,468.634,-0.989412
997.26,470.3808,-0.972256
1007.76,472.1373,-0.954311
1018.26,473.8842,-0.937343
1028.76,475.6412,-0.919514
1039.26,477.3898,-0.900952
1049.76,479.1438,-0.883358
1060.26,480.8992,-0.863763
1070.76,482.6553,-0.843461
1081.26,484.4117,-0.82375
1091.76,486.1703,-0.800836
1102.26,487.9272,-0.777967
1112.76,489.6776,-0.752917
1123.26,491.4278,-0.727982
1133.76,493.1783,-0.700002
1144.26,494.9366,-0.671829
1154.76,496.6822,-0.644026
1165.26,498.436,-0.614586
1175.76,500.1898,-0.588012
1186.26,501.9455,-0.561559
1196.76,503.7008,-0.533609
1207.26,505.4497,-0.506215
1217.76,507.1912,-0.479845
1228.26,508.944,-0.456435
1238.76,510.6868,-0.428498
1249.26,512.4296,-0.40244
1259.76,514.171,-0.378247
1270.26,515.9207,-0.354053
1280.76,517.6664,-0.329235
1291.26,519.4083,-0.304313
1301.76,521.1491,-0.282138
1312.26,522.902,-0.256369
1322.76,524.6419,-0.230143
1333.26,526.387,-0.207712
1343.76,528.133,-0.184472
1354.26,529.8737,-0.162882
1364.76,531.6174,-0.137204
1375.26,533.3698,-0.114619
1385.76,535.11,-0.0960608
1396.26,536.8525,-0.0737256
1406.76,538.5924,-0.0503466
1417.26,540.335,-0.0296466
1427.76,542.0763,-0.009738281
1438.26,543.8164,0.0132057
1448.76,545.5582,0.0337523
1459.26,547.3004,0.0542794
1469.76,549.0379,0.0734681
1480.26,550.779,0.0904471
1490.76,552.5133,0.107445
1501.26,554.2622,0.126587
1511.76,555.996,0.143475
1522.26,557.7344,0.157965
1532.76,559.4694,0.178608
1543.26,561.2062,0.193614
1553.76,562.9448,0.206714
1564.26,564.679,0.222871
1574.76,566.4175,0.239878
1585.26,568.1564,0.255392
1595.76,569.8972,0.270681
1606.26,571.6292,0.287373
1616.76,573.3676,0.307146
1627.26,575.1104,0.322491
1637.76,576.8459,0.340179
1648.26,578.5775,0.355063
1658.76,580.318,0.362757
1669.26,582.0515,0.373977
1679.76,583.785,0.382071
1690.26,585.5236,0.388175
1700.76,587.2529,0.390299
1711.26,588.9935,0.391125
1721.76,590.7224,0.389438
1732.26,592.4555,0.381734
1742.76,594.1794,0.367768
1753.26,595.9144,0.353059
1763.76,597.6365,0.335545
1774.26,599.3609,0.31126
1784.76,601.0856,0.282055
1795.26,602.8014,0.251879
1805.76,604.52,0.211907
1816.26,606.2375,0.165708
1826.76,607.952,0.119388
1837.26,609.6806,0.06476
1847.76,611.3938,0.003437531
1858.26,613.1081,-0.0683315
1868.76,614.8202,-0.140728
1879.26,616.5332,-0.222444
1889.76,618.2428,-0.306347
1900.26,619.9483,-0.396837
1910.76,621.6598,-0.487391
1921.26,623.365,-0.573951
1931.76,625.0706,-0.659659
1942.26,626.7867,-0.741092
1952.76,628.5023,-0.809491
1963.26,630.2226,-0.864652
1973.76,631.9502,-0.895612
1984.26,633.6778,-0.910496
1994.76,635.416,-0.902084
2005.26,637.1556,-0.878127
2015.76,638.886,-0.883724
2026.26,640.6306,-0.837091
2036.76,642.364,-0.803579
2047.26,644.1097,-0.756853
2057.76,645.8536,-0.692291
2068.26,647.6033,-0.611593
2078.76,649.356,-0.524532
2089.26,651.1097,-0.421991
2099.76,652.87,-0.308413
2110.26,654.6306,-0.181281
2120.76,656.3921,-0.0394231
2131.26,658.1508,0.112868
2141.76,659.9152,0.27714
2152.26,661.6859,0.44446
2162.76,663.4552,0.613522
2173.26,665.22,0.778568
2183.76,666.9843,0.940106
2194.26,668.7489,1.0969
2204.76,670.512,1.25011
2215.26,672.2668,1.395
2225.76,674.021,1.53292
2236.26,675.7798,1.66307
2246.76,677.5317,1.78018
2257.26,679.2863,1.89044
2267.76,681.0402,1.99122
2278.26,682.7882,2.08483
2288.76,684.5313,2.16716
2299.26,686.273,2.24514
2309.76,688.0206,2.32324
2320.26,689.7649,2.38731
2330.76,691.5083,2.44917
2341.26,693.2504,2.50816
2351.76,694.9894,2.56106
2362.26,696.7219,2.61194
2372.76,698.4596,2.66014
2383.26,700.1974,2.70782
2393.76,701.9329,2.7493
2404.26,703.6712,2.79065
2414.76,705.4096,2.82906
2425.26,707.147,2.86771
2435.76,708.885,2.90289
2446.26,710.6218,2.94453
2456.76,712.3586,2.97928
2467.26,714.0876,3.00753
2477.76,715.8283,3.03892
2488.26,717.5549,3.06306
2498.76,719.2946,3.08754
2509.26,721.0262,3.11046
2519.76,722.76,3.13571
2530.26,724.4914,3.15964
2540.76,726.2301,3.18126
2551.26,727.9604,3.2098
2561.76,729.689,3.23084
2572.26,731.4294,3.2527
2582.76,733.161,3.27194
2593.26,734.8924,3.2894
2603.76,736.6216,3.31372
2614.26,738.3596,3.33615
2624.76,740.0881,3.35418
2635.26,741.8224,3.37477
2645.76,743.5556,3.39742
2656.26,745.292,3.41996
2666.76,747.026,3.44171
2677.26,748.7538,3.46011
2687.76,750.4881,3.47777
2698.26,752.2244,3.49655
2708.76,753.9559,3.51563
2719.26,755.6913,3.53708
2729.76,757.4219,3.55426
2740.26,759.1516,3.57156
2750.76,760.8861,3.59223
2761.26,762.6153,3.60869
2771.76,764.3521,3.62481
2782.26,766.087,3.64435
2792.76,767.8253,3.65813
2803.26,769.5586,3.67645
2813.76,771.287,3.68532
2824.26,773.0185,3.70095
2834.76,774.7516,3.71638
2845.26,776.4864,3.73667
2855.76,778.216,3.75355
2866.26,779.9474,3.76931
2876.76,781.6809,3.78034
2887.26,783.4148,3.79374
2897.76,785.1509,3.80497
2908.26,786.886,3.8183
2918.76,788.6217,3.8298
2929.26,790.358,3.84123
2939.76,792.0899,3.84759
2950.26,793.8232,3.86177
2960.76,795.5586,3.87466
2971.26,797.292,3.89313
2981.76,799.023,3.90409
2992.26,800.7545,3.91673
3002.76,802.4899,3.92772
3013.26,804.2186,3.93985
3013.76,804.3014,3.94069

File: HKPolyU_TGA_Air_1.csv
Time,Temperature,Mass
[s],[k],[mg]
0.19,302.027,3.9309
10.26,302.043,3.9304
20.76,302.141,3.9295
31.26,302.489,3.9283
41.76,303.152,3.9269
52.26,304.182,3.9252
62.76,305.563,3.9239
73.26,307.262,3.9228
83.76,309.213,3.9219
94.26,311.338,3.9214
104.76,313.581,3.9209
115.26,315.857,3.9206
125.76,318.124,3.9205
136.26,320.342,3.9205
146.76,322.498,3.9206
157.26,324.545,3.9207
167.76,326.5,3.921
178.26,328.381,3.9213
188.76,330.174,3.9215
199.26,331.917,3.9217
209.76,333.604,3.9217
220.26,335.267,3.9218
230.76,336.909,3.9218
241.26,338.56,3.9218
251.76,340.219,3.9218
262.26,341.91,3.9218
272.76,343.615,3.9218
283.26,345.348,3.9217
293.76,347.119,3.9217
304.26,348.904,3.9217
314.76,350.704,3.9218
325.26,352.526,3.9219
335.76,354.354,3.9219
346.26,356.187,3.922
356.76,358.02,3.922
367.26,359.854,3.9221
377.76,361.677,3.9222
388.26,363.496,3.9223
398.76,365.297,3.9229
409.26,367.103,3.923
419.76,368.895,3.9231
430.26,370.671,3.923
440.76,372.435,3.9231
451.26,374.213,3.9231
461.76,375.974,3.922
472.26,377.73,3.9218
482.76,379.493,3.9217
493.26,381.246,3.9216
503.76,383.011,3.9215
514.26,384.783,3.9213
524.76,386.56,3.9212
535.26,388.329,3.921
545.76,390.104,3.921
556.26,391.878,3.9209
566.76,393.651,3.9208
577.26,395.434,3.9208
587.76,397.209,3.9206
598.26,398.989,3.9204
608.76,400.769,3.9202
619.26,402.539,3.92
629.76,404.316,3.9195
640.26,406.087,3.9193
650.76,407.845,3.919
661.26,409.611,3.9185
671.76,411.384,3.9181
682.26,413.144,3.9177
692.76,414.908,3.9171
703.26,416.67,3.9167
713.76,418.436,3.9163
724.26,420.193,3.9158
734.76,421.958,3.9155
745.26,423.721,3.9149
755.76,425.484,3.9144
766.26,427.248,3.9139
776.76,429.012,3.9136
787.26,430.782,3.9133
797.76,432.538,3.9127
808.26,434.3,3.9124
818.76,436.06,3.9118
829.26,437.817,3.9114
839.76,439.585,3.9112
850.26,441.343,3.9108
860.76,443.106,3.9103
871.26,444.859,3.9099
881.76,446.622,3.9096
892.26,448.394,3.9093
902.76,450.146,3.9089
913.26,451.902,3.9084
923.76,453.658,3.9081
934.26,455.408,3.9078
944.76,457.162,3.9077
955.26,458.917,3.9071
965.76,460.676,3.907
976.26,462.428,3.9066
986.76,464.184,3.9064
997.26,465.939,3.9063
1007.76,467.692,3.9058
1018.26,469.444,3.9057
1028.76,471.2,3.9055
1039.26,472.963,3.9053
1049.76,474.711,3.9052
1060.26,476.459,3.905
1070.76,478.218,3.9049
1081.26,479.974,3.9048
1091.76,481.727,3.9046
1102.26,483.477,3.9046
1112.76,485.227,3.9044
1123.26,486.978,3.9044
1133.76,488.736,3.9044
1144.26,490.487,3.9042
1154.76,492.248,3.9041
1165.26,493.993,3.904
1175.76,495.746,3.9038
1186.26,497.496,3.9039
1196.76,499.24,3.9039
1207.26,500.99,3.9037
1217.76,502.734,3.9037
1228.26,504.481,3.9035
1238.76,506.228,3.9034
1249.26,507.978,3.9035
1259.76,509.72,3.9034
1270.26,511.469,3.9034
1280.76,513.218,3.9032
1291.26,514.963,3.9031
1301.76,516.707,3.9029
1312.26,518.451,3.9027
1322.76,520.195,3.9025
1333.26,521.947,3.9022
1343.76,523.68,3.9018
1354.26,525.43,3.9012
1364.76,527.179,3.9005
1375.26,528.922,3.8994
1385.76,530.667,3.8979
1396.26,532.412,3.8959
1406.76,534.157,3.8932
1417.26,535.89,3.8899
1427.76,537.633,3.8857
1438.26,539.382,3.8806
1448.76,541.128,3.8746
1459.26,542.87,3.8677
1469.76,544.614,3.8598
1480.26,546.358,3.8507
1490.76,548.098,3.8407
1501.26,549.841,3.8299
1511.76,551.576,3.8188
1522.26,553.308,3.8077
1532.76,555.05,3.7966
1543.26,556.789,3.7855
1553.76,558.528,3.7738
1564.26,560.265,3.7613
1574.76,562.008,3.7472
1585.26,563.746,3.7313
1595.76,565.49,3.7126
1606.26,567.23,3.6907
1616.76,568.969,3.6646
1627.26,570.699,3.6329
1637.76,572.442,3.5939
1648.26,574.173,3.5434
1658.76,575.911,3.4742
1669.26,577.637,3.3781
1679.76,579.335,3.2657
1690.26,581.027,3.157
1700.76,582.727,3.0568
1711.26,584.454,2.9622
1721.76,586.159,2.8654
1732.26,587.877,2.7823
1742.76,589.601,2.6942
1753.26,591.368,2.6088
1763.76,593.064,2.5149
1774.26,594.801,2.4277
1784.76,596.535,2.3319
1795.26,598.264,2.2211
1805.76,599.962,2.0992
1816.26,601.67,1.9722
1826.76,603.385,1.8444
1837.26,605.116,1.7126
1847.76,606.836,1.5858
1858.26,608.576,1.4779
1868.76,610.305,1.3663
1879.26,612.04,1.2648
1889.76,613.786,1.1663
1900.26,615.566,1.0746
1910.76,617.357,0.9963
1921.26,619.134,0.9244
1931.76,620.905,0.8589
1942.26,622.668,0.8002
1952.76,624.433,0.7478
1963.26,626.19,0.7012
1973.76,627.943,0.6597
1984.26,629.706,0.6227
1994.76,631.457,0.5897
2005.26,633.202,0.5602
2015.76,634.954,0.5337
2026.26,636.703,0.5099
2036.76,638.444,0.4882
2047.26,640.187,0.4687
2057.76,641.927,0.4508
2068.26,643.668,0.4346
2078.76,645.411,0.4198
2089.26,647.147,0.4062
2099.76,648.891,0.3938
2110.26,650.627,0.3824
2120.76,652.361,0.3719
2131.26,654.097,0.3623
2141.76,655.842,0.3534
2152.26,657.569,0.3453
2162.76,659.309,0.3377
2173.26,661.044,0.3308
2183.76,662.785,0.3243
2194.26,664.519,0.3184
2204.76,666.26,0.3129
2215.26,667.989,0.3077
2225.76,669.733,0.303
2236.26,671.468,0.2987
2246.76,673.201,0.2948
2257.26,674.94,0.2911
2267.76,676.676,0.2881
2278.26,678.416,0.2854
2288.76,680.153,0.283
2299.26,681.895,0.2815
2309.76,683.637,0.281
2320.26,685.371,0.2808
2330.76,687.107,0.2809
2341.26,688.844,0.2807
2351.76,690.577,0.2808
2362.26,692.313,0.2808
2372.76,694.05,0.2807
2383.26,695.779,0.2808
2393.76,697.515,0.2808
2404.26,699.25,0.2807
2414.76,700.986,0.2806
2425.26,702.722,0.2805
2435.76,704.456,0.2807
2446.26,706.192,0.2806
2456.76,707.931,0.2807
2467.26,709.662,0.2807
2477.76,711.4,0.2808
2488.26,713.138,0.2809
2498.76,714.873,0.281
2509.26,716.61,0.2811
2519.76,718.345,0.2813
2530.26,720.077,0.2813
2540.76,721.807,0.2815
2551.26,723.545,0.2817
2561.76,725.277,0.2818
2572.26,727.013,0.2819
2582.76,728.753,0.2821
2593.26,730.486,0.2822
2603.76,732.226,0.2824
2614.26,733.96,0.2825
2624.76,735.7,0.2828
2635.26,737.432,0.2828
2645.76,739.168,0.283
2656.26,740.901,0.2832
2666.76,742.635,0.2834
2677.26,744.372,0.2834
2687.76,746.113,0.2837
2698.26,747.849,0.2838
2708.76,749.585,0.2839
2719.26,751.322,0.2841
2729.76,753.057,0.2843
2740.26,754.793,0.2844
2750.76,756.521,0.2845
2761.26,758.258,0.2847
2771.76,759.993,0.285
2782.26,761.735,0.285
2792.76,763.472,0.2851
2803.26,765.217,0.2852
2813.76,766.945,0.2854
2824.26,768.678,0.2855
2834.76,770.418,0.2857
2845.26,772.151,0.2858
2855.76,773.889,0.2859
2866.26,775.62,0.286
2876.76,777.357,0.2862
2887.26,779.099,0.2863
2897.76,780.841,0.2864
2908.26,782.575,0.2866
2918.76,784.311,0.2867
2929.26,786.049,0.287
2939.76,787.782,0.287
2950.26,789.521,0.2872
2960.76,791.258,0.2873
2971.26,792.997,0.2874
2981.76,794.735,0.2875
2992.26,796.472,0.2877
3002.76,798.208,0.2877
3013.26,799.948,0.2878
3013.76,800.03,0.2878

File: HKPolyU_TGA_Air_2.csv
Time,Temperature,Mass
[s],[k],[mg]
0.05,300.021,3.8808
10.26,302.317,3.88
20.76,304.594,3.8793
31.26,306.795,3.8787
41.76,308.922,3.8782
52.26,310.954,3.8779
62.76,312.896,3.8778
73.26,314.755,3.8775
83.76,316.536,3.8773
94.26,318.273,3.8771
104.76,319.976,3.8768
115.26,321.645,3.8766
125.76,323.307,3.8764
136.26,324.983,3.8762
146.76,326.668,3.8759
157.26,328.377,3.8757
167.76,330.109,3.8755
178.26,331.857,3.8753
188.76,333.644,3.8751
199.26,335.436,3.8749
209.76,337.248,3.8747
220.26,339.086,3.8746
230.76,340.929,3.8744
241.26,342.778,3.8744
251.76,344.615,3.8745
262.26,346.454,3.8744
272.76,348.277,3.8742
283.26,350.109,3.8742
293.76,351.913,3.8743
304.26,353.717,3.8742
314.76,355.51,3.8742
325.26,357.283,3.8742
335.76,359.065,3.8741
346.26,360.839,3.8742
356.76,362.61,3.8745
367.26,364.384,3.8745
377.76,366.163,3.8745
388.26,367.933,3.8745
398.76,369.698,3.8745
409.26,371.474,3.8745
419.76,373.247,3.8744
430.26,375.029,3.8744
440.76,376.818,3.8744
451.26,378.597,3.8743
461.76,380.38,3.8743
472.26,382.17,3.8741
482.76,383.958,3.874
493.26,385.742,3.8738
503.76,387.521,3.8739
514.26,389.298,3.8735
524.76,391.074,3.8734
535.26,392.856,3.873
545.76,394.626,3.8729
556.26,396.408,3.8726
566.76,398.178,3.8722
577.26,399.95,3.872
587.76,401.726,3.8716
598.26,403.483,3.8712
608.76,405.259,3.8708
619.26,407.028,3.8705
629.76,408.793,3.8701
640.26,410.555,3.8696
650.76,412.325,3.8691
661.26,414.085,3.8686
671.76,415.853,3.8684
682.26,417.615,3.8679
692.76,419.383,3.8675
703.26,421.154,3.8671
713.76,422.917,3.8666
724.26,424.682,3.8661
734.76,426.442,3.8656
745.26,428.207,3.8653
755.76,429.975,3.8648
766.26,431.741,3.8643
776.76,433.504,3.8639
787.26,435.268,3.8634
797.76,437.034,3.863
808.26,438.791,3.8626
818.76,440.551,3.8622
829.26,442.318,3.8618
839.76,444.077,3.8613
850.26,445.832,3.8611
860.76,447.588,3.8607
871.26,449.347,3.8603
881.76,451.101,3.8599
892.26,452.859,3.8595
902.76,454.621,3.8592
913.26,456.375,3.859
923.76,458.128,3.8587
934.26,459.888,3.8583
944.76,461.641,3.8581
955.26,463.396,3.8579
965.76,465.149,3.8577
976.26,466.908,3.8575
986.76,468.663,3.8572
997.26,470.412,3.8571
1007.76,472.178,3.8569
1018.26,473.924,3.8568
1028.76,475.679,3.8567
1039.26,477.429,3.8565
1049.76,479.181,3.8565
1060.26,480.934,3.8564
1070.76,482.682,3.8562
1081.26,484.444,3.8563
1091.76,486.19,3.856
1102.26,487.951,3.856
1112.76,489.703,3.8559
1123.26,491.451,3.8559
1133.76,493.205,3.8558
1144.26,494.957,3.8557
1154.76,496.702,3.8557
1165.26,498.453,3.8558
1175.76,500.206,3.8557
1186.26,501.947,3.8556
1196.76,503.7,3.8555
1207.26,505.455,3.8555
1217.76,507.204,3.8554
1228.26,508.948,3.8553
1238.76,510.689,3.8552
1249.26,512.442,3.855
1259.76,514.179,3.8547
1270.26,515.924,3.8545
1280.76,517.674,3.8542
1291.26,519.418,3.8539
1301.76,521.158,3.8535
1312.26,522.914,3.8531
1322.76,524.657,3.8525
1333.26,526.397,3.8515
1343.76,528.135,3.8505
1354.26,529.885,3.8489
1364.76,531.628,3.847
1375.26,533.371,3.8444
1385.76,535.122,3.8412
1396.26,536.867,3.837
1406.76,538.615,3.8321
1417.26,540.362,3.8263
1427.76,542.102,3.8194
1438.26,543.85,3.8116
1448.76,545.588,3.8027
1459.26,547.333,3.793
1469.76,549.071,3.7825
1480.26,550.815,3.7719
1490.76,552.55,3.7611
1501.26,554.299,3.7503
1511.76,556.035,3.7395
1522.26,557.773,3.728
1532.76,559.518,3.7154
1543.26,561.263,3.7014
1553.76,563,3.6855
1564.26,564.744,3.6669
1574.76,566.487,3.6451
1585.26,568.238,3.6187
1595.76,569.99,3.5865
1606.26,571.738,3.5461
1616.76,573.49,3.4932
1627.26,575.236,3.421
1637.76,576.983,3.3264
1648.26,578.704,3.2217
1658.76,580.425,3.1222
1669.26,582.149,3.0297
1679.76,583.878,2.9427
1690.26,585.622,2.8536
1700.76,587.32,2.7685
1711.26,589.037,2.6883
1721.76,590.771,2.6032
1732.26,592.514,2.5113
1742.76,594.221,2.4172
1753.26,595.961,2.3123
1763.76,597.684,2.2
1774.26,599.401,2.0822
1784.76,601.125,1.9584
1795.26,602.875,1.8302
1805.76,604.639,1.7007
1816.26,606.41,1.5706
1826.76,608.201,1.4391
1837.26,610.007,1.3065
1847.76,611.782,1.1819
1858.26,613.529,1.0739
1868.76,615.26,0.981
1879.26,616.984,0.9066
1889.76,618.706,0.8502
1900.26,620.42,0.8034
1910.76,622.144,0.7616
1921.26,623.865,0.7245
1931.76,625.599,0.6917
1942.26,627.326,0.6626
1952.76,629.063,0.6366
1963.26,630.803,0.6136
1973.76,632.536,0.5931
1984.26,634.275,0.5746
1994.76,636.013,0.5578
2005.26,637.741,0.5425
2015.76,639.474,0.5287
2026.26,641.203,0.5158
2036.76,642.935,0.5041
2047.26,644.661,0.4937
2057.76,646.394,0.4838
2068.26,648.12,0.4749
2078.76,649.854,0.4665
2089.26,651.579,0.4587
2099.76,653.313,0.4517
2110.26,655.046,0.4452
2120.76,656.784,0.4391
2131.26,658.514,0.4334
2141.76,660.249,0.4281
2152.26,661.978,0.4233
2162.76,663.716,0.4188
2173.26,665.444,0.4146
2183.76,667.181,0.4108
2194.26,668.913,0.4073
2204.76,670.647,0.4041
2215.26,672.378,0.4012
2225.76,674.113,0.3985
2236.26,675.848,0.3961
2246.76,677.582,0.394
2257.26,679.321,0.3925
2267.76,681.057,0.3914
2278.26,682.791,0.391
2288.76,684.525,0.391
2299.26,686.258,0.3909
2309.76,687.989,0.3908
2320.26,689.718,0.3907
2330.76,691.455,0.3903
2341.26,693.189,0.3903
2351.76,694.921,0.3902
2362.26,696.655,0.3902
2372.76,698.389,0.3903
2383.26,700.126,0.3904
2393.76,701.86,0.3903
2404.26,703.589,0.3903
2414.76,705.32,0.3903
2425.26,707.055,0.3903
2435.76,708.79,0.3903
2446.26,710.521,0.3903
2456.76,712.258,0.3903
2467.26,713.991,0.3904
2477.76,715.725,0.3904
2488.26,717.462,0.3904
2498.76,719.196,0.3905
2509.26,720.929,0.3907
2519.76,722.662,0.3907
2530.26,724.393,0.3907
2540.76,726.132,0.3908
2551.26,727.865,0.3909
2561.76,729.59,0.391
2572.26,731.333,0.3911
2582.76,733.068,0.3912
2593.26,734.797,0.3913
2603.76,736.532,0.3913
2614.26,738.265,0.3914
2624.76,740.001,0.3915
2635.26,741.728,0.3916
2645.76,743.46,0.3918
2656.26,745.194,0.3918
2666.76,746.925,0.3919
2677.26,748.662,0.392
2687.76,750.403,0.3922
2698.26,752.135,0.3922
2708.76,753.863,0.3923
2719.26,755.597,0.3924
2729.76,757.335,0.3924
2740.26,759.07,0.3926
2750.76,760.798,0.3926
2761.26,762.53,0.3927
2771.76,764.265,0.3928
2782.26,765.996,0.3929
2792.76,767.728,0.3929
2803.26,769.467,0.393
2813.76,771.197,0.3931
2824.26,772.934,0.3933
2834.76,774.663,0.3933
2845.26,776.403,0.3935
2855.76,778.132,0.3934
2866.26,779.865,0.3935
2876.76,781.602,0.3935
2887.26,783.338,0.3936
2897.76,785.07,0.3937
2908.26,786.803,0.3937
2918.76,788.54,0.3938
2929.26,790.272,0.3939
2939.76,792.006,0.3939
2950.26,793.738,0.394
2960.76,795.471,0.394
2971.26,797.208,0.3941
2981.76,798.939,0.3942
2992.26,800.667,0.3941
3002.76,802.399,0.3942
3013.26,804.136,0.3944
3013.76,804.214,0.3944