Folder: matl-db/Non-charring/PMMA/HKPoly (part 4)

File: HKPolyU_DSC_O2-21_10K_1.csv
Time,Temperature,Heat Flow
[s],[K],[W/g]
0.19,302.027,4.02801
11.76,302.052,4.03559
23.76,302.215,4.04161
35.76,302.73,4.07278
47.76,303.701,4.14448
59.76,305.136,4.25531
71.76,307.005,4.36769
83.76,309.213,4.47566
95.76,311.66,4.56464
107.76,314.227,4.61582
119.76,316.83,4.62991
131.76,319.401,4.58912
143.76,321.884,4.4935
155.76,324.254,4.33482
167.76,326.5,4.12712
179.76,328.635,3.87503
191.76,330.685,3.591
203.76,332.643,3.29017
215.76,334.551,2.98314
227.76,336.441,2.68019
239.76,338.317,2.39146
251.76,340.219,2.12116
263.76,342.152,1.8739
275.76,344.107,1.65241
287.76,346.105,1.45648
299.76,348.133,1.28604
311.76,350.195,1.1339
323.76,352.263,1.00242
335.76,354.354,0.88446
347.76,356.451,0.779249
359.76,358.546,0.681966
371.76,360.638,0.591674
383.76,362.721,0.507193
395.76,364.783,0.425103
407.76,366.845,0.348695
419.76,368.895,0.275195
431.76,370.926,0.205858
443.76,372.944,0.142578
455.76,374.964,0.0832577
467.76,376.973,0.0276815
479.76,378.987,-0.0191263
491.76,380.998,-0.0612044
503.76,383.011,-0.09732939
515.76,385.033,-0.129032
527.76,387.061,-0.155702
539.76,389.084,-0.179597
551.76,391.108,-0.198762
563.76,393.144,-0.216491
575.76,395.176,-0.232338
587.76,397.209,-0.246208
599.76,399.237,-0.25689
611.76,401.269,-0.264949
623.76,403.301,-0.2707
635.76,405.331,-0.273902
647.76,407.349,-0.275642
659.76,409.363,-0.276473
671.76,411.384,-0.27407
683.76,413.399,-0.271512
695.76,415.415,-0.267161
707.76,417.426,-0.261759
719.76,419.442,-0.254188
731.76,421.459,-0.245527
743.76,423.469,-0.235947
755.76,425.484,-0.225376
767.76,427.504,-0.213299
779.76,429.513,-0.200252
791.76,431.532,-0.186552
803.76,433.545,-0.170964
815.76,435.558,-0.155112
827.76,437.572,-0.138562
839.76,439.585,-0.121411
851.76,441.6,-0.103117
863.76,443.609,-0.083992
875.76,445.613,-0.0637804
887.76,447.628,-0.0422872
899.76,449.641,-0.0194491
911.76,451.653,0.003824244
923.76,453.658,0.0274911
935.76,455.659,0.052429
947.76,457.665,0.07763965
959.76,459.677,0.105267
971.76,461.679,0.132985
983.76,463.685,0.161525
995.76,465.686,0.191754
1007.76,467.692,0.221994
1019.76,469.694,0.253322
1031.76,471.698,0.286003
1043.76,473.706,0.319742
1055.76,475.709,0.353318
1067.76,477.714,0.388231
1079.76,479.717,0.42369
1091.76,481.727,0.459685
1103.76,483.726,0.496275
1115.76,485.729,0.534143
1127.76,487.731,0.572734
1139.76,489.736,0.611643
1151.76,491.741,0.650565
1163.76,493.744,0.690157
1175.76,495.746,0.729955
1187.76,497.747,0.769106
1199.76,499.74,0.807339
1211.76,501.733,0.845729
1223.76,503.735,0.883455
1235.76,505.732,0.921566
1247.76,507.724,0.959678
1259.76,509.72,0.99794
1271.76,511.723,1.03645
1283.76,513.72,1.07487
1295.76,515.719,1.11375
1307.76,517.708,1.15115
1319.76,519.696,1.18997
1331.76,521.694,1.22776
1343.76,523.68,1.26492
1355.76,525.673,1.3029
1367.76,527.675,1.34186
1379.76,529.669,1.38088
1391.76,531.67,1.42055
1403.76,533.655,1.45943
1415.76,535.642,1.49816
1427.76,537.633,1.536657
1439.76,539.635,1.57524
1451.76,541.626,1.6129
1463.76,543.621,1.64842
1475.76,545.606,1.68346
1487.76,547.604,1.71912
1499.76,549.593,1.75256
1511.76,551.576,1.78502
1523.76,553.561,1.81661
1535.76,555.55,1.85011
1547.76,557.536,1.88286
1559.76,559.521,1.9159
1571.76,561.508,1.94684
1583.76,563.496,1.97669
1595.76,565.49,2.00283
1607.76,567.476,2.02438
1619.76,569.465,2.03819
1631.76,571.446,2.04393
1643.76,573.43,2.03419
1655.76,575.412,2.0052
1667.76,577.391,1.93914
1679.76,579.335,1.81047
1691.76,581.269,1.67168
1703.76,583.216,1.58426
1715.76,585.198,1.62592
1727.76,587.135,1.58068
1739.76,589.112,1.61988
1751.76,591.134,1.65893
1763.76,593.064,1.65639
1775.76,595.046,1.65146
1787.76,597.025,1.60817
1799.76,598.993,1.50891
1811.76,600.933,1.34803
1823.76,602.89,1.27694
1835.76,604.874,1.23172
1847.76,606.836,1.2088
1859.76,608.822,1.22895
1871.76,610.8,1.26097
1883.76,612.79,1.32909
1895.76,614.801,1.46618
1907.76,616.843,1.74526
1919.76,618.881,2.00904
1931.76,620.905,2.23167
1943.76,622.922,2.41754
1955.76,624.934,2.57941
1967.76,626.94,2.72159
1979.76,628.95,2.85008
1991.76,630.954,2.96609
2003.76,632.959,3.07183
2015.76,634.954,3.1686
2027.76,636.948,3.25835
2039.76,638.942,3.34022
2051.76,640.934,3.41787
2063.76,642.925,3.48886
2075.76,644.915,3.5571
2087.76,646.901,3.62318
2099.76,648.891,3.68619
2111.76,650.875,3.74658
2123.76,652.857,3.8057
2135.76,654.845,3.86298
2147.76,656.829,3.92009
2159.76,658.812,3.97762
2171.76,660.796,4.03257
2183.76,662.785,4.08858
2195.76,664.77,4.14471
2207.76,666.756,4.2011
2219.76,668.738,4.25787
2231.76,670.725,4.31632
2243.76,672.709,4.37469
2255.76,674.693,4.43382
2267.76,676.676,4.49545
2279.76,678.662,4.55888
2291.76,680.651,4.62426
2303.76,682.644,4.691
2315.76,684.63,4.75045
2327.76,686.607,4.79751
2339.76,688.599,4.84102
2351.76,690.577,4.88602
2363.76,692.561,4.93104
2375.76,694.545,4.9801
2387.76,696.525,5.02887
2399.76,698.514,5.07976
2411.76,700.491,5.13205
2423.76,702.474,5.18275
2435.76,704.456,5.23533
2447.76,706.439,5.28905
2459.76,708.425,5.3418
2471.76,710.405,5.39439
2483.76,712.393,5.44886
2495.76,714.38,5.50047
2507.76,716.364,5.5522
2519.76,718.345,5.60385
2531.76,720.326,5.65511
2543.76,722.308,5.70514
2555.76,724.294,5.75679
2567.76,726.27,5.80709
2579.76,728.249,5.85861
2591.76,730.239,5.90995
2603.76,732.226,5.96296
2615.76,734.205,6.01405
2627.76,736.193,6.06739
2639.76,738.178,6.12043
2651.76,740.159,6.17252
2663.76,742.143,6.22485
2675.76,744.123,6.27835
2687.76,746.113,6.33151
2699.76,748.097,6.3857
2711.76,750.08,6.43882
2723.76,752.068,6.49361
2735.76,754.05,6.54932
2747.76,756.026,6.60441
2759.76,758.012,6.65887
2771.76,759.993,6.71096
2783.76,761.981,6.7652
2795.76,763.966,6.81863
2807.76,765.955,6.87253
2819.76,767.937,6.9248
2831.76,769.92,6.97707
2843.76,771.902,7.02963
2855.76,773.889,7.08316
2867.76,775.869,7.13796
2879.76,777.853,7.19108
2891.76,779.846,7.24395
2903.76,781.83,7.2979
2915.76,783.817,7.35042
2927.76,785.802,7.40606
2939.76,787.782,7.4617
2951.76,789.766,7.51632
2963.76,791.754,7.57287
2975.76,793.74,7.62861
2987.76,795.727,7.68437
2999.76,797.714,7.73921
3011.76,799.703,7.79576

File: HKPolyU_TGA_N2_10K_2.csv
Time,Temperature,Mass
[s],[K],[mg]
0.15,300.048,4.189604
11.76,302.715,4.188122
23.76,305.319,4.186716
35.76,307.793,4.18588
47.76,310.154,4.185248
59.76,312.392,4.184512
71.76,314.5129,4.184044
83.76,316.546,4.183632
95.76,318.508,4.182884
107.76,320.425,4.182437
119.76,322.325,4.182182
131.76,324.23,4.181627
143.76,326.147,4.18122
155.76,328.1031,4.180766
167.76,330.08,4.180428
179.76,332.087,4.180193
191.76,334.137,4.179694
203.76,336.217,4.179348
215.76,338.311,4.179239
227.76,340.41,4.178875
239.76,342.517,4.178874
251.76,344.618,4.178704
263.76,346.715,4.178428
275.76,348.806,4.178336
287.76,350.887,4.178422
299.76,352.95,4.178113
311.76,355.0005,4.17811
323.76,357.034,4.17791
335.76,359.067,4.177918
347.76,361.1032,4.17795
359.76,363.114,4.177637
371.76,365.135,4.177641
383.76,367.161,4.177636
395.76,369.187,4.177443
407.76,371.212,4.177295
419.76,373.2419,4.17729
431.76,375.2787,4.177085
443.76,377.3172,4.177163
455.76,379.36,4.176976
467.76,381.3964,4.176605
479.76,383.4395,4.176408
491.76,385.4815,4.176715
503.76,387.519,4.176306
515.76,389.5415,4.176062
527.76,391.5727,4.175986
539.76,393.6015,4.175484
551.76,395.628,4.175056
563.76,397.6613,4.174805
575.76,399.685,4.174036
587.76,401.702,4.173547
599.76,403.7146,4.173039
611.76,405.7418,4.172194
623.76,407.7503,4.1713
635.76,409.7791,4.170698
647.76,411.7978,4.169748
659.76,413.8241,4.168898
671.76,415.837,4.16797
683.76,417.8552,4.167041
695.76,419.8726,4.166119
707.76,421.8894,4.165138
719.76,423.908,4.16396
731.76,425.9244,4.16276
743.76,427.9482,4.161574
755.76,429.9579,4.160022
767.76,431.9728,4.158477
779.76,433.9863,4.156745
791.76,436.0006,4.154766
803.76,438.0063,4.152617
815.76,440.0234,4.15016
827.76,442.0264,4.147474
839.76,444.0322,4.144398
851.76,446.0492,4.141128
863.76,448.0506,4.137265
875.76,450.061,4.133215
887.76,452.0749,4.128979
899.76,454.0808,4.124594
911.76,456.0829,4.119969
923.76,458.0938,4.115395
935.76,460.0955,4.110742
947.76,462.1064,4.106347
959.76,464.1198,4.101992
971.76,466.1262,4.097638
983.76,468.1285,4.093335
995.76,470.1343,4.089088
1007.76,472.1373,4.084659
1019.76,474.1336,4.080019
1031.76,476.141,4.075253
1043.76,478.1408,4.070571
1055.76,480.1446,4.065723
1067.76,482.1544,4.06119
1079.76,484.1592,4.056908
1091.76,486.1703,4.053159
1103.76,488.1778,4.049828
1115.76,490.1831,4.046898
1127.76,492.1762,4.044756
1139.76,494.1814,4.042878
1151.76,496.1849,4.041275
1163.76,498.1889,4.04004
1175.76,500.1898,4.038742
1187.76,502.1961,4.037758
1199.76,504.1938,4.03677
1211.76,506.1943,4.035964
1223.76,508.187,4.034918
1235.76,510.1879,4.033746
1247.76,512.1803,4.032774
1259.76,514.171,4.03154
1271.76,516.1698,4.030176
1283.76,518.1619,4.028679
1295.76,520.1523,4.027
1307.76,522.1462,4.025241
1319.76,524.1455,4.023242
1331.76,526.138,4.020947
1343.76,528.133,4.0187
1355.76,530.1255,4.016087
1367.76,532.1183,4.013074
1379.76,534.111,4.009933
1391.76,536.1015,4.006474
1403.76,538.097,4.002844
1415.76,540.0849,3.998651
1427.76,542.0763,3.994184
1439.76,544.0646,3.98907
1451.76,546.0513,3.983625
1463.76,548.0402,3.977646
1475.76,550.0336,3.97105
1487.76,552.018,3.96375
1499.76,554.0078,3.955862
1511.76,555.996,3.947416
1523.76,557.9832,3.938374
1535.76,559.9712,3.92866
1547.76,561.953,3.918624
1559.76,563.9389,3.907952
1571.76,565.9256,3.896706
1583.76,567.9117,3.885097
1595.76,569.8972,3.873015
1607.76,571.8826,3.860361
1619.76,573.8688,3.847264
1631.76,575.8516,3.833339
1643.76,577.837,3.818804
1655.76,579.819,3.803089
1667.76,581.8024,3.786264
1679.76,583.785,3.767748
1691.76,585.7648,3.747539
1703.76,587.749,3.72517
1715.76,589.7334,3.700615
1727.76,591.7127,3.673209
1739.76,593.6914,3.642822
1751.76,595.6661,3.609134
1763.76,597.6365,3.571488
1775.76,599.606,3.529603
1787.76,601.5758,3.4829
1799.76,603.5358,3.43084
1811.76,605.5035,3.372937
1823.76,607.4665,3.308575
1835.76,609.4334,3.237205
1847.76,611.3938,3.158205
1859.76,613.3512,3.071453
1871.76,615.3103,2.976532
1883.76,617.2656,2.873354
1895.76,619.219,2.762194
1907.76,621.1681,2.643012
1919.76,623.1232,2.516233
1931.76,625.0706,2.382402
1943.76,627.03,2.242098
1955.76,628.994,2.09708
1967.76,630.9652,1.948977
1979.76,632.9396,1.797978
1991.76,634.9176,1.646874
2003.76,636.9029,1.498771
2015.76,638.886,1.345704
2027.76,640.8816,1.20081
2039.76,642.8605,1.05344
2051.76,644.8574,0.9105811
2063.76,646.8581,0.7736634
2075.76,648.852,0.6403884
2087.76,650.8631,0.5146976
2099.76,652.87,0.3969956
2111.76,654.8818,0.2865722
2123.76,656.8942,0.1861692
2135.76,658.9054,0.09676055
2147.76,660.9296,0.01740458
2159.76,662.9536,-0.05267364
2171.76,664.9668,-0.1136777
2183.76,666.9843,-0.1663293
2195.76,668.9985,-0.2110969
2207.76,671.0128,-0.248933
2219.76,673.0195,-0.2808186
2231.76,675.0274,-0.3074467
2243.76,677.0303,-0.3294006
2255.76,679.0314,-0.348
2267.76,681.0402,-0.363
2279.76,683.036,-0.374648
2291.76,685.0272,-0.3845566
2303.76,687.0256,-0.3924119
2315.76,689.0172,-0.398768
2327.76,691.0107,-0.4039719
2339.76,692.996,-0.4080475
2351.76,694.9894,-0.4111564
2363.76,696.9748,-0.4137535
2375.76,698.9574,-0.415618
2387.76,700.9394,-0.4172533
2399.76,702.928,-0.418154
2411.76,704.9114,-0.4186431
2423.76,706.9015,-0.4189384
2435.76,708.885,-0.419084
2447.76,710.8656,-0.4189714
2459.76,712.8517,-0.4190105
2471.76,714.8344,-0.4189534
2483.76,716.8135,-0.4189535
2495.76,718.7946,-0.4188564
2507.76,720.7761,-0.4187894
2519.76,722.76,-0.4186731
2531.76,724.7398,-0.4186848
2543.76,726.7184,-0.4185785
2555.76,728.6988,-0.4185942
2567.76,730.6835,-0.4184959
2579.76,732.6656,-0.4184389
2591.76,734.643,-0.4184378
2603.76,736.6216,-0.4182826
2615.76,738.6054,-0.4182019
2627.76,740.5872,-0.4180847
2639.76,742.5633,-0.4179195
2651.76,744.5454,-0.4178635
2663.76,746.5308,-0.4176898
2675.76,748.5072,-0.4176498
2687.76,750.4881,-0.4176444
2699.76,752.4728,-0.4175266
2711.76,754.4489,-0.4174869
2723.76,756.4299,-0.417259
2735.76,758.4088,-0.4172731
2747.76,760.3918,-0.4172904
2759.76,762.368,-0.4172055
2771.76,764.3521,-0.4170394
2783.76,766.3383,-0.4168067
2795.76,768.3194,-0.4167744
2807.76,770.303,-0.416743
2819.76,772.281,-0.4166632
2831.76,774.2594,-0.4165191
2843.76,776.2424,-0.4164131
2855.76,778.216,-0.4164588
2867.76,780.1965,-0.4163953
2879.76,782.1744,-0.4163159
2891.76,784.1602,-0.4162998
2903.76,786.1382,-0.4163363
2915.76,788.125,-0.4162788
2927.76,790.111,-0.416173
2939.76,792.0899,-0.4161037
2951.76,794.0712,-0.4160277
2963.76,796.0508,-0.4160536
2975.76,798.034,-0.4157637
2987.76,800.0118,-0.4157384
2999.76,801.9956,-0.4156063
3011.76,803.9716,-0.4154716

File: HKPolyU_TGA_O2-21_10K_1.csv
Time,Temperature,Mass
[s],[K],[mg]
0.19,302.027,3.9309
11.76,302.052,3.9304
23.76,302.215,3.9293
35.76,302.73,3.9277
47.76,303.701,3.9259
59.76,305.136,3.9243
71.76,307.005,3.9229
83.76,309.213,3.9219
95.76,311.66,3.9213
107.76,314.227,3.9209
119.76,316.83,3.9205
131.76,319.401,3.9206
143.76,321.884,3.9206
155.76,324.254,3.9207
167.76,326.5,3.921
179.76,328.635,3.9213
191.76,330.685,3.9215
203.76,332.643,3.9217
215.76,334.551,3.9217
227.76,336.441,3.9218
239.76,338.317,3.9219
251.76,340.219,3.9218
263.76,342.152,3.9218
275.76,344.107,3.9218
287.76,346.105,3.9218
299.76,348.133,3.9218
311.76,350.195,3.9217
323.76,352.263,3.9219
335.76,354.354,3.9219
347.76,356.451,3.922
359.76,358.546,3.9221
371.76,360.638,3.9222
383.76,362.721,3.9223
395.76,364.783,3.9228
407.76,366.845,3.923
419.76,368.895,3.9231
431.76,370.926,3.923
443.76,372.944,3.9231
455.76,374.964,3.923
467.76,376.973,3.9218
479.76,378.987,3.9218
491.76,380.998,3.9216
503.76,383.011,3.9215
515.76,385.033,3.9214
527.76,387.061,3.9213
539.76,389.084,3.921
551.76,391.108,3.921
563.76,393.144,3.9208
575.76,395.176,3.9208
587.76,397.209,3.9206
599.76,399.237,3.9204
611.76,401.269,3.9202
623.76,403.301,3.9197
635.76,405.331,3.9195
647.76,407.349,3.9191
659.76,409.363,3.9186
671.76,411.384,3.9181
683.76,413.399,3.9176
695.76,415.415,3.9171
707.76,417.426,3.9166
719.76,419.442,3.916
731.76,421.459,3.9156
743.76,423.469,3.915
755.76,425.484,3.9144
767.76,427.504,3.9139
779.76,429.513,3.9135
791.76,431.532,3.9131
803.76,433.545,3.9125
815.76,435.558,3.912
827.76,437.572,3.9115
839.76,439.585,3.9112
851.76,441.6,3.9107
863.76,443.609,3.9103
875.76,445.613,3.9098
887.76,447.628,3.9094
899.76,449.641,3.909
911.76,451.653,3.9085
923.76,453.658,3.9081
935.76,455.659,3.9078
947.76,457.665,3.9075
959.76,459.677,3.9071
971.76,461.679,3.9067
983.76,463.685,3.9065
995.76,465.686,3.9062
1007.76,467.692,3.9058
1019.76,469.694,3.9057
1031.76,471.698,3.9055
1043.76,473.706,3.9054
1055.76,475.709,3.9051
1067.76,477.714,3.9049
1079.76,479.717,3.9048
1091.76,481.727,3.9046
1103.76,483.726,3.9045
1115.76,485.729,3.9044
1127.76,487.731,3.9044
1139.76,489.736,3.9043
1151.76,491.741,3.9042
1163.76,493.744,3.904
1175.76,495.746,3.9038
1187.76,497.747,3.9038
1199.76,499.74,3.9038
1211.76,501.733,3.9037
1223.76,503.735,3.9037
1235.76,505.732,3.9035
1247.76,507.724,3.9035
1259.76,509.72,3.9034
1271.76,511.723,3.9033
1283.76,513.72,3.9032
1295.76,515.719,3.9031
1307.76,517.708,3.9029
1319.76,519.696,3.9025
1331.76,521.694,3.9022
1343.76,523.68,3.9018
1355.76,525.673,3.9011
1367.76,527.675,3.9002
1379.76,529.669,3.8988
1391.76,531.67,3.8968
1403.76,533.655,3.894
1415.76,535.642,3.8904
1427.76,537.633,3.8857
1439.76,539.635,3.8798
1451.76,541.626,3.8727
1463.76,543.621,3.8644
1475.76,545.606,3.8547
1487.76,547.604,3.8436
1499.76,549.593,3.8314
1511.76,551.576,3.8188
1523.76,553.561,3.8061
1535.76,555.55,3.7935
1547.76,557.536,3.7806
1559.76,559.521,3.7668
1571.76,561.508,3.7515
1583.76,563.496,3.7337
1595.76,565.49,3.7126
1607.76,567.476,3.6873
1619.76,569.465,3.6562
1631.76,571.446,3.6172
1643.76,573.43,3.5667
1655.76,575.412,3.4964
1667.76,577.391,3.3934
1679.76,579.335,3.2657
1691.76,581.269,3.1421
1703.76,583.216,3.0292
1715.76,585.198,2.9193
1727.76,587.135,2.8171
1739.76,589.112,2.7186
1751.76,591.134,2.6237
1763.76,593.064,2.5149
1775.76,595.046,2.4141
1787.76,597.025,2.3022
1799.76,598.993,2.1698
1811.76,600.933,2.0271
1823.76,602.89,1.8812
1835.76,604.874,1.7319
1847.76,606.836,1.5858
1859.76,608.822,1.4616
1871.76,610.8,1.3365
1883.76,612.79,1.222
1895.76,614.801,1.1117
1907.76,616.843,1.018
1919.76,618.881,0.9343
1931.76,620.905,0.8589
1943.76,622.922,0.7924
1955.76,624.934,0.7339
1967.76,626.94,0.6829
1979.76,628.95,0.638
1991.76,630.954,0.5987
2003.76,632.959,0.5642
2015.76,634.954,0.5337
2027.76,636.948,0.5066
2039.76,638.942,0.4825
2051.76,640.934,0.4609
2063.76,642.925,0.4414
2075.76,644.915,0.4239
2087.76,646.901,0.4081
2099.76,648.891,0.3938
2111.76,650.875,0.3808
2123.76,652.857,0.3692
2135.76,654.845,0.3583
2147.76,656.829,0.3486
2159.76,658.812,0.3398
2171.76,660.796,0.3318
2183.76,662.785,0.3243
2195.76,664.77,0.3176
2207.76,666.756,0.3113
2219.76,668.738,0.3056
2231.76,670.725,0.3005
2243.76,672.709,0.2959
2255.76,674.693,0.2917
2267.76,676.676,0.2881
2279.76,678.662,0.2851
2291.76,680.651,0.2825
2303.76,682.644,0.2811
2315.76,684.63,0.2809
2327.76,686.607,0.2809
2339.76,688.599,0.2807
2351.76,690.577,0.2808
2363.76,692.561,0.2808
2375.76,694.545,0.2807
2387.76,696.525,0.2807
2399.76,698.514,0.2807
2411.76,700.491,0.2806
2423.76,702.474,0.2805
2435.76,704.456,0.2807
2447.76,706.439,0.2806
2459.76,708.425,0.2807
2471.76,710.405,0.2807
2483.76,712.393,0.2809
2495.76,714.38,0.2809
2507.76,716.364,0.2811
2519.76,718.345,0.2813
2531.76,720.326,0.2813
2543.76,722.308,0.2815
2555.76,724.294,0.2816
2567.76,726.27,0.2818
2579.76,728.249,0.2821
2591.76,730.239,0.2822
2603.76,732.226,0.2824
2615.76,734.205,0.2825
2627.76,736.193,0.2827
2639.76,738.178,0.2829
2651.76,740.159,0.2831
2663.76,742.143,0.2833
2675.76,744.123,0.2834
2687.76,746.113,0.2837
2699.76,748.097,0.2839
2711.76,750.08,0.284
2723.76,752.068,0.2842
2735.76,754.05,0.2843
2747.76,756.026,0.2844
2759.76,758.012,0.2847
2771.76,759.993,0.285
2783.76,761.981,0.285
2795.76,763.966,0.2851
2807.76,765.955,0.2853
2819.76,767.937,0.2855
2831.76,769.92,0.2856
2843.76,771.902,0.2857
2855.76,773.889,0.2859
2867.76,775.869,0.2861
2879.76,777.853,0.2863
2891.76,779.846,0.2864
2903.76,781.83,0.2865
2915.76,783.817,0.2867
2927.76,785.802,0.2869
2939.76,787.782,0.287
2951.76,789.766,0.2872
2963.76,791.754,0.2873
2975.76,793.74,0.2874
2987.76,795.727,0.2875
2999.76,797.714,0.2877
3011.76,799.703,0.2878