Folder: matl-db/Non-charring/PMMA/HKPolyU (part 2)

File: HKPolyU_DSC_Air_1.csv
Time,Temperature,Heat Flow
[s],[k],[W/g]
0.19,302.027,4.02801
10.26,302.043,4.03621
20.76,302.141,4.03958
31.26,302.489,4.05231
41.76,303.152,4.10064
52.26,304.182,4.18288
62.76,305.563,4.28362
73.26,307.262,4.38249
83.76,309.213,4.47566
94.26,311.338,4.55543
104.76,313.581,4.60659
115.26,315.857,4.63147
125.76,318.124,4.61519
136.26,320.342,4.56075
146.76,322.498,4.45688
157.26,324.545,4.31214
167.76,326.5,4.12712
178.26,328.381,3.90812
188.76,330.174,3.66537
199.26,331.917,3.40491
209.76,333.604,3.13646
220.26,335.267,2.86859
230.76,336.909,2.60659
241.26,338.56,2.35587
251.76,340.219,2.12116
262.26,341.91,1.90361
272.76,343.615,1.70518
283.26,345.348,1.52754
293.76,347.119,1.36853
304.26,348.904,1.22562
314.76,350.704,1.09987
325.26,352.526,0.987418
335.76,354.354,0.88446
346.26,356.187,0.791763
356.76,358.02,0.705836
367.26,359.854,0.625103
377.76,361.677,0.549067
388.26,363.496,0.4762431
398.76,365.297,0.406273
409.26,367.103,0.339188
419.76,368.895,0.275195
430.26,370.671,0.214104
440.76,372.435,0.158272
451.26,374.213,0.105122
461.76,375.974,0.0541182
472.26,377.73,0.0101965
482.76,379.493,-0.0295694
493.26,381.246,-0.0659081
503.76,383.011,-0.09732939
514.26,384.783,-0.125538
524.76,386.56,-0.149173
535.26,388.329,-0.170716
545.76,390.104,-0.189776
556.26,391.878,-0.20622
566.76,393.651,-0.220294
577.26,395.434,-0.233766
587.76,397.209,-0.246208
598.26,398.989,-0.255551
608.76,400.769,-0.262952
619.26,402.539,-0.268597
629.76,404.316,-0.272739
640.26,406.087,-0.2749
650.76,407.845,-0.276069
661.26,409.611,-0.276379
671.76,411.384,-0.27407
682.26,413.144,-0.272065
692.76,414.908,-0.268465
703.26,416.67,-0.263579
713.76,418.436,-0.257859
724.26,420.193,-0.251042
734.76,421.958,-0.243001
745.26,423.721,-0.234764
755.76,425.484,-0.225376
766.26,427.248,-0.214872
776.76,429.012,-0.203909
787.26,430.782,-0.191578
797.76,432.538,-0.178453
808.26,434.3,-0.16555
818.76,436.06,-0.150991
829.26,437.817,-0.136766
839.76,439.585,-0.121411
850.26,441.343,-0.105451
860.76,443.106,-0.0886186
871.26,444.859,-0.0715007
881.76,446.622,-0.0530741
892.26,448.394,-0.03365125
902.76,450.146,-0.0138315
913.26,451.902,0.006935926
923.76,453.658,0.0274911
934.26,455.408,0.0493641
944.76,457.162,0.07139912
955.26,458.917,0.0945401
965.76,460.676,0.119328
976.26,462.428,0.14386
986.76,464.184,0.168947
997.26,465.939,0.195404
1007.76,467.692,0.221994
1018.26,469.444,0.249478
1028.76,471.2,0.277759
1039.26,472.963,0.307587
1049.76,474.711,0.336147
1060.26,476.459,0.366788
1070.76,478.218,0.3969
1081.26,479.974,0.428121
1091.76,481.727,0.459685
1102.26,483.477,0.491746
1112.76,485.227,0.524488
1123.26,486.978,0.558329
1133.76,488.736,0.591807
1144.26,490.487,0.626016
1154.76,492.248,0.660284
1165.26,493.993,0.695495
1175.76,495.746,0.729955
1186.26,497.496,0.764185
1196.76,499.24,0.797778
1207.26,500.99,0.831945
1217.76,502.734,0.864336
1228.26,504.481,0.897682
1238.76,506.228,0.931197
1249.26,507.978,0.964233
1259.76,509.72,0.99794
1270.26,511.469,1.03175
1280.76,513.218,1.0648
1291.26,514.963,1.09852
1301.76,516.707,1.13221
1312.26,518.451,1.1659
1322.76,520.195,1.1989
1333.26,521.947,1.23236
1343.76,523.68,1.26492
1354.26,525.43,1.29815
1364.76,527.179,1.33203
1375.26,528.922,1.36623
1385.76,530.667,1.4006
1396.26,532.412,1.43491
1406.76,534.157,1.46947
1417.26,535.89,1.50321
1427.76,537.633,1.536657
1438.26,539.382,1.57068
1448.76,541.128,1.60383
1459.26,542.87,1.63503
1469.76,544.614,1.66663
1480.26,546.358,1.69684
1490.76,548.098,1.72743
1501.26,549.841,1.75659
1511.76,551.576,1.78502
1522.26,553.308,1.81276
1532.76,555.05,1.84147
1543.26,556.789,1.87017
1553.76,558.528,1.8999
1564.26,560.265,1.92763
1574.76,562.008,1.9548
1585.26,563.746,1.98009
1595.76,565.49,2.00283
1606.26,567.23,2.02202
1616.76,568.969,2.03559
1627.26,570.699,2.04308
1637.76,572.442,2.04105
1648.26,574.173,2.02579
1658.76,575.911,1.99275
1669.26,577.637,1.92653
1679.76,579.335,1.81047
1690.26,581.027,1.69023
1700.76,582.727,1.59981
1711.26,584.454,1.57467
1721.76,586.159,1.58972
1732.26,587.877,1.59077
1742.76,589.601,1.61982
1753.26,591.368,1.70233
1763.76,593.064,1.65639
1774.26,594.801,1.6616
1784.76,596.535,1.62035
1795.26,598.264,1.55656
1805.76,599.962,1.43399
1816.26,601.67,1.30655
1826.76,603.385,1.22863
1837.26,605.116,1.23009
1847.76,606.836,1.2088
1858.26,608.576,1.22559
1868.76,610.305,1.26061
1879.26,612.04,1.30165
1889.76,613.786,1.37301
1900.26,615.566,1.55678
1910.76,617.357,1.81614
1921.26,619.134,2.03866
1931.76,620.905,2.23167
1942.26,622.668,2.39573
1952.76,624.433,2.54073
1963.26,626.19,2.67001
1973.76,627.943,2.7873
1984.26,629.706,2.89456
1994.76,631.457,2.99372
2005.26,633.202,3.08424
2015.76,634.954,3.1686
2026.26,636.703,3.24787
2036.76,638.444,3.32022
2047.26,640.187,3.38958
2057.76,641.927,3.45372
2068.26,643.668,3.51474
2078.76,645.411,3.57431
2089.26,647.147,3.63147
2099.76,648.891,3.68619
2110.26,650.627,3.73932
2120.76,652.361,3.79127
2131.26,654.097,3.84093
2141.76,655.842,3.89134
2152.26,657.569,3.94114
2162.76,659.309,3.99101
2173.26,661.044,4.03945
2183.76,662.785,4.08858
2194.26,664.519,4.1375
2204.76,666.26,4.18722
2215.26,667.989,4.2366
2225.76,669.733,4.28758
2236.26,671.468,4.33822
2246.76,673.201,4.3892
2257.26,674.94,4.44157
2267.76,676.676,4.49545
2278.26,678.416,4.55055
2288.76,680.153,4.60734
2299.26,681.895,4.66544
2309.76,683.637,4.72284
2320.26,685.371,4.76898
2330.76,687.107,4.80866
2341.26,688.844,4.84659
2351.76,690.577,4.88602
2362.26,692.313,4.92554
2372.76,694.05,4.96769
2383.26,695.779,5.0101
2393.76,697.515,5.05464
2404.26,699.25,5.09984
2414.76,700.986,5.14445
2425.26,702.722,5.18907
2435.76,704.456,5.23533
2446.26,706.192,5.2825
2456.76,707.931,5.32812
2467.26,709.662,5.37457
2477.76,711.4,5.42222
2488.26,713.138,5.46764
2498.76,714.873,5.51351
2509.26,716.61,5.55897
2519.76,718.345,5.60385
2530.26,720.077,5.64895
2540.76,721.807,5.69209
2551.26,723.545,5.73617
2561.76,725.277,5.78158
2572.26,727.013,5.82604
2582.76,728.753,5.87191
2593.26,730.486,5.91678
2603.76,732.226,5.96296
2614.26,733.96,6.00755
2624.76,735.7,6.05408
2635.26,737.432,6.10021
2645.76,739.168,6.14607
2656.26,740.901,6.19302
2666.76,742.635,6.23785
2677.26,744.372,6.28494
2687.76,746.113,6.33151
2698.26,747.849,6.37898
2708.76,749.585,6.4252
2719.26,751.322,6.47372
2729.76,753.057,6.52165
2740.26,754.793,6.57036
2750.76,756.521,6.61797
2761.26,758.258,6.66538
2771.76,759.993,6.71096
2782.26,761.735,6.75854
2792.76,763.472,6.80517
2803.26,765.217,6.85285
2813.76,766.945,6.89758
2824.26,768.678,6.94439
2834.76,770.418,6.98942
2845.26,772.151,7.03617
2855.76,773.889,7.08316
2866.26,775.62,7.13115
2876.76,777.357,7.17805
2887.26,779.099,7.22428
2897.76,780.841,7.27052
2908.26,782.575,7.31669
2918.76,784.311,7.36464
2929.26,786.049,7.41289
2939.76,787.782,7.4617
2950.26,789.521,7.50943
2960.76,791.258,7.55995
2971.26,792.997,7.6081
2981.76,794.735,7.65557
2992.26,796.472,7.70503
3002.76,798.208,7.7529
3013.26,799.948,7.8026
3013.76,800.03,7.80475

File: HKPolyU_DSC_Air_2.csv
Time,Temperature,Heat Flow
[s],[k],[W/g]
0.05,300.021,0.21649
11.76,302.639,1.06643
23.76,305.231,1.02929
35.76,307.719,0.928825
47.76,310.087,0.771907
59.76,312.35,0.554021
71.76,314.492,0.288214
83.76,316.536,-0.0151934
95.76,318.519,-0.341712
107.76,320.453,-0.673015
119.76,322.357,-0.998062
131.76,324.265,-1.30302
143.76,326.182,-1.58076
155.76,328.131,-1.82946
167.76,330.109,-2.04332
179.76,332.105,-2.22152
191.76,334.152,-2.37622
203.76,336.208,-2.50123
215.76,338.299,-2.60092
227.76,340.4,-2.68504
239.76,342.509,-2.75824
251.76,344.615,-2.81701
263.76,346.713,-2.8673
275.76,348.802,-2.9125
287.76,350.878,-2.95026
299.76,352.944,-2.98357
311.76,354.992,-3.01157
323.76,357.037,-3.03332
335.76,359.065,-3.05132
347.76,361.092,-3.06362
359.76,363.114,-3.07044
371.76,365.137,-3.07172
383.76,367.173,-3.06692
395.76,369.195,-3.05777
407.76,371.229,-3.04244
419.76,373.247,-3.02343
431.76,375.285,-3.00063
443.76,377.326,-2.9741
455.76,379.365,-2.94556
467.76,381.405,-2.91686
479.76,383.448,-2.8864
491.76,385.483,-2.85495
503.76,387.521,-2.82403
515.76,389.558,-2.79339
527.76,391.585,-2.76558
539.76,393.612,-2.73777
551.76,395.633,-2.71036
563.76,397.671,-2.68417
575.76,399.699,-2.6577
587.76,401.726,-2.63134
599.76,403.74,-2.60525
611.76,405.762,-2.57904
623.76,407.784,-2.55494
635.76,409.794,-2.53077
647.76,411.818,-2.50621
659.76,413.833,-2.48376
671.76,415.853,-2.46158
683.76,417.867,-2.43956
695.76,419.894,-2.4193
707.76,421.908,-2.39916
719.76,423.924,-2.38147
731.76,425.94,-2.36337
743.76,427.956,-2.34786
755.76,429.975,-2.33169
767.76,431.995,-2.31686
779.76,434.012,-2.30418
791.76,436.027,-2.29127
803.76,438.039,-2.28002
815.76,440.049,-2.26958
827.76,442.064,-2.25863
839.76,444.077,-2.24969
851.76,446.079,-2.24096
863.76,448.089,-2.23245
875.76,450.097,-2.22523
887.76,452.1,-2.2176
899.76,454.116,-2.21135
911.76,456.12,-2.20465
923.76,458.128,-2.19832
935.76,460.137,-2.19056
947.76,462.145,-2.18485
959.76,464.146,-2.17858
971.76,466.155,-2.17158
983.76,468.163,-2.16447
995.76,470.163,-2.15727
1007.76,472.178,-2.14912
1019.76,474.178,-2.14025
1031.76,476.174,-2.1332
1043.76,478.178,-2.12499
1055.76,480.186,-2.11511
1067.76,482.186,-2.10489
1079.76,484.189,-2.09397
1091.76,486.19,-2.08194
1103.76,488.198,-2.07054
1115.76,490.201,-2.0565
1127.76,492.202,-2.04331
1139.76,494.207,-2.02981
1151.76,496.206,-2.01571
1163.76,498.203,-2.00075
1175.76,500.206,-1.98653
1187.76,502.198,-1.96975
1199.76,504.2,-1.9517
1211.76,506.201,-1.93528
1223.76,508.198,-1.91835
1235.76,510.19,-1.90377
1247.76,512.192,-1.88627
1259.76,514.179,-1.86881
1271.76,516.178,-1.85293
1283.76,518.17,-1.8362
1295.76,520.163,-1.81804
1307.76,522.164,-1.79666
1319.76,524.157,-1.77733
1331.76,526.148,-1.75515
1343.76,528.135,-1.73242
1355.76,530.129,-1.71004
1367.76,532.125,-1.68504
1379.76,534.121,-1.65955
1391.76,536.112,-1.6325
1403.76,538.118,-1.60267
1415.76,540.115,-1.56833
1427.76,542.102,-1.5367
1439.76,544.1,-1.50837
1451.76,546.086,-1.47642
1463.76,548.078,-1.44739
1475.76,550.071,-1.41858
1487.76,552.058,-1.39062
1499.76,554.047,-1.36464
1511.76,556.035,-1.34021
1523.76,558.027,-1.31317
1535.76,560.015,-1.28504
1547.76,562.008,-1.25588
1559.76,563.996,-1.22576
1571.76,565.991,-1.19497
1583.76,567.986,-1.1619
1595.76,569.99,-1.12953
1607.76,571.985,-1.08798
1619.76,573.987,-1.05423
1631.76,575.989,-1.03679
1643.76,577.974,-1.05508
1655.76,579.933,-1.11373
1667.76,581.904,-1.12438
1679.76,583.878,-1.09324
1691.76,585.864,-0.9935235
1703.76,587.81,-1.0215
1715.76,589.785,-1.01758
1727.76,591.783,-0.994671
1739.76,593.733,-1.01536
1751.76,595.72,-1.02279
1763.76,597.684,-1.12001
1775.76,599.649,-1.23228
1787.76,601.627,-1.28262
1799.76,603.629,-1.20709
1811.76,605.65,-1.07628
1823.76,607.693,-0.835564
1835.76,609.751,-0.442802
1847.76,611.782,-0.175482
1859.76,613.776,-0.0428599
1871.76,615.753,0.0162934
1883.76,617.721,0.0316265
1895.76,619.689,0.0131877
1907.76,621.65,-0.0202143
1919.76,623.618,-0.0529295
1931.76,625.599,-0.08276
1943.76,627.579,-0.112838
1955.76,629.561,-0.135493
1967.76,631.544,-0.157272
1979.76,633.531,-0.176338
1991.76,635.52,-0.191893
2003.76,637.498,-0.20311
2015.76,639.474,-0.218374
2027.76,641.449,-0.232455
2039.76,643.428,-0.233517
2051.76,645.407,-0.238526
2063.76,647.377,-0.240205
2075.76,649.359,-0.236463
2087.76,651.337,-0.223419
2099.76,653.313,-0.210674
2111.76,655.293,-0.195536
2123.76,657.277,-0.175344
2135.76,659.258,-0.162848
2147.76,661.233,-0.141438
2159.76,663.215,-0.126588
2171.76,665.2,-0.108943
2183.76,667.181,-0.091657
2195.76,669.163,-0.073096
2207.76,671.141,-0.0473409
2219.76,673.123,-0.0253537
2231.76,675.103,0.001674566
2243.76,677.089,0.0261328
2255.76,679.074,0.0567249
2267.76,681.057,0.0922435
2279.76,683.036,0.109538
2291.76,685.024,0.125696
2303.76,686.998,0.134855
2315.76,688.977,0.142347
2327.76,690.962,0.159692
2339.76,692.937,0.175691
2351.76,694.921,0.196746
2363.76,696.901,0.210742
2375.76,698.885,0.223302
2387.76,700.866,0.237822
2399.76,702.844,0.253187
2411.76,704.826,0.275477
2423.76,706.808,0.292953
2435.76,708.79,0.313082
2447.76,710.772,0.334069
2459.76,712.754,0.355817
2471.76,714.733,0.376835
2483.76,716.72,0.405927
2495.76,718.698,0.428152
2507.76,720.682,0.450909
2519.76,722.662,0.468889
2531.76,724.642,0.489122
2543.76,726.628,0.514229
2555.76,728.61,0.533933
2567.76,730.588,0.549202
2579.76,732.57,0.568027
2591.76,734.552,0.590288
2603.76,736.532,0.598721
2615.76,738.512,0.612619
2627.76,740.496,0.6293
2639.76,742.471,0.637167
2651.76,744.451,0.656959
2663.76,746.43,0.668411
2675.76,748.42,0.683496
2687.76,750.403,0.703834
2699.76,752.379,0.726693
2711.76,754.362,0.749241
2723.76,756.341,0.758255
2735.76,758.325,0.7749
2747.76,760.307,0.780419
2759.76,762.285,0.786753
2771.76,764.265,0.799047
2783.76,766.241,0.809659
2795.76,768.225,0.817645
2807.76,770.21,0.834519
2819.76,772.189,0.844598
2831.76,774.167,0.854442
2843.76,776.152,0.874063
2855.76,778.132,0.884753
2867.76,780.115,0.895517
2879.76,782.099,0.90009
2891.76,784.079,0.901428
2903.76,786.059,0.914411
2915.76,788.042,0.92216
2927.76,790.025,0.937117
2939.76,792.006,0.949574
2951.76,793.988,0.945328
2963.76,795.968,0.93516
2975.76,797.944,0.928991
2987.76,799.927,0.915425
2999.76,801.904,0.897242
3011.76,803.886,0.892502
,,
,,
,,
,,
,,
,,
,,
,,
,,
,,
,,
,,
,,
,,
,,
,,
,,
,,
,,
,,
,,
,,
,,
,,
,,
,,
,,
,,
,,
,,
,,
,,
,,
,,
,,
,,
,,
,,
,,
,,
,,
,,
,,
,,
,,
,,
,,
,,
,,
,,
,,
,,
,,
,,
,,
,,
,,
,,
,,
,,
,,
,,
,,
,,
,,
,,
,,
,,
,,
,,
,,
,,
,,
,,
,,
,,
,,
,,
,,
,,
,,
,,
,,
,,
,,
,,
,,
,,
,,
,,
,,
,,
,,
,,
,,
,,
,,
,,
,,
,,
,,
,,
,,
,,
,,
,,
,,
,,
,,
,,
,,
,,
,,
,,
,,
,,
,,
,,
,,
,,
,,
,,
,,
,,
,,
,,
,,
,,
,,
,,
,,
,,
,,
,,
,,
,,
,,
,,
,,
,,
,,
,,
,,
,,
,,
,,
,,
,,
,,
,,
,,
,,
,,
,,
,,
,,
,,
,,
,,
,,
,,
,,
,,
,,
,,
,,
,,
,,
,,
,,
,,
,,
,,
,,
,,
,,
,,
,,
,,
,,
,,
,,
,,
,,
,,
,,
,,
,,
,,
,,
,,
,,
,,
,,
,,
,,
,,
,,
,,
,,
,,
,,
,,
,,
,,
,,
,,
,,
,,
,,
,,
,,
,,
,,
,,
,,
,,
,,
,,
,,
,,
,,
,,
,,
,,
,,
,,
,,
,,
,,
,,
,,
,,
,,
,,
,,
,,
,,
,,
,,
,,
,,
,,
,,
,,
,,
,,
,,
,,
,,
,,
,,
,,
,,
,,
,,
,,
,,
,,
,,
,,
,,
,,
,,
,,
,,
,,
,,
,,
,,
,,
,,
,,
,,
,,
,,
,,
,,
,,
,,
,,
,,
,,
,,
,,
,,
,,
,,
,,
,,
,,
,,
,,
,,
,,
,,
,,
,,
,,
,,
,,
,,
,,
,,
,,
,,
,,
,,
,,
,,
,,
,,
,,
,,
,,
,,
,,
,,
,,
,,
,,
,,
,,
,,
,,
,,
,,
,,
,,
,,
,,
,,
,,
,,
,,
,,
,,
,,
,,
,,
,,
,,
,,
,,
,,
,,
,,
,,
,,
,,
,,
,,
,,
,,
,,
,,
,,
,,
,,
,,
,,
,,
,,
[...]
,,
,,
,,
,,
,,
,,
,,
,,
,,
,,
,,
,,
,,
,,
,,
,,
,,
,,
,,
,,
,,
,,
,,
,,
,,
,,
,,
,,
,,
,,
,,
,,
,,
,,
,,
,,
,,
,,
,,
,,
,,
,,
,,
,,
,,
,,
,,
,,
,,
,,
,,
,,
,,
,,
,,
,,
,,
,,
,,
,,
,,
,,
,,
,,
,,
,,
,,
,,
,,
,,
,,
,,
,,
,,
,,
,,
,,
,,
,,
,,
,,
,,
,,
,,
,,
,,
,,
,,
,,
,,
,,
,,
,,
,,
,,
,,
,,
,,
,,
,,
,,
,,
,,
,,
,,
,,
,,
,,
,,
,,
,,
,,
,,
,,
,,
,,
,,
,,
,,
,,
,,
,,
,,
,,
,,
,,
,,
,,
,,
,,
,,
,,
,,
,,
,,
,,
,,
,,
,,
,,
,,
,,
,,
,,
,,
,,
,,
,,
,,
,,
,,
,,
,,
,,
,,
,,
,,
,,
,,
,,
,,
,,
,,
,,
,,
,,
,,
,,
,,
,,
,,
,,
,,
,,
,,
,,
,,
,,
,,
,,
,,
,,
,,
,,
,,
,,
,,
,,
,,
,,
,,
,,
,,
,,
,,
,,
,,
,,
,,
,,
,,
,,
,,
,,
,,
,,
,,
,,
,,
,,
,,
,,
,,
,,
,,
,,
,,
,,
,,
,,
,,
,,
,,
,,
,,
,,
,,
,,
,,
,,
,,
,,
,,
,,
,,
,,
,,
,,
,,
,,
,,
,,
,,
,,
,,
,,
,,
,,
,,
,,
,,
,,
,,
,,
,,
,,
,,
,,
,,
,,
,,
,,
,,
,,
,,
,,
,,
,,
,,
,,
,,
,,
,,
,,
,,
,,
,,
,,
,,
,,
,,
,,
,,
,,
,,
,,
,,
,,
,,
,,
,,
,,
,,
,,
,,
,,
,,
,,
,,
,,
,,
,,
,,
,,
,,
,,
,,
,,
,,
,,
,,
,,
,,
,,
,,
,,
,,
,,
,,
,,
,,
,,
,,
,,
,,
,,
,,
,,
,,
,,
,,
,,
,,
,,
,,
,,
,,
,,
,,
,,
,,
,,
,,
,,
,,
,,
,,
,,
,,
,,
,,
,,
,,
,,
,,
,,
,,
,,
,,
,,
,,
,,
,,
,,
,,
,,
,,
,,
,,
,,
,,
,,
,,
,,
,,
,,
,,
,,
,,
,,
,,
,,
,,
,,
,,
,,
,,
,,
,,
,,
,,
,,
,,
,,
,,
,,
,,
,,
,,
,,
,,
,,
,,
,,
,,
,,
,,
,,
,,
,,
,,
,,
,,
,,
,,
,,
,,
,,
,,
,,
,,
,,
,,
,,
,,
,,
,,
,,
,,
,,
,,
,,
,,
,,
,,
,,
,,
,,
,,
,,
,,
,,
,,
,,
,,
,,
,,
,,
,,
,,
,,
,,
,,
,,
,,
,,
,,
,,
,,
,,
,,
,,
,,
,,
,,
,,
,,
,,
,,
,,
,,
,,
,,
,,
,,
,,
,,
,,
,,
,,
,,
,,
,,
,,
,,
,,
,,
,,
,,
,,
,,
,,
,,
,,
,,
,,
,,
,,
,,
,,
,,
,,
,,
,,
,,
,,
,,
,,
,,
,,
,,
,,
,,
,,
,,
,,
,,
,,
,,
,,
,,
,,
,,
,,
,,
,,
,,
,,
,,
,,
,,
,,
,,
,,
,,
,,
,,
,,
,,
,,
,,
,,
,,
,,
,,
,,
,,
,,
,,
,,
,,
,,
,,
,,
,,
,,
,,
,,
,,
,,
,,
,,
,,
,,
,,
,,
,,
,,
,,
,,
,,
,,
,,
,,
,,
,,
,,
,,
,,
,,
,,
,,
,,
,,
,,
,,
,,
,,
,,
,,
,,
,,
,,
,,
,,
,,
,,
,,
,,
,,
,,
,,
,,
,,
,,
,,
,,
,,
,,
,,
,,
,,
,,
,,
,,
,,
,,
,,
,,
,,
,,
,,
,,
,,
,,
,,
,,
,,
,,
,,
,,
,,
,,
,,
,,
,,
,,
,,
,,
,,
,,
,,
,,
,,
,,
,,
,,
,,
,,
,,
,,
,,
,,
,,
,,
,,
,,
,,
,,
,,
,,
,,
,,
,,
,,
,,
,,
,,
,,
,,
,,
,,
,,
,,
,,
,,
,,
,,
,,
,,
,,
,,
,,
,,
,,
,,
,,
,,
,,
,,
,,
,,
,,
,,
,,
,,
,,
,,
,,
,,
,,
,,
,,
,,
,,
,,
,,
,,
,,
,,
,,
,,
,,
,,
,,
,,
,,
,,
,,
,,
,,
,,
,,
,,
,,
,,
,,
,,
,,
,,
,,
,,
,,
,,
,,
,,
,,
,,
,,
,,
,,
,,
,,
,,
,,
,,
,,
,,
,,
,,
,,
,,
,,
,,
,,
,,
,,
,,
,,
,,
,,
,,
,,
,,
,,
,,
,,
,,
,,
,,
,,
,,
,,
,,
,,
,,
,,
,,
,,
,,
,,
,,
,,
,,
,,
,,
,,
,,
,,
,,
,,
,,
,,
,,
,,
,,
,,
,,
,,
,,
,,
,,
,,
,,
,,
,,
,,
,,
,,
,,
,,
,,
,,
,,
,,
,,
,,
,,
,,
,,
,,
,,
,,
,,
,,
,,
,,
,,
,,
,,
,,
,,
,,
,,
,,
,,
,,
,,
,,
,,
,,
,,
,,
,,
,,
,,
,,
,,
,,
,,
,,
,,
,,
,,
,,
,,
,,
,,
,,
,,
,,
,,
,,
,,
,,
,,
,,
,,
,,
,,
,,
,,
,,
,,
,,
,,
,,
,,
,,
,,
,,
,,
,,
,,
,,
,,
,,
,,
,,
,,
,,
,,
,,
,,
,,
,,
,,
,,
,,
,,
,,
,,
,,
,,
,,
,,
,,
,,
,,
,,
,,
,,
,,
,,
,,
,,
,,
,,
,,
,,
,,
,,
,,
,,
,,
,,
,,
,,
,,
,,
,,
,,
,,
,,
,,
,,
,,
,,
,,
,,
,,
,,
,,
,,
,,
,,
,,
,,
,,
,,
,,
,,
,,
,,
,,
,,
,,
,,
,,
,,
,,
,,
,,
,,
,,
,,
,,
,,
,,
,,
,,
,,
,,
,,
,,
,,
,,
,,
,,
,,
,,
,,
,,
,,
,,
,,
,,
,,
,,
,,
,,
,,
,,
,,
,,
,,
,,
,,
,,
,,
,,
,,
,,
,,
,,
,,
,,
,,
,,
,,
,,
,,
,,
,,
,,
,,
,,
,,
,,
,,
,,
,,
,,
,,
,,
,,
,,
,,
,,
,,
,,
,,
,,
,,
,,
,,
,,
,,
,,
,,
,,
,,
,,
,,
,,
,,
,,
,,
,,
,,
,,
,,
,,
,,
,,
,,
,,
,,
,,
,,
,,
,,
,,
,,
,,
,,
,,
,,
,,
,,
,,
,,
,,
,,
,,
,,
,,
,,
,,
,,
,,
,,
,,
,,
,,
,,
,,
,,
,,
,,
,,
,,
,,
,,
,,
,,
,,
,,
,,
,,
,,
,,
,,
,,
,,
,,
,,
,,
,,
,,
,,
,,
,,
,,
,,
,,
,,
,,
,,
,,
,,
,,
,,
,,
,,
,,
,,
,,
,,
,,
,,
,,
,,
,,
,,
,,
,,
,,
,,
,,
,,
,,
,,
,,
,,
,,
,,
,,
,,
,,
,,
,,
,,
,,
,,
,,
,,
,,
,,
,,
,,
,,
,,
,,
,,
,,
,,
,,
,,
,,
,,
,,
,,
,,
,,
,,
,,
,,
,,
,,
,,
,,
,,
,,
,,
,,
,,
,,
,,
,,
,,
,,
,,
,,
,,
,,
,,
,,
,,
,,
,,
,,
,,
,,
,,
,,
,,
,,
,,
,,
,,
,,
,,
,,
,,
,,
,,
,,
,,
,,
,,
,,

File: HKPolyU_DSC_N2_1.csv
Time,Temperature,Heat Flow
[s],[k],[W/g]
0.24,300.03,4.53669
10.26,301.319,5.28857
20.76,302.901,5.40261
31.26,304.753,5.44945
41.76,306.785,5.47288
52.26,308.955,5.46693
62.76,311.172,5.44422
73.26,313.4,5.38518
83.76,315.613,5.28592
94.26,317.742,5.15789
104.76,319.807,4.99259
115.26,321.788,4.79062
125.76,323.698,4.55779
136.26,325.525,4.3058
146.76,327.281,4.03542
157.26,329.002,3.74896
167.76,330.689,3.46334
178.26,332.358,3.18164
188.76,334.007,2.91293
199.26,335.669,2.6536
209.76,337.333,2.40855
220.26,339.017,2.18287
230.76,340.732,1.97334
241.26,342.446,1.78397
251.76,344.179,1.61083
262.26,345.943,1.45151
272.76,347.701,1.30664
283.26,349.48,1.17508
293.76,351.254,1.0535
304.26,353.039,0.942258
314.76,354.811,0.840981
325.26,356.597,0.74689
335.76,358.373,0.659263
346.26,360.143,0.576334
356.76,361.927,0.498853
367.26,363.693,0.424952
377.76,365.46,0.356233
388.26,367.223,0.292421
398.76,368.978,0.233315
409.26,370.728,0.177059
419.76,372.483,0.126848
430.26,374.242,0.07914308
440.76,376.008,0.0371254
451.26,377.766,-0.00227249
461.76,379.529,-0.0379217
472.26,381.291,-0.0684632
482.76,383.058,-0.0975504
493.26,384.823,-0.123283
503.76,386.595,-0.146889
514.26,388.349,-0.167182
524.76,390.131,-0.185885
535.26,391.896,-0.203457
545.76,393.666,-0.219449
556.26,395.433,-0.234758
566.76,397.2,-0.247287
577.26,398.97,-0.258505
587.76,400.732,-0.267029
598.26,402.509,-0.273663
608.76,404.27,-0.278659
619.26,406.033,-0.282734
629.76,407.797,-0.284309
640.26,409.559,-0.284909
650.76,411.322,-0.285284
661.26,413.081,-0.282942
671.76,414.852,-0.280398
682.26,416.603,-0.277706
692.76,418.366,-0.272558
703.26,420.124,-0.267495
713.76,421.891,-0.260851
724.26,423.645,-0.253851
734.76,425.403,-0.24702
745.26,427.17,-0.238372
755.76,428.932,-0.229768
766.26,430.694,-0.220762
776.76,432.452,-0.210951
787.26,434.205,-0.201115
797.76,435.969,-0.190817
808.26,437.728,-0.181625
818.76,439.488,-0.170815
829.26,441.243,-0.16072
839.76,443.001,-0.149891
850.26,444.766,-0.138641
860.76,446.519,-0.126364
871.26,448.276,-0.113382
881.76,450.028,-0.100442
892.26,451.781,-0.086249
902.76,453.525,-0.07068962
913.26,455.281,-0.0542931
923.76,457.035,-0.0366834
934.26,458.794,-0.0182893
944.76,460.542,0.002141092
955.26,462.297,0.0230047
965.76,464.06,0.0461049
976.26,465.816,0.0692843
986.76,467.565,0.0941
997.26,469.322,0.118277
1007.76,471.074,0.143454
1018.26,472.826,0.168327
1028.76,474.571,0.193844
1039.26,476.326,0.218946
1049.76,478.078,0.244308
1060.26,479.832,0.270502
1070.76,481.598,0.298707
1081.26,483.348,0.327268
1091.76,485.097,0.356988
1102.26,486.848,0.387256
1112.76,488.599,0.420372
1123.26,490.357,0.452184
1133.76,492.109,0.485207
1144.26,493.861,0.51902
1154.76,495.607,0.552917
1165.26,497.362,0.586937
1175.76,499.112,0.61981
1186.26,500.866,0.65373
1196.76,502.614,0.68555
1207.26,504.364,0.717564
1217.76,506.103,0.749551
1228.26,507.852,0.780573
1238.76,509.603,0.811846
1249.26,511.347,0.841704
1259.76,513.088,0.8716423
1270.26,514.835,0.901383
1280.76,516.583,0.929642
1291.26,518.32,0.958012
1301.76,520.067,0.98673
1312.26,521.809,1.01531
1322.76,523.557,1.04258
1333.26,525.294,1.07035
1343.76,527.046,1.09739
1354.26,528.788,1.12448
1364.76,530.537,1.14995
1375.26,532.274,1.17499
1385.76,534.011,1.19975
1396.26,535.755,1.22473
1406.76,537.494,1.24854
1417.26,539.238,1.27264
1427.76,540.978,1.29593
1438.26,542.719,1.31829
1448.76,544.453,1.34027
1459.26,546.195,1.36074
1469.76,547.934,1.3829
1480.26,549.671,1.40428
1490.76,551.412,1.42494
1501.26,553.151,1.44422
1511.76,554.888,1.46418
1522.26,556.631,1.48299
1532.76,558.367,1.50232
1543.26,560.107,1.52117
1553.76,561.841,1.53998
1564.26,563.58,1.55927
1574.76,565.314,1.57861
1585.26,567.055,1.5977
1595.76,568.791,1.61706
1606.26,570.527,1.63745
1616.76,572.262,1.65756
1627.26,573.999,1.67749
1637.76,575.737,1.69651
1648.26,577.475,1.71619
1658.76,579.208,1.73324
1669.26,580.949,1.75265
1679.76,582.678,1.76747
1690.26,584.417,1.78027
1700.76,586.148,1.7909
1711.26,587.88,1.79917
1721.76,589.617,1.80593
1732.26,591.355,1.80939
1742.76,593.089,1.81002
1753.26,594.816,1.8073
1763.76,596.539,1.80025
1774.26,598.267,1.78959
1784.76,599.993,1.77423
1795.26,601.716,1.75429
1805.76,603.438,1.72893
1816.26,605.164,1.69819
1826.76,606.876,1.66093
1837.26,608.598,1.617
1847.76,610.313,1.56764
1858.26,612.032,1.51184
1868.76,613.744,1.44887
1879.26,615.456,1.38058
1889.76,617.173,1.30706
1900.26,618.882,1.22878
1910.76,620.595,1.14857
1921.26,622.304,1.06724
1931.76,624.013,0.985975
1942.26,625.719,0.906992
1952.76,627.433,0.834835
1963.26,629.149,0.775963
1973.76,630.87,0.734868
1984.26,632.6,0.709235
1994.76,634.327,0.701406
2005.26,636.056,0.705703
2015.76,637.799,0.720897
2026.26,639.539,0.743016
2036.76,641.27,0.793019
2047.26,643.011,0.862196
2057.76,644.758,0.932916
2068.26,646.506,0.994478
2078.76,648.251,1.07347
2089.26,650.004,1.16674
2099.76,651.759,1.27189
2110.26,653.513,1.38973
2120.76,655.277,1.51441
2131.26,657.033,1.65173
2141.76,658.796,1.80506
2152.26,660.559,1.96705
2162.76,662.32,2.13204
2173.26,664.089,2.29939
2183.76,665.848,2.46535
2194.26,667.612,2.63014
2204.76,669.369,2.79078
2215.26,671.129,2.9419
2225.76,672.887,3.08596
2236.26,674.644,3.22124
2246.76,676.398,3.34702
2257.26,678.15,3.46725
2267.76,679.901,3.57765
2278.26,681.651,3.67888
2288.76,683.395,3.77319
2299.26,685.143,3.85997
2309.76,686.883,3.93983
2320.26,688.63,4.0144
2330.76,690.368,4.0834
2341.26,692.112,4.14653
2351.76,693.853,4.20465
2362.26,695.597,4.26192
2372.76,697.327,4.31307
2383.26,699.065,4.36253
2393.76,700.803,4.40899
2404.26,702.536,4.45556
2414.76,704.273,4.49842
2425.26,706.009,4.54
2435.76,707.739,4.58054
2446.26,709.481,4.62107
2456.76,711.207,4.65975
2467.26,712.945,4.69834
2477.76,714.68,4.73412
2488.26,716.415,4.76937
2498.76,718.15,4.80251
2509.26,719.885,4.83577
2519.76,721.627,4.86801
2530.26,723.357,4.89961
2540.76,725.088,4.92986
2551.26,726.819,4.95912
2561.76,728.553,4.98816
2572.26,730.286,5.01827
2582.76,732.019,5.04781
2593.26,733.754,5.07751
2603.76,735.488,5.10598
2614.26,737.22,5.13437
2624.76,738.952,5.16371
2635.26,740.687,5.19124
2645.76,742.42,5.22094
2656.26,744.152,5.24951
2666.76,745.887,5.27836
2677.26,747.625,5.30667
2687.76,749.362,5.33578
2698.26,751.09,5.36483
2708.76,752.824,5.39224
2719.26,754.551,5.42028
2729.76,756.281,5.4478
2740.26,758.01,5.47389
2750.76,759.75,5.50154
2761.26,761.482,5.52831
2771.76,763.215,5.5531
2782.26,764.95,5.57683
2792.76,766.691,5.60062
2803.26,768.421,5.62339
2813.76,770.154,5.64723
2824.26,771.888,5.67018
2834.76,773.626,5.69375
2845.26,775.356,5.7164
2855.76,777.087,5.73907
2866.26,778.823,5.76257
2876.76,780.548,5.78611
2887.26,782.285,5.81023
2897.76,784.026,5.83359
2908.26,785.761,5.85691
2918.76,787.49,5.87969
2929.26,789.224,5.90124
2939.76,790.963,5.92325
2950.26,792.693,5.94302
2960.76,794.429,5.96314
2971.26,796.162,5.98425
2981.76,797.895,6.00561
2992.26,799.63,6.02606
3002.76,801.362,6.04895
3013.26,803.094,6.07026
3013.76,803.176,6.07101