Folder: matl-db/Non-charring/PMMA/HKPoly (part 2)

File: HKPoly_DSC_N2_10K_2.csv
Time,Temperature,Heat Flow
[s],[k],[W/g]
0.15,300.048,2.91094
11.76,302.715,3.7253
23.76,305.319,3.67382
35.76,307.793,3.55594
47.76,310.154,3.35934
59.76,312.392,3.10417
71.76,314.5129,2.79524
83.76,316.546,2.45367
95.76,318.508,2.09013
107.76,320.425,1.72508
119.76,322.325,1.37268
131.76,324.23,1.03692
143.76,326.147,0.729136
155.76,328.1031,0.452277
167.76,330.08,0.209743
179.76,332.087,-0.002809547
191.76,334.137,-0.186145
203.76,336.217,-0.344046
215.76,338.311,-0.482521
227.76,340.41,-0.603501
239.76,342.517,-0.711924
251.76,344.618,-0.811588
263.76,346.715,-0.900668
275.76,348.806,-0.984707
287.76,350.887,-1.06311
299.76,352.95,-1.13389
311.76,355.0005,-1.19926
323.76,357.034,-1.25881
335.76,359.067,-1.31206
347.76,361.1032,-1.35974
359.76,363.114,-1.40079
371.76,365.135,-1.43514
383.76,367.161,-1.46319
395.76,369.187,-1.48462
407.76,371.212,-1.50052
419.76,373.2419,-1.51042
431.76,375.2787,-1.51579
443.76,377.3172,-1.51681
455.76,379.36,-1.51441
467.76,381.3964,-1.51125
479.76,383.4395,-1.50544
491.76,385.4815,-1.49851
503.76,387.519,-1.49156
515.76,389.5415,-1.48559
527.76,391.5727,-1.47805
539.76,393.6015,-1.47133
551.76,395.628,-1.46423
563.76,397.6613,-1.45715
575.76,399.685,-1.44824
587.76,401.702,-1.43664
599.76,403.7146,-1.42527
611.76,405.7418,-1.41288
623.76,407.7503,-1.39927
635.76,409.7791,-1.38482
647.76,411.7978,-1.37058
659.76,413.8241,-1.35611
671.76,415.837,-1.3418
683.76,417.8552,-1.32684
695.76,419.8726,-1.31242
707.76,421.8894,-1.29786
719.76,423.908,-1.28388
731.76,425.9244,-1.26872
743.76,427.9482,-1.25571
755.76,429.9579,-1.24368
767.76,431.9728,-1.23137
779.76,433.9863,-1.22004
791.76,436.0006,-1.20891
803.76,438.0063,-1.19808
815.76,440.0234,-1.18758
827.76,442.0264,-1.1787
839.76,444.0322,-1.16968
851.76,446.0492,-1.16102
863.76,448.0506,-1.15175
875.76,450.061,-1.14205
887.76,452.0749,-1.12948
899.76,454.0808,-1.11924
911.76,456.0829,-1.103
923.76,458.0938,-1.08449
935.76,460.0955,-1.06802
947.76,462.1064,-1.05121
959.76,464.1198,-1.03276
971.76,466.1262,-1.01346
983.76,468.1285,-0.994044
995.76,470.1343,-0.974919
1007.76,472.1373,-0.954311
1019.76,474.1336,-0.9351
1031.76,476.141,-0.913997
1043.76,478.1408,-0.893803
1055.76,480.1446,-0.872404
1067.76,482.1544,-0.84932
1079.76,484.1592,-0.827087
1091.76,486.1703,-0.800836
1103.76,488.1778,-0.774499
1115.76,490.1831,-0.746091
1127.76,492.1762,-0.716576
1139.76,494.1814,-0.68438
1151.76,496.1849,-0.652553
1163.76,498.1889,-0.6184
1175.76,500.1898,-0.588012
1187.76,502.1961,-0.557654
1199.76,504.1938,-0.524906
1211.76,506.1943,-0.495431
1223.76,508.187,-0.466988
1235.76,510.1879,-0.436086
1247.76,512.1803,-0.406316
1259.76,514.171,-0.378247
1271.76,516.1698,-0.350543
1283.76,518.1619,-0.322681
1295.76,520.1523,-0.293778
1307.76,522.1462,-0.26659
1319.76,524.1455,-0.236802
1331.76,526.138,-0.21057
1343.76,528.133,-0.184472
1355.76,530.1255,-0.158899
1367.76,532.1183,-0.131027
1379.76,534.111,-0.107733
1391.76,536.1015,-0.0828801
1403.76,538.097,-0.05636636
1415.76,540.0849,-0.0322756
1427.76,542.0763,-0.009738281
1439.76,544.0646,0.0162657
1451.76,546.0513,0.0390537
1463.76,548.0402,0.0629561
1475.76,550.0336,0.0835337
1487.76,552.018,0.102091
1499.76,554.0078,0.123532
1511.76,555.996,0.143475
1523.76,557.9832,0.159457
1535.76,559.9712,0.18372
1547.76,561.953,0.20024
1559.76,563.9389,0.214783
1571.76,565.9256,0.234607
1583.76,567.9117,0.253042
1595.76,569.8972,0.270681
1607.76,571.8826,0.290034
1619.76,573.8688,0.311486
1631.76,575.8516,0.330596
1643.76,577.837,0.349464
1655.76,579.819,0.360969
1667.76,581.8024,0.371988
1679.76,583.785,0.382071
1691.76,585.7648,0.389082
1703.76,587.749,0.390478
1715.76,589.7334,0.391159
1727.76,591.7127,0.384981
1739.76,593.6914,0.371745
1751.76,595.6661,0.355525
1763.76,597.6365,0.335545
1775.76,599.606,0.307814
1787.76,601.5758,0.273316
1799.76,603.5358,0.234174
1811.76,605.5035,0.186938
1823.76,607.4665,0.133446
1835.76,609.4334,0.0731939
1847.76,611.3938,0.003437531
1859.76,613.3512,-0.078127
1871.76,615.3103,-0.164118
1883.76,617.2656,-0.25772
1895.76,619.219,-0.358808
1907.76,621.1681,-0.460777
1919.76,623.1232,-0.561538
1931.76,625.0706,-0.659659
1943.76,627.03,-0.751593
1955.76,628.994,-0.82574
1967.76,630.9652,-0.876346
1979.76,632.9396,-0.908016
1991.76,634.9176,-0.906336
2003.76,636.9029,-0.883776
2015.76,638.886,-0.883724
2027.76,640.8816,-0.825746
2039.76,642.8605,-0.793195
2051.76,644.8574,-0.730401
2063.76,646.8581,-0.643913
2075.76,648.852,-0.552161
2087.76,650.8631,-0.438693
2099.76,652.87,-0.308413
2111.76,654.8818,-0.161374
2123.76,656.8942,0.002271123
2135.76,658.9054,0.182887
2147.76,660.9296,0.372536
2159.76,662.9536,0.565434
2171.76,664.9668,0.755294
2183.76,666.9843,0.940106
2195.76,668.9985,1.1188
2207.76,671.0128,1.29366
2219.76,673.0195,1.45699
2231.76,675.0274,1.60752
2243.76,677.0303,1.74847
2255.76,679.0314,1.87525
2267.76,681.0402,1.99122
2279.76,683.036,2.09752
2291.76,685.0272,2.18904
2303.76,687.0256,2.27822
2315.76,689.0172,2.36092
2327.76,691.0107,2.43262
2339.76,692.996,2.49983
2351.76,694.9894,2.56106
2363.76,696.9748,2.61882
2375.76,698.9574,2.67354
2387.76,700.9394,2.72679
2399.76,702.928,2.77412
2411.76,704.9114,2.81786
2423.76,706.9015,2.8617
2435.76,708.885,2.90289
2447.76,710.8656,2.94927
2459.76,712.8517,2.98707
2471.76,714.8344,3.02164
2483.76,716.8135,3.05185
2495.76,718.7946,3.08017
2507.76,720.7761,3.1073
2519.76,722.76,3.13571
2531.76,724.7398,3.16391
2543.76,726.7184,3.18896
2555.76,728.6988,3.22003
2567.76,730.6835,3.24465
2579.76,732.6656,3.2663
2591.76,734.643,3.28647
2603.76,736.6216,3.31372
2615.76,738.6054,3.33925
2627.76,740.5872,3.36054
2639.76,742.5633,3.38523
2651.76,744.5454,3.41028
2663.76,746.5308,3.43513
2675.76,748.5072,3.45692
2687.76,750.4881,3.47777
2699.76,752.4728,3.49961
2711.76,754.4489,3.52154
2723.76,756.4299,3.54653
2735.76,758.4088,3.5637
2747.76,760.3918,3.58724
2759.76,762.368,3.60694
2771.76,764.3521,3.62481
2783.76,766.3383,3.6465
2795.76,768.3194,3.66314
2807.76,770.303,3.6817
2819.76,772.281,3.69501
2831.76,774.2594,3.71305
2843.76,776.2424,3.73348
2855.76,778.216,3.75355
2867.76,780.1965,3.7724
2879.76,782.1744,3.78403
2891.76,784.1602,3.79964
2903.76,786.1382,3.81436
2915.76,788.125,3.82652
2927.76,790.111,3.83989
2939.76,792.0899,3.84759
2951.76,794.0712,3.86356
2963.76,796.0508,3.8802
2975.76,798.034,3.89784
2987.76,800.0118,3.91101
2999.76,801.9956,3.92187
3011.76,803.9716,3.93794

File: HKPoly_DSC_O2-21_10K_1.csv
Time,Temperature,Heat Flow
[s],[k],[W/g]
0.19,302.027,4.02801
11.76,302.052,4.03559
23.76,302.215,4.04161
35.76,302.73,4.07278
47.76,303.701,4.14448
59.76,305.136,4.25531
71.76,307.005,4.36769
83.76,309.213,4.47566
95.76,311.66,4.56464
107.76,314.227,4.61582
119.76,316.83,4.62991
131.76,319.401,4.58912
143.76,321.884,4.4935
155.76,324.254,4.33482
167.76,326.5,4.12712
179.76,328.635,3.87503
191.76,330.685,3.591
203.76,332.643,3.29017
215.76,334.551,2.98314
227.76,336.441,2.68019
239.76,338.317,2.39146
251.76,340.219,2.12116
263.76,342.152,1.8739
275.76,344.107,1.65241
287.76,346.105,1.45648
299.76,348.133,1.28604
311.76,350.195,1.1339
323.76,352.263,1.00242
335.76,354.354,0.88446
347.76,356.451,0.779249
359.76,358.546,0.681966
371.76,360.638,0.591674
383.76,362.721,0.507193
395.76,364.783,0.425103
407.76,366.845,0.348695
419.76,368.895,0.275195
431.76,370.926,0.205858
443.76,372.944,0.142578
455.76,374.964,0.0832577
467.76,376.973,0.0276815
479.76,378.987,-0.0191263
491.76,380.998,-0.0612044
503.76,383.011,-0.09732939
515.76,385.033,-0.129032
527.76,387.061,-0.155702
539.76,389.084,-0.179597
551.76,391.108,-0.198762
563.76,393.144,-0.216491
575.76,395.176,-0.232338
587.76,397.209,-0.246208
599.76,399.237,-0.25689
611.76,401.269,-0.264949
623.76,403.301,-0.2707
635.76,405.331,-0.273902
647.76,407.349,-0.275642
659.76,409.363,-0.276473
671.76,411.384,-0.27407
683.76,413.399,-0.271512
695.76,415.415,-0.267161
707.76,417.426,-0.261759
719.76,419.442,-0.254188
731.76,421.459,-0.245527
743.76,423.469,-0.235947
755.76,425.484,-0.225376
767.76,427.504,-0.213299
779.76,429.513,-0.200252
791.76,431.532,-0.186552
803.76,433.545,-0.170964
815.76,435.558,-0.155112
827.76,437.572,-0.138562
839.76,439.585,-0.121411
851.76,441.6,-0.103117
863.76,443.609,-0.083992
875.76,445.613,-0.0637804
887.76,447.628,-0.0422872
899.76,449.641,-0.0194491
911.76,451.653,0.003824244
923.76,453.658,0.0274911
935.76,455.659,0.052429
947.76,457.665,0.07763965
959.76,459.677,0.105267
971.76,461.679,0.132985
983.76,463.685,0.161525
995.76,465.686,0.191754
1007.76,467.692,0.221994
1019.76,469.694,0.253322
1031.76,471.698,0.286003
1043.76,473.706,0.319742
1055.76,475.709,0.353318
1067.76,477.714,0.388231
1079.76,479.717,0.42369
1091.76,481.727,0.459685
1103.76,483.726,0.496275
1115.76,485.729,0.534143
1127.76,487.731,0.572734
1139.76,489.736,0.611643
1151.76,491.741,0.650565
1163.76,493.744,0.690157
1175.76,495.746,0.729955
1187.76,497.747,0.769106
1199.76,499.74,0.807339
1211.76,501.733,0.845729
1223.76,503.735,0.883455
1235.76,505.732,0.921566
1247.76,507.724,0.959678
1259.76,509.72,0.99794
1271.76,511.723,1.03645
1283.76,513.72,1.07487
1295.76,515.719,1.11375
1307.76,517.708,1.15115
1319.76,519.696,1.18997
1331.76,521.694,1.22776
1343.76,523.68,1.26492
1355.76,525.673,1.3029
1367.76,527.675,1.34186
1379.76,529.669,1.38088
1391.76,531.67,1.42055
1403.76,533.655,1.45943
1415.76,535.642,1.49816
1427.76,537.633,1.536657
1439.76,539.635,1.57524
1451.76,541.626,1.6129
1463.76,543.621,1.64842
1475.76,545.606,1.68346
1487.76,547.604,1.71912
1499.76,549.593,1.75256
1511.76,551.576,1.78502
1523.76,553.561,1.81661
1535.76,555.55,1.85011
1547.76,557.536,1.88286
1559.76,559.521,1.9159
1571.76,561.508,1.94684
1583.76,563.496,1.97669
1595.76,565.49,2.00283
1607.76,567.476,2.02438
1619.76,569.465,2.03819
1631.76,571.446,2.04393
1643.76,573.43,2.03419
1655.76,575.412,2.0052
1667.76,577.391,1.93914
1679.76,579.335,1.81047
1691.76,581.269,1.67168
1703.76,583.216,1.58426
1715.76,585.198,1.62592
1727.76,587.135,1.58068
1739.76,589.112,1.61988
1751.76,591.134,1.65893
1763.76,593.064,1.65639
1775.76,595.046,1.65146
1787.76,597.025,1.60817
1799.76,598.993,1.50891
1811.76,600.933,1.34803
1823.76,602.89,1.27694
1835.76,604.874,1.23172
1847.76,606.836,1.2088
1859.76,608.822,1.22895
1871.76,610.8,1.26097
1883.76,612.79,1.32909
1895.76,614.801,1.46618
1907.76,616.843,1.74526
1919.76,618.881,2.00904
1931.76,620.905,2.23167
1943.76,622.922,2.41754
1955.76,624.934,2.57941
1967.76,626.94,2.72159
1979.76,628.95,2.85008
1991.76,630.954,2.96609
2003.76,632.959,3.07183
2015.76,634.954,3.1686
2027.76,636.948,3.25835
2039.76,638.942,3.34022
2051.76,640.934,3.41787
2063.76,642.925,3.48886
2075.76,644.915,3.5571
2087.76,646.901,3.62318
2099.76,648.891,3.68619
2111.76,650.875,3.74658
2123.76,652.857,3.8057
2135.76,654.845,3.86298
2147.76,656.829,3.92009
2159.76,658.812,3.97762
2171.76,660.796,4.03257
2183.76,662.785,4.08858
2195.76,664.77,4.14471
2207.76,666.756,4.2011
2219.76,668.738,4.25787
2231.76,670.725,4.31632
2243.76,672.709,4.37469
2255.76,674.693,4.43382
2267.76,676.676,4.49545
2279.76,678.662,4.55888
2291.76,680.651,4.62426
2303.76,682.644,4.691
2315.76,684.63,4.75045
2327.76,686.607,4.79751
2339.76,688.599,4.84102
2351.76,690.577,4.88602
2363.76,692.561,4.93104
2375.76,694.545,4.9801
2387.76,696.525,5.02887
2399.76,698.514,5.07976
2411.76,700.491,5.13205
2423.76,702.474,5.18275
2435.76,704.456,5.23533
2447.76,706.439,5.28905
2459.76,708.425,5.3418
2471.76,710.405,5.39439
2483.76,712.393,5.44886
2495.76,714.38,5.50047
2507.76,716.364,5.5522
2519.76,718.345,5.60385
2531.76,720.326,5.65511
2543.76,722.308,5.70514
2555.76,724.294,5.75679
2567.76,726.27,5.80709
2579.76,728.249,5.85861
2591.76,730.239,5.90995
2603.76,732.226,5.96296
2615.76,734.205,6.01405
2627.76,736.193,6.06739
2639.76,738.178,6.12043
2651.76,740.159,6.17252
2663.76,742.143,6.22485
2675.76,744.123,6.27835
2687.76,746.113,6.33151
2699.76,748.097,6.3857
2711.76,750.08,6.43882
2723.76,752.068,6.49361
2735.76,754.05,6.54932
2747.76,756.026,6.60441
2759.76,758.012,6.65887
2771.76,759.993,6.71096
2783.76,761.981,6.7652
2795.76,763.966,6.81863
2807.76,765.955,6.87253
2819.76,767.937,6.9248
2831.76,769.92,6.97707
2843.76,771.902,7.02963
2855.76,773.889,7.08316
2867.76,775.869,7.13796
2879.76,777.853,7.19108
2891.76,779.846,7.24395
2903.76,781.83,7.2979
2915.76,783.817,7.35042
2927.76,785.802,7.40606
2939.76,787.782,7.4617
2951.76,789.766,7.51632
2963.76,791.754,7.57287
2975.76,793.74,7.62861
2987.76,795.727,7.68437
2999.76,797.714,7.73921
3011.76,799.703,7.79576

File: HKPoly_TGA_N2_10K_2.csv
Time,Temperature,Mass
[s],[k],[mg]
0.15,300.048,4.189604
11.76,302.715,4.188122
23.76,305.319,4.186716
35.76,307.793,4.18588
47.76,310.154,4.185248
59.76,312.392,4.184512
71.76,314.5129,4.184044
83.76,316.546,4.183632
95.76,318.508,4.182884
107.76,320.425,4.182437
119.76,322.325,4.182182
131.76,324.23,4.181627
143.76,326.147,4.18122
155.76,328.1031,4.180766
167.76,330.08,4.180428
179.76,332.087,4.180193
191.76,334.137,4.179694
203.76,336.217,4.179348
215.76,338.311,4.179239
227.76,340.41,4.178875
239.76,342.517,4.178874
251.76,344.618,4.178704
263.76,346.715,4.178428
275.76,348.806,4.178336
287.76,350.887,4.178422
299.76,352.95,4.178113
311.76,355.0005,4.17811
323.76,357.034,4.17791
335.76,359.067,4.177918
347.76,361.1032,4.17795
359.76,363.114,4.177637
371.76,365.135,4.177641
383.76,367.161,4.177636
395.76,369.187,4.177443
407.76,371.212,4.177295
419.76,373.2419,4.17729
431.76,375.2787,4.177085
443.76,377.3172,4.177163
455.76,379.36,4.176976
467.76,381.3964,4.176605
479.76,383.4395,4.176408
491.76,385.4815,4.176715
503.76,387.519,4.176306
515.76,389.5415,4.176062
527.76,391.5727,4.175986
539.76,393.6015,4.175484
551.76,395.628,4.175056
563.76,397.6613,4.174805
575.76,399.685,4.174036
587.76,401.702,4.173547
599.76,403.7146,4.173039
611.76,405.7418,4.172194
623.76,407.7503,4.1713
635.76,409.7791,4.170698
647.76,411.7978,4.169748
659.76,413.8241,4.168898
671.76,415.837,4.16797
683.76,417.8552,4.167041
695.76,419.8726,4.166119
707.76,421.8894,4.165138
719.76,423.908,4.16396
731.76,425.9244,4.16276
743.76,427.9482,4.161574
755.76,429.9579,4.160022
767.76,431.9728,4.158477
779.76,433.9863,4.156745
791.76,436.0006,4.154766
803.76,438.0063,4.152617
815.76,440.0234,4.15016
827.76,442.0264,4.147474
839.76,444.0322,4.144398
851.76,446.0492,4.141128
863.76,448.0506,4.137265
875.76,450.061,4.133215
887.76,452.0749,4.128979
899.76,454.0808,4.124594
911.76,456.0829,4.119969
923.76,458.0938,4.115395
935.76,460.0955,4.110742
947.76,462.1064,4.106347
959.76,464.1198,4.101992
971.76,466.1262,4.097638
983.76,468.1285,4.093335
995.76,470.1343,4.089088
1007.76,472.1373,4.084659
1019.76,474.1336,4.080019
1031.76,476.141,4.075253
1043.76,478.1408,4.070571
1055.76,480.1446,4.065723
1067.76,482.1544,4.06119
1079.76,484.1592,4.056908
1091.76,486.1703,4.053159
1103.76,488.1778,4.049828
1115.76,490.1831,4.046898
1127.76,492.1762,4.044756
1139.76,494.1814,4.042878
1151.76,496.1849,4.041275
1163.76,498.1889,4.04004
1175.76,500.1898,4.038742
1187.76,502.1961,4.037758
1199.76,504.1938,4.03677
1211.76,506.1943,4.035964
1223.76,508.187,4.034918
1235.76,510.1879,4.033746
1247.76,512.1803,4.032774
1259.76,514.171,4.03154
1271.76,516.1698,4.030176
1283.76,518.1619,4.028679
1295.76,520.1523,4.027
1307.76,522.1462,4.025241
1319.76,524.1455,4.023242
1331.76,526.138,4.020947
1343.76,528.133,4.0187
1355.76,530.1255,4.016087
1367.76,532.1183,4.013074
1379.76,534.111,4.009933
1391.76,536.1015,4.006474
1403.76,538.097,4.002844
1415.76,540.0849,3.998651
1427.76,542.0763,3.994184
1439.76,544.0646,3.98907
1451.76,546.0513,3.983625
1463.76,548.0402,3.977646
1475.76,550.0336,3.97105
1487.76,552.018,3.96375
1499.76,554.0078,3.955862
1511.76,555.996,3.947416
1523.76,557.9832,3.938374
1535.76,559.9712,3.92866
1547.76,561.953,3.918624
1559.76,563.9389,3.907952
1571.76,565.9256,3.896706
1583.76,567.9117,3.885097
1595.76,569.8972,3.873015
1607.76,571.8826,3.860361
1619.76,573.8688,3.847264
1631.76,575.8516,3.833339
1643.76,577.837,3.818804
1655.76,579.819,3.803089
1667.76,581.8024,3.786264
1679.76,583.785,3.767748
1691.76,585.7648,3.747539
1703.76,587.749,3.72517
1715.76,589.7334,3.700615
1727.76,591.7127,3.673209
1739.76,593.6914,3.642822
1751.76,595.6661,3.609134
1763.76,597.6365,3.571488
1775.76,599.606,3.529603
1787.76,601.5758,3.4829
1799.76,603.5358,3.43084
1811.76,605.5035,3.372937
1823.76,607.4665,3.308575
1835.76,609.4334,3.237205
1847.76,611.3938,3.158205
1859.76,613.3512,3.071453
1871.76,615.3103,2.976532
1883.76,617.2656,2.873354
1895.76,619.219,2.762194
1907.76,621.1681,2.643012
1919.76,623.1232,2.516233
1931.76,625.0706,2.382402
1943.76,627.03,2.242098
1955.76,628.994,2.09708
1967.76,630.9652,1.948977
1979.76,632.9396,1.797978
1991.76,634.9176,1.646874
2003.76,636.9029,1.498771
2015.76,638.886,1.345704
2027.76,640.8816,1.20081
2039.76,642.8605,1.05344
2051.76,644.8574,0.9105811
2063.76,646.8581,0.7736634
2075.76,648.852,0.6403884
2087.76,650.8631,0.5146976
2099.76,652.87,0.3969956
2111.76,654.8818,0.2865722
2123.76,656.8942,0.1861692
2135.76,658.9054,0.09676055
2147.76,660.9296,0.01740458
2159.76,662.9536,-0.05267364
2171.76,664.9668,-0.1136777
2183.76,666.9843,-0.1663293
2195.76,668.9985,-0.2110969
2207.76,671.0128,-0.248933
2219.76,673.0195,-0.2808186
2231.76,675.0274,-0.3074467
2243.76,677.0303,-0.3294006
2255.76,679.0314,-0.348
2267.76,681.0402,-0.363
2279.76,683.036,-0.374648
2291.76,685.0272,-0.3845566
2303.76,687.0256,-0.3924119
2315.76,689.0172,-0.398768
2327.76,691.0107,-0.4039719
2339.76,692.996,-0.4080475
2351.76,694.9894,-0.4111564
2363.76,696.9748,-0.4137535
2375.76,698.9574,-0.415618
2387.76,700.9394,-0.4172533
2399.76,702.928,-0.418154
2411.76,704.9114,-0.4186431
2423.76,706.9015,-0.4189384
2435.76,708.885,-0.419084
2447.76,710.8656,-0.4189714
2459.76,712.8517,-0.4190105
2471.76,714.8344,-0.4189534
2483.76,716.8135,-0.4189535
2495.76,718.7946,-0.4188564
2507.76,720.7761,-0.4187894
2519.76,722.76,-0.4186731
2531.76,724.7398,-0.4186848
2543.76,726.7184,-0.4185785
2555.76,728.6988,-0.4185942
2567.76,730.6835,-0.4184959
2579.76,732.6656,-0.4184389
2591.76,734.643,-0.4184378
2603.76,736.6216,-0.4182826
2615.76,738.6054,-0.4182019
2627.76,740.5872,-0.4180847
2639.76,742.5633,-0.4179195
2651.76,744.5454,-0.4178635
2663.76,746.5308,-0.4176898
2675.76,748.5072,-0.4176498
2687.76,750.4881,-0.4176444
2699.76,752.4728,-0.4175266
2711.76,754.4489,-0.4174869
2723.76,756.4299,-0.417259
2735.76,758.4088,-0.4172731
2747.76,760.3918,-0.4172904
2759.76,762.368,-0.4172055
2771.76,764.3521,-0.4170394
2783.76,766.3383,-0.4168067
2795.76,768.3194,-0.4167744
2807.76,770.303,-0.416743
2819.76,772.281,-0.4166632
2831.76,774.2594,-0.4165191
2843.76,776.2424,-0.4164131
2855.76,778.216,-0.4164588
2867.76,780.1965,-0.4163953
2879.76,782.1744,-0.4163159
2891.76,784.1602,-0.4162998
2903.76,786.1382,-0.4163363
2915.76,788.125,-0.4162788
2927.76,790.111,-0.416173
2939.76,792.0899,-0.4161037
2951.76,794.0712,-0.4160277
2963.76,796.0508,-0.4160536
2975.76,798.034,-0.4157637
2987.76,800.0118,-0.4157384
2999.76,801.9956,-0.4156063
3011.76,803.9716,-0.4154716

File: HKPolyU_Cone_25kW_1.CSV
Time,Mass,HRR,Back Surface Temperature 1
[s],[g],[kW/m2],[K]
1,75.47,0.59,304.8
3,75.43,1.04,304.9
5,75.39,1.82,304.9
7,75.37,0.59,304.9
9,75.4,0.71,304.9
11,75.37,1.06,304.8
13,75.33,0.88,304.7
15,75.31,0.59,304.8
17,75.31,1.04,304.9
19,75.34,1.82,304.9
21,75.34,0.59,305.3
23,75.37,0.64,305.6
25,75.35,0.71,306
27,75.31,1.06,306.6
29,75.28,0.88,307.1
31,75.25,1.56,308
33,75.25,2.35,308.7
35,75.25,1.86,309.8
37,75.27,0.83,310.5
39,75.29,0.98,311.6
41,75.26,0.55,312.9
43,75.24,1.65,314.1
45,75.2,1.74,315.3
47,75.18,0.58,316.5
49,75.2,0.97,317.6
51,75.17,0.87,319.1
53,75.16,1.82,320.7
55,75.15,2.3,321.9
57,75.2,2.1,323.3
59,75.19,3.13,324.5
61,75.13,3.66,325.7
63,75.11,3.32,327.1
65,75.09,3.08,328.1
67,75.05,3.18,330.5
69,74.96,2.95,333.8
71,74.81,1.88,336.2
73,74.63,2.44,338.7
75,74.44,1.97,341.1
77,74.25,3.16,343.4
79,73.98,3.69,345.7
81,73.69,5.57,347.9
83,73.44,17.09,349.6
85,73.2,51.08,352
87,72.89,103.74,353.9
89,72.62,158.98,356.3
91,72.28,211.66,358
93,71.92,274.92,360.1
95,71.58,345.78,361.7
97,71.24,399.16,363.5
99,70.9,448.27,365.3
101,70.55,490.39,367.1
103,70.17,523.59,368.8
105,69.82,564.03,370.3
107,69.45,603.02,371.7
109,69.05,643.42,373.1
111,68.71,669.92,374.3
113,68.31,691.18,375.5
115,67.89,713.5,376.6
117,67.52,733.25,378
119,67.18,750.11,379.3
121,66.8,757.64,380.9
123,66.33,763.16,382.3
125,65.99,775.04,384.1
127,65.54,803.15,386.3
129,65.14,831.12,388.3
131,64.75,846.85,390.2
133,64.36,852.13,391.9
135,63.94,857.36,394
137,63.55,865.12,396.7
139,63.14,869.72,399.7
141,62.74,871.53,402.6
143,62.34,874.31,404.6
145,61.98,881.26,407.6
147,61.56,888.63,409.4
149,61.17,892.47,411.1
151,60.78,894.29,413.3
153,60.35,896.48,415.7
155,59.96,898.48,417.9
157,59.55,899.41,420.3
159,59.16,904.52,422.7
161,58.72,910.75,424.8
163,58.35,905.49,426.6
165,58.01,903.68,429.3
167,57.56,908.96,431.4
169,57.15,918.74,433.1
171,56.72,930.23,435.6
173,56.31,936.25,437.5
175,55.86,937.24,439.5
177,55.5,931.42,441.6
179,55.02,925.22,443.6
181,54.57,921.63,445.6
183,54.18,919.53,447.5
185,53.76,917.81,449.6
187,53.36,922.64,451.8
189,52.99,937.81,454.1
191,52.58,956.28,456.2
193,52.13,967.31,458
195,51.74,977.7,460
197,51.31,987.14,462
199,50.86,984.47,464
201,50.49,980.03,465.6
203,50.02,981.86,467.6
205,49.59,983.24,469.8
207,49.17,983.25,471.5
209,48.74,978.68,473.2
211,48.27,974.49,475.2
213,47.84,972.03,477.1
215,47.45,968.79,479.1
217,46.97,967.84,480.7
219,46.55,981.81,482.8
221,46.1,997.15,484.6
223,45.64,1009.76,486.6
225,45.23,1017.97,488
227,44.79,1025.23,489.7
229,44.32,1031.58,491.1
231,43.85,1030.72,492.4
233,43.43,1029.65,493.6
235,43,1029.98,494.7
237,42.53,1031.32,496.5
239,42.04,1034.71,497.7
241,41.58,1048.82,499.2
243,41.12,1058.6,500.6
245,40.69,1056.44,502.1
247,40.23,1050.25,503.3
249,39.75,1046.89,504.6
251,39.32,1046.22,505.6
253,38.85,1062.8,506.8
255,38.36,1074.55,508
257,37.9,1082.51,509.1
259,37.46,1089.4,510
261,36.98,1099.14,511.1
263,36.49,1105.75,511.2
265,36.01,1106.14,512.2
267,35.53,1099.49,513.3
269,35.05,1100.43,514.4
271,34.57,1108.48,515.1
273,34.13,1116.06,517.2
275,33.69,1122.13,518.3
277,33.24,1125.94,520.3
279,32.78,1124.54,522.1
281,32.29,1123.15,523.8
283,31.78,1122.17,526.2
285,31.35,1127.18,527.3
287,30.89,1137.38,529.9
289,30.4,1138.58,532.5
291,29.97,1129.91,534.5
293,29.53,1125.77,538.3
295,29.11,1124.61,540.9
297,28.62,1124.94,542.6
299,28.18,1126.58,545
301,27.72,1128.36,543.3
303,27.27,1125.36,545.1
305,26.85,1112.16,545.7
307,26.4,1095.77,545.8
309,25.94,1082.84,546.6
311,25.5,1077.89,547.4
313,25.06,1077.85,548.4
315,24.63,1095.18,550.1
317,24.16,1111.37,551
319,23.76,1110.55,551.5
321,23.33,1107.68,553
323,22.92,1105.88,553.5
325,22.49,1101.32,554.1
327,22.08,1085.25,555
329,21.68,1063.33,556.1
331,21.28,1028.23,557.5
333,20.88,1008.16,559
335,20.48,1004.94,561.3
337,20.05,1004.26,562.8
339,19.68,1004.26,564.8
341,19.28,1002.54,567
343,18.84,991.87,569.6
345,18.5,971.84,571.8
347,18.11,947.36,574.3
349,17.67,921.79,577.1
351,17.32,911.25,579.3
353,16.96,903.05,581.8
355,16.55,891.97,584.2
357,16.15,883.84,586.6
359,15.77,874.59,589.2
361,15.44,867.09,591.3
363,15.04,860.99,593.6
365,14.67,853.43,595.7
367,14.3,837.54,597.4
369,13.95,825.34,599.5
371,13.59,812.6,601.2
373,13.23,801.84,602.8
375,12.91,796.61,603.9
377,12.58,790.6,605
379,12.21,765.49,606.6
381,11.9,748.08,608.6
383,11.53,738.15,610.3
385,11.18,721.18,612.2
387,10.86,704.5,614.1
389,10.58,684.48,615.9
391,10.23,654.17,617.7
393,9.88,627.76,620.2
395,9.54,604.89,623
397,9.23,588.98,625.9
399,8.96,581.13,630.6
401,8.66,576.13,636.4
403,8.39,573.57,654.7
405,8.09,569.14,672.9
407,7.82,557.8,687.4
409,7.53,544.34,702.7
411,7.26,529.92,718.5
413,7,508.18,730.6
415,6.78,492.78,741.8
417,6.55,478.25,757.8
419,6.36,457.5,778.9
421,6.1,434.82,791.1
423,5.89,412.12,800.4
425,5.68,388.95,821.6
427,5.48,369.62,825.2
429,5.3,349.66,823.9
431,5.08,328.05,833.7
433,4.87,304.94,846.8
435,4.73,283.62,861.6
437,4.55,263.94,867.7
439,4.38,248.24,867.2
441,4.17,234.87,859.8
443,4.03,220.93,845.1
445,3.88,207.67,819.3
447,3.77,197.51,784
449,3.65,189.96,759.9
451,3.53,176.69,751.6
453,3.39,162.6,743.5
455,3.26,153.17,737.8
457,3.15,144.23,732.3
459,3.04,133.7,721.7
461,2.86,121.75,717.6
463,2.73,109.17,716.9
465,2.63,94.8,713.9
467,2.51,85.59,710.8
469,2.37,80.8,725.2
471,2.26,77.38,719.2
473,2.14,73.18,713.8
475,2,69.02,710.3
477,1.85,66.92,702.2
479,1.75,67.01,700.5
481,1.66,66.77,706.2
483,1.54,65.54,702.9
485,1.47,64.9,708.7
487,1.33,62.35,703.2
489,1.24,58.24,697.9
491,1.14,54.71,695.2
493,1.04,52.3,693.1
495,0.92,51.51,691.6
497,0.8,51.88,690.1
499,0.72,51.81,691
501,0.58,50.58,692.7
503,0.51,48.74,693
505,0.42,44.44,691.4
506,0.38,42.04,691.1