Folder: matl-db/Non-charring/PMMA/HKPoly

Note: Non-charring/PMMA/HKPoly/README.md
# The Hong Kong Polytechnic University (HKPoly)

### Experimental Conditions, TGA
A TA Instruments SDT Q600 (V20.9 Build 20) was used to conduct Simultaneous Thermal Analysis (TGA + DSC) experiments. STA experiments performed in Nitrogen and in Air. Although tests were conducted simultaneously, TGA and DSC measurement data presented here are separated into two files, for consistency with other datasets.

* Heating Rate: 10 K/min
* Temperature program
  - Initial Temperature: 300 K
  - Initial Isotherm: None [?]
  - Maximum Temperature: 800 K
  - Final Isotherm: None
* Sample mass: ~4 mg
* Sample geometry: powdered
* Calibration type: Annual internal mass calibration  [?]
* Crucible
  - Type: Al2O3 [?]
  - Volume: 85 ÂµL [?]
  - Diameter: 6.8 mm [?]
  - Mass: None
  - Lid: None
  - Note: None
* Carrier Gas
  - Type: Air, Nitrogen
  - Flow rate: 100 ml/min
  - Note: None
* Instrument
  - Type: TA Instruments SDT Q600 (V20.9 Build 20)
  - Note: Simultaneous Thermal Analysis (TGA + DSC), measurement data presented as two separated files
 
| Test Name | O2 vol % |  Initial Sample Mass (mg) | 
| --------- | :----: | :------------------------:|
|HKPolyU\_STA\_N2\_1 |  0  | 4.104|  
|HKPolyU\_STA\_N2\_2 |  0  | 4.1896|  
|HKPolyU\_STA\_Air\_1 | 21? |3.9309|  
|HKPolyU\_STA\_Air\_2 | 21? |3.8808|  


### Experimental Conditions, Cone calorimeter
* Extraction flow rate: 7.14L/s
* Sample Surface Area: 0.01 m2 (nominal)
* Sample holder dimensions:
    - Insulation board with a dimension of 10 cm * 10 cm * 5 cm
* Backing Insulation: thermal conductivity?0.1 W/m.K, density?800 kg/m3, heat capacity?0.5
* Thermocouple location:
    - Back surface [center?]

###### Test Heating Conditions  
|Test Name | Heat Flux (kW/m2)| Heater Temperature (K) 
|----------|:------:| :---: |
|HKPolyU\_Cone\_25KW\_1 | 25| 900  |
|HKPolyU\_Cone\_25KW\_2 | 25| 900  |
|HKPolyU\_Cone\_65KW\_1 | 65| 1188 |
|HKPolyU\_Cone\_65KW\_2 | 65| 1188 |

File: HKPoly_Cone_25kW_1.csv
Time,Mass,Heat release,Back surface temperature
[s],[g],[kW/m2],[K]
1,75.47,0.59,304.8
3,75.43,1.04,304.9
5,75.39,1.82,304.9
7,75.37,0.59,304.9
9,75.4,0.71,304.9
11,75.37,1.06,304.8
13,75.33,0.88,304.7
15,75.31,0.59,304.8
17,75.31,1.04,304.9
19,75.34,1.82,304.9
21,75.34,0.59,305.3
23,75.37,0.64,305.6
25,75.35,0.71,306
27,75.31,1.06,306.6
29,75.28,0.88,307.1
31,75.25,1.56,308
33,75.25,2.35,308.7
35,75.25,1.86,309.8
37,75.27,0.83,310.5
39,75.29,0.98,311.6
41,75.26,0.55,312.9
43,75.24,1.65,314.1
45,75.2,1.74,315.3
47,75.18,0.58,316.5
49,75.2,0.97,317.6
51,75.17,0.87,319.1
53,75.16,1.82,320.7
55,75.15,2.3,321.9
57,75.2,2.1,323.3
59,75.19,3.13,324.5
61,75.13,3.66,325.7
63,75.11,3.32,327.1
65,75.09,3.08,328.1
67,75.05,3.18,330.5
69,74.96,2.95,333.8
71,74.81,1.88,336.2
73,74.63,2.44,338.7
75,74.44,1.97,341.1
77,74.25,3.16,343.4
79,73.98,3.69,345.7
81,73.69,5.57,347.9
83,73.44,17.09,349.6
85,73.2,51.08,352
87,72.89,103.74,353.9
89,72.62,158.98,356.3
91,72.28,211.66,358
93,71.92,274.92,360.1
95,71.58,345.78,361.7
97,71.24,399.16,363.5
99,70.9,448.27,365.3
101,70.55,490.39,367.1
103,70.17,523.59,368.8
105,69.82,564.03,370.3
107,69.45,603.02,371.7
109,69.05,643.42,373.1
111,68.71,669.92,374.3
113,68.31,691.18,375.5
115,67.89,713.5,376.6
117,67.52,733.25,378
119,67.18,750.11,379.3
121,66.8,757.64,380.9
123,66.33,763.16,382.3
125,65.99,775.04,384.1
127,65.54,803.15,386.3
129,65.14,831.12,388.3
131,64.75,846.85,390.2
133,64.36,852.13,391.9
135,63.94,857.36,394
137,63.55,865.12,396.7
139,63.14,869.72,399.7
141,62.74,871.53,402.6
143,62.34,874.31,404.6
145,61.98,881.26,407.6
147,61.56,888.63,409.4
149,61.17,892.47,411.1
151,60.78,894.29,413.3
153,60.35,896.48,415.7
155,59.96,898.48,417.9
157,59.55,899.41,420.3
159,59.16,904.52,422.7
161,58.72,910.75,424.8
163,58.35,905.49,426.6
165,58.01,903.68,429.3
167,57.56,908.96,431.4
169,57.15,918.74,433.1
171,56.72,930.23,435.6
173,56.31,936.25,437.5
175,55.86,937.24,439.5
177,55.5,931.42,441.6
179,55.02,925.22,443.6
181,54.57,921.63,445.6
183,54.18,919.53,447.5
185,53.76,917.81,449.6
187,53.36,922.64,451.8
189,52.99,937.81,454.1
191,52.58,956.28,456.2
193,52.13,967.31,458
195,51.74,977.7,460
197,51.31,987.14,462
199,50.86,984.47,464
201,50.49,980.03,465.6
203,50.02,981.86,467.6
205,49.59,983.24,469.8
207,49.17,983.25,471.5
209,48.74,978.68,473.2
211,48.27,974.49,475.2
213,47.84,972.03,477.1
215,47.45,968.79,479.1
217,46.97,967.84,480.7
219,46.55,981.81,482.8
221,46.1,997.15,484.6
223,45.64,1009.76,486.6
225,45.23,1017.97,488
227,44.79,1025.23,489.7
229,44.32,1031.58,491.1
231,43.85,1030.72,492.4
233,43.43,1029.65,493.6
235,43,1029.98,494.7
237,42.53,1031.32,496.5
239,42.04,1034.71,497.7
241,41.58,1048.82,499.2
243,41.12,1058.6,500.6
245,40.69,1056.44,502.1
247,40.23,1050.25,503.3
249,39.75,1046.89,504.6
251,39.32,1046.22,505.6
253,38.85,1062.8,506.8
255,38.36,1074.55,508
257,37.9,1082.51,509.1
259,37.46,1089.4,510
261,36.98,1099.14,511.1
263,36.49,1105.75,511.2
265,36.01,1106.14,512.2
267,35.53,1099.49,513.3
269,35.05,1100.43,514.4
271,34.57,1108.48,515.1
273,34.13,1116.06,517.2
275,33.69,1122.13,518.3
277,33.24,1125.94,520.3
279,32.78,1124.54,522.1
281,32.29,1123.15,523.8
283,31.78,1122.17,526.2
285,31.35,1127.18,527.3
287,30.89,1137.38,529.9
289,30.4,1138.58,532.5
291,29.97,1129.91,534.5
293,29.53,1125.77,538.3
295,29.11,1124.61,540.9
297,28.62,1124.94,542.6
299,28.18,1126.58,545
301,27.72,1128.36,543.3
303,27.27,1125.36,545.1
305,26.85,1112.16,545.7
307,26.4,1095.77,545.8
309,25.94,1082.84,546.6
311,25.5,1077.89,547.4
313,25.06,1077.85,548.4
315,24.63,1095.18,550.1
317,24.16,1111.37,551
319,23.76,1110.55,551.5
321,23.33,1107.68,553
323,22.92,1105.88,553.5
325,22.49,1101.32,554.1
327,22.08,1085.25,555
329,21.68,1063.33,556.1
331,21.28,1028.23,557.5
333,20.88,1008.16,559
335,20.48,1004.94,561.3
337,20.05,1004.26,562.8
339,19.68,1004.26,564.8
341,19.28,1002.54,567
343,18.84,991.87,569.6
345,18.5,971.84,571.8
347,18.11,947.36,574.3
349,17.67,921.79,577.1
351,17.32,911.25,579.3
353,16.96,903.05,581.8
355,16.55,891.97,584.2
357,16.15,883.84,586.6
359,15.77,874.59,589.2
361,15.44,867.09,591.3
363,15.04,860.99,593.6
365,14.67,853.43,595.7
367,14.3,837.54,597.4
369,13.95,825.34,599.5
371,13.59,812.6,601.2
373,13.23,801.84,602.8
375,12.91,796.61,603.9
377,12.58,790.6,605
379,12.21,765.49,606.6
381,11.9,748.08,608.6
383,11.53,738.15,610.3
385,11.18,721.18,612.2
387,10.86,704.5,614.1
389,10.58,684.48,615.9
391,10.23,654.17,617.7
393,9.88,627.76,620.2
395,9.54,604.89,623
397,9.23,588.98,625.9
399,8.96,581.13,630.6
401,8.66,576.13,636.4
403,8.39,573.57,654.7
405,8.09,569.14,672.9
407,7.82,557.8,687.4
409,7.53,544.34,702.7
411,7.26,529.92,718.5
413,7,508.18,730.6
415,6.78,492.78,741.8
417,6.55,478.25,757.8
419,6.36,457.5,778.9
421,6.1,434.82,791.1
423,5.89,412.12,800.4
425,5.68,388.95,821.6
427,5.48,369.62,825.2
429,5.3,349.66,823.9
431,5.08,328.05,833.7
433,4.87,304.94,846.8
435,4.73,283.62,861.6
437,4.55,263.94,867.7
439,4.38,248.24,867.2
441,4.17,234.87,859.8
443,4.03,220.93,845.1
445,3.88,207.67,819.3
447,3.77,197.51,784
449,3.65,189.96,759.9
451,3.53,176.69,751.6
453,3.39,162.6,743.5
455,3.26,153.17,737.8
457,3.15,144.23,732.3
459,3.04,133.7,721.7
461,2.86,121.75,717.6
463,2.73,109.17,716.9
465,2.63,94.8,713.9
467,2.51,85.59,710.8
469,2.37,80.8,725.2
471,2.26,77.38,719.2
473,2.14,73.18,713.8
475,2,69.02,710.3
477,1.85,66.92,702.2
479,1.75,67.01,700.5
481,1.66,66.77,706.2
483,1.54,65.54,702.9
485,1.47,64.9,708.7
487,1.33,62.35,703.2
489,1.24,58.24,697.9
491,1.14,54.71,695.2
493,1.04,52.3,693.1
495,0.92,51.51,691.6
497,0.8,51.88,690.1
499,0.72,51.81,691
501,0.58,50.58,692.7
503,0.51,48.74,693
505,0.42,44.44,691.4
506,0.38,42.04,691.1

File: HKPoly_Cone_65kW_1.csv
Time,Mass,Heat release,Back surface temperature
[s],[g],[kW/m2],[K]
1,81.94,0.39,297.2
2,81.93,0.65,297.2
3,81.92,0.94,297.2
4,81.9,0.72,297.2
5,81.91,0.44,297.3
6,81.9,0.35,297.3
7,81.91,0.44,297.3
8,81.9,0.76,297.3
9,81.88,0.89,297.3
10,81.86,0.64,297.3
11,81.86,0.41,297.3
12,81.87,0.36,297.3
13,81.89,0.49,297.3
14,81.88,0.84,297.3
15,81.82,0.87,297.4
16,81.74,0.61,297.4
17,81.6,0.42,297.5
18,81.42,0.37,297.6
19,81.22,0.61,297.6
20,80.99,0.2,297.7
21,80.72,0.21,297.9
22,80.47,0.45,298
23,80.18,0.38,298.3
24,79.89,1.25,298.4
25,79.56,2.31,298.7
26,79.21,3.31,299.1
27,78.91,3.94,299.4
28,78.58,8.88,299.8
29,78.23,21.05,300.2
30,77.88,49.65,300.7
31,77.55,97.48,301.2
32,77.2,168.9,301.7
33,76.81,270.19,302.3
34,76.47,411.69,303
35,76.1,534.66,303.7
36,75.72,664.84,304.5
37,75.32,786.77,305.3
38,74.95,904.93,306.2
39,74.6,1022,307.2
40,74.21,1131.8,308
41,73.86,1241.26,309
42,73.55,1308.1,310
43,72.98,1360.57,311.1
44,72.63,1510.57,312.2
45,72.24,1583.86,313.3
46,71.85,1643.83,314.3
47,71.5,1703.62,315.6
48,71.13,1766.5,316.8
49,70.73,1820.67,317.9
50,70.35,1861.38,319.1
51,69.96,1892.42,320.4
52,69.57,1921.52,321.6
53,69.17,1954.73,322.9
54,68.79,1994,324.1
55,68.42,2029.32,325.5
56,67.99,2054.6,326.8
57,67.6,2071.28,328.1
58,67.23,2083.91,329.5
59,66.85,2099.04,330.8
60,66.46,2117.02,332.2
61,66.03,2132.8,333.6
62,65.66,2143.9,334.9
63,65.28,2149.53,336.4
64,64.91,2146.84,337.7
65,64.51,2142.8,339.1
66,64.12,2140.16,340.6
67,63.72,2138.46,342
68,63.35,2142.44,343.4
69,63,2157.18,344.8
70,62.62,2174.24,346.4
71,62.22,2187.94,347.9
72,61.81,2198.35,349.5
73,61.4,2208.38,351.1
74,60.99,2216.5,352.7
75,60.62,2222.08,354
76,60.22,2228.96,355.6
77,59.81,2240,357
78,59.43,2250.46,358.5
79,59.06,2257.29,359.7
80,58.68,2260.82,361.1
81,58.3,2261.97,362.4
82,57.88,2259.53,363.6
83,57.48,2253.98,364.9
84,57.08,2249.72,365.9
85,56.7,2245.94,366.8
86,56.31,2242.24,367.8
87,55.9,2240,368.3
88,55.52,2244.04,368.8
89,55.15,2254.65,369.3
90,54.77,2270.94,369.6
91,54.38,2287.38,370
92,53.97,2299.52,370.5
93,53.57,2308.81,371
94,53.19,2319.06,371.6
95,52.78,2328.25,372.3
96,52.41,2335.22,373.3
97,52.02,2336.13,374.2
98,51.62,2334.87,375.3
99,51.21,2332.81,376.6
100,50.82,2326.2,378
101,50.46,2319.16,379.9
102,50.06,2313.85,381.9
103,49.67,2310.06,383.9
104,49.28,2307,386
105,48.9,2305.85,388.2
106,48.51,2308.65,390.3
107,48.12,2312.9,392.5
108,47.77,2316.06,394.6
109,47.37,2312.74,396.7
110,46.98,2305.47,398.8
111,46.57,2300.11,400.9
112,46.2,2296.77,402.9
113,45.82,2296.48,404.9
114,45.43,2299.52,406.9
115,45.02,2302.63,408.9
116,44.64,2305.6,410.8
117,44.27,2312.7,412.8
118,43.86,2319.15,414.8
119,43.44,2323.99,416.7
120,43.04,2326.52,418.6
121,42.72,2313.19,420.6
122,42.35,2290.94,422.5
123,41.99,2273.89,424.4
124,41.63,2262.82,426.6
125,41.23,2256.59,428.6
126,40.83,2255.66,430.8
127,40.42,2267.32,432.8
128,40.01,2282.19,435
129,39.57,2296.05,437.3
130,39.17,2307.55,439.6
131,38.78,2317.96,441.8
132,38.39,2330.83,444
133,37.98,2346.71,446.2
134,37.54,2365.25,448.5
135,37.13,2383,450.7
136,36.71,2396.54,453
137,36.3,2405.96,455.3
138,35.89,2405.76,457.6
139,35.47,2394.98,460
140,35.09,2382.27,462.1
141,34.66,2373.49,464.4
142,34.24,2385.73,466.7
143,33.83,2415.4,469
144,33.4,2443.3,471.2
145,32.97,2463.78,473.2
146,32.56,2478.01,475
147,32.16,2487.37,476.4
148,31.73,2481.54,477.6
149,31.32,2470.1,478.6
150,30.87,2460.88,479.7
151,30.4,2463.82,480.8
152,29.95,2483.73,482
153,29.5,2509.82,483.3
154,29.06,2530.52,484.8
155,28.6,2545.97,486.6
156,28.15,2562.68,488.3
157,27.69,2579.24,490.3
158,27.23,2602.49,492.4
159,26.79,2630.2,494.9
160,26.35,2656.19,496.9
161,25.91,2674.96,499.1
162,25.46,2689.91,501.2
163,24.99,2705.58,503.2
164,24.52,2719.54,506.1
165,24.07,2732.39,509.3
166,23.62,2743.88,511.9
167,23.19,2752.81,514.2
168,22.73,2759.21,516
169,22.28,2767.9,517.9
170,21.84,2783.66,520.2
171,21.42,2804.45,523
172,21.02,2826.31,526.4
173,20.63,2840.94,529.4
174,20.22,2853.05,533
175,19.8,2861.33,536.4
176,19.41,2869.12,539.8
177,19.01,2876.53,543.2
178,18.6,2888.68,546.9
179,18.21,2898.67,550.3
180,17.82,2904.71,553.5
181,17.45,2908.98,556.5
182,17.08,2905.86,558.9
183,16.7,2892.33,560.8
184,16.3,2870.96,562.6
185,15.87,2841.25,564.7
186,15.48,2805.86,565.4
187,15.08,2760.26,563.4
188,14.71,2705.74,556.3
189,14.35,2647.67,542.6
190,13.96,2595.63,541.8
191,13.6,2548.5,548.6
192,13.26,2508.55,563.3
193,12.91,2477.34,594.5
194,12.58,2455.06,615.5
195,12.28,2432.48,644.5
196,11.98,2407.66,679.9
197,11.68,2381.58,656.8
198,11.37,2356.75,680.7
199,11.06,2335.56,706.7
200,10.78,2317.61,730.1
201,10.48,2294.39,752.6
202,10.18,2257.94,774.3
203,9.89,2208.41,792.7
204,9.58,2157.83,809.2
205,9.26,2103.08,827.7
206,8.99,2040.84,842.6
207,8.74,1959.33,851.9
208,8.49,1869.79,910.8
209,8.26,1769.45,954.6
210,8.04,1684.75,942.1
211,7.79,1599.45,949.5
212,7.54,1512.65,954.5
213,7.32,1433.89,965.3
214,7.11,1360.33,979.2
215,6.91,1270.59,987
216,6.73,1185.38,990.9
217,6.55,1109.29,1003.9
218,6.35,1033.48,1006.8
219,6.16,965.69,1002.5
220,5.95,901.96,1000
221,5.8,836.36,998.7
222,5.62,768.38,986.5
223,5.42,700.74,989.1
224,5.24,640.54,982.3
225,5.06,581.69,966.8
226,4.89,528.57,945.4
227,4.69,476.94,937.5
228,4.53,431.81,929.2
229,4.39,389.2,924.9
230,4.2,353.64,919.2
231,4.05,319.49,911.6
232,3.9,286.56,905.7
233,3.75,254.26,901.7
234,3.61,221.04,900
235,3.43,193.23,897.8
236,3.25,167.83,896.5
237,3.12,148.52,895.5
238,2.98,132.32,893.7
239,2.82,117.68,892.5
240,2.66,103.24,892.6
241,2.49,87.77,891.5
242,2.34,73.52,892.2
243,2.18,60.59,891
244,2.03,51.07,891.1
245,1.87,43.06,888.9
246,1.72,36.35,889.7
247,1.58,30.51,887.9
248,1.41,25.66,887.7
249,1.26,21.13,887.6
250,1.11,17.71,887.1
251,0.92,15,888
252,0.75,12.97,885.8
253,0.6,11.66,886.5
254,0.47,10.17,886.1
255,0.33,9.56,885.6

File: HKPoly_DSC_N2_10K_1.csv
Time,Temperature,Heat Flow
[s],[k],[W/g]
0.24,300.03,4.53669
11.76,301.529,5.33532
23.76,303.413,5.41789
35.76,305.606,5.46215
47.76,308.017,5.47335
59.76,310.538,5.45192
71.76,313.081,5.39489
83.76,315.613,5.28592
95.76,318.045,5.13558
107.76,320.383,4.94013
119.76,322.618,4.69473
131.76,324.751,4.41738
143.76,326.786,4.11493
155.76,328.76,3.79101
167.76,330.689,3.46334
179.76,332.588,3.14209
191.76,334.483,2.83703
203.76,336.385,2.54675
215.76,338.301,2.27752
227.76,340.237,2.03241
239.76,342.199,1.80977
251.76,344.179,1.61083
263.76,346.19,1.43009
275.76,348.208,1.26728
287.76,350.236,1.12283
299.76,352.276,0.989924
311.76,354.312,0.868705
323.76,356.341,0.75985
335.76,358.373,0.659263
347.76,360.401,0.564738
359.76,362.424,0.47792
371.76,364.457,0.394296
383.76,366.462,0.319399
395.76,368.472,0.249599
407.76,370.482,0.184822
419.76,372.483,0.126848
431.76,374.501,0.0730925
443.76,376.511,0.0255349
455.76,378.519,-0.0171723
467.76,380.536,-0.0558111
479.76,382.553,-0.0893422
491.76,384.566,-0.119854
503.76,386.595,-0.146889
515.76,388.612,-0.169897
527.76,390.632,-0.191099
539.76,392.657,-0.210817
551.76,394.68,-0.228834
563.76,396.694,-0.243583
575.76,398.718,-0.257328
587.76,400.732,-0.267029
599.76,402.754,-0.274698
611.76,404.775,-0.2796
623.76,406.78,-0.283362
635.76,408.801,-0.284186
647.76,410.817,-0.285808
659.76,412.831,-0.283432
671.76,414.852,-0.280398
683.76,416.861,-0.277174
695.76,418.866,-0.271077
707.76,420.878,-0.264833
719.76,422.894,-0.256707
731.76,424.898,-0.249137
743.76,426.913,-0.239786
755.76,428.932,-0.229768
767.76,430.95,-0.219538
779.76,432.952,-0.208018
791.76,434.965,-0.196852
803.76,436.971,-0.185706
815.76,438.986,-0.174151
827.76,440.997,-0.16206
839.76,443.001,-0.149891
851.76,445.015,-0.137041
863.76,447.02,-0.12264
875.76,449.022,-0.108052
887.76,451.028,-0.0921104
899.76,453.026,-0.0755208
911.76,455.029,-0.0566815
923.76,457.035,-0.0366834
935.76,459.042,-0.0151999
947.76,461.052,0.008026116
959.76,463.056,0.0325631
971.76,465.054,0.0590652
983.76,467.067,0.0869962
995.76,469.074,0.114878
1007.76,471.074,0.143454
1019.76,473.075,0.172029
1031.76,475.076,0.200762
1043.76,477.08,0.22922
1055.76,479.086,0.259128
1067.76,481.095,0.290817
1079.76,483.098,0.323253
1091.76,485.097,0.356988
1103.76,487.099,0.39176
1115.76,489.1,0.429599
1127.76,491.106,0.46605
1139.76,493.111,0.504054
1151.76,495.108,0.543575
1163.76,497.109,0.582078
1175.76,499.112,0.61981
1187.76,501.12,0.658312
1199.76,503.116,0.69443
1211.76,505.107,0.731199
1223.76,507.105,0.767101
1235.76,509.096,0.802946
1247.76,511.096,0.837561
1259.76,513.088,0.8716423
1271.76,515.084,0.905585
1283.76,517.078,0.937744
1295.76,519.067,0.970326
1307.76,521.059,1.00317
1319.76,523.058,1.03516
1331.76,525.052,1.06647
1343.76,527.046,1.09739
1355.76,529.037,1.12825
1367.76,531.037,1.15698
1379.76,533.023,1.18564
1391.76,535.012,1.21443
1403.76,536.994,1.24202
1415.76,538.986,1.26972
1427.76,540.978,1.29593
1439.76,542.964,1.32147
1451.76,544.953,1.34641
1463.76,546.938,1.37052
1475.76,548.927,1.39563
1487.76,550.915,1.41908
1499.76,552.901,1.4416
1511.76,554.888,1.46418
1523.76,556.875,1.48582
1535.76,558.863,1.50714
1547.76,560.85,1.53026
1559.76,562.839,1.55163
1571.76,564.819,1.57298
1583.76,566.808,1.59469
1595.76,568.791,1.61706
1607.76,570.772,1.64011
1619.76,572.758,1.66339
1631.76,574.744,1.68571
1643.76,576.732,1.70839
1655.76,578.711,1.72843
1667.76,580.7,1.75015
1679.76,582.678,1.76747
1691.76,584.662,1.78189
1703.76,586.641,1.79379
1715.76,588.626,1.80239
1727.76,590.609,1.80863
1739.76,592.592,1.81055
1751.76,594.569,1.80803
1763.76,596.539,1.80025
1775.76,598.514,1.78781
1787.76,600.483,1.76915
1799.76,602.451,1.74394
1811.76,604.419,1.71196
1823.76,606.389,1.67244
1835.76,608.355,1.62388
1847.76,610.313,1.56764
1859.76,612.271,1.50325
1871.76,614.233,1.42947
1883.76,616.197,1.34975
1895.76,618.151,1.26272
1907.76,620.105,1.17108
1919.76,622.058,1.07883
1931.76,624.013,0.985975
1943.76,625.966,0.896207
1955.76,627.929,0.816705
1967.76,629.888,0.755313
1979.76,631.859,0.717233
1991.76,633.829,0.700851
2003.76,635.81,0.704973
2015.76,637.799,0.720897
2027.76,639.783,0.751944
2039.76,641.768,0.806307
2051.76,643.767,0.893337
2063.76,645.755,0.959598
2075.76,647.753,1.04757
2087.76,649.752,1.15327
2099.76,651.759,1.27189
2111.76,653.766,1.40706
2123.76,655.774,1.5526
2135.76,657.79,1.71553
2147.76,659.799,1.89706
2159.76,661.813,2.0845
2171.76,663.84,2.27519
2183.76,665.848,2.46535
2195.76,667.867,2.653
2207.76,669.871,2.83509
2219.76,671.882,3.00457
2231.76,673.893,3.16493
2243.76,675.898,3.31217
2255.76,677.898,3.45004
2267.76,679.901,3.57765
2279.76,681.903,3.69313
2291.76,683.892,3.79881
2303.76,685.89,3.89559
2315.76,687.88,3.98229
2327.76,689.871,4.06393
2339.76,691.864,4.13784
2351.76,693.853,4.20465
2363.76,695.842,4.26975
2375.76,697.825,4.32754
2387.76,699.807,4.38249
2399.76,701.796,4.43591
2411.76,703.776,4.48659
2423.76,705.758,4.5342
2435.76,707.739,4.58054
2447.76,709.725,4.62673
2459.76,711.706,4.67111
2471.76,713.692,4.71461
2483.76,715.671,4.7539
2495.76,717.655,4.79264
2507.76,719.64,4.83148
2519.76,721.627,4.86801
2531.76,723.601,4.90401
2543.76,725.581,4.9388
2555.76,727.558,4.97196
2567.76,729.544,5.00569
2579.76,731.525,5.0393
2591.76,733.504,5.073
2603.76,735.488,5.10598
2615.76,737.467,5.13833
2627.76,739.454,5.17193
2639.76,741.43,5.20437
2651.76,743.407,5.23696
2663.76,745.392,5.27017
2675.76,747.374,5.30277
2687.76,749.362,5.33578
2699.76,751.335,5.36853
2711.76,753.318,5.40019
2723.76,755.295,5.43239
2735.76,757.268,5.46206
2747.76,759.251,5.49366
2759.76,761.234,5.52491
2771.76,763.215,5.5531
2783.76,765.201,5.57979
2795.76,767.185,5.60754
2807.76,769.167,5.63369
2819.76,771.151,5.65924
2831.76,773.131,5.68681
2843.76,775.11,5.71349
2855.76,777.087,5.73907
2867.76,779.067,5.76562
2879.76,781.048,5.79339
2891.76,783.031,5.82039
2903.76,785.012,5.84699
2915.76,787,5.87305
2927.76,788.976,5.89793
2939.76,790.963,5.92325
2951.76,792.947,5.94625
2963.76,794.924,5.96963
2975.76,796.9,5.993
2987.76,798.888,6.01679
2999.76,800.868,6.04216
3011.76,802.846,6.06748