Folder: matl-db/Non-charring/PMMA/HKPoly (part 3)

File: HKPolyU_Cone_25kW_2.CSV
Time,Mass,HRR,Back Surface Temperature 1
[s],[g],[kW/m2],[K]
1,77.53,2.06,305
3,77.52,1.6,305
5,77.51,1.23,305.1
7,77.49,4.37,305.1
9,77.49,5.61,305.1
11,77.5,4.42,305.1
13,77.5,2.16,305.1
15,77.52,1.49,304.9
17,77.51,1.96,304.9
19,77.5,0.3,304.9
21,77.5,0.89,305
23,77.49,1.17,305.3
25,77.47,0.67,305.6
27,77.47,2.79,305.6
29,77.47,3.04,305.8
31,77.45,2.86,306.4
33,77.45,0.4,306.9
35,77.47,2.86,307.4
37,77.45,0.4,308
39,77.46,2.86,308.7
41,77.42,0.4,309.5
43,77.41,1.23,310.4
45,77.41,4.01,311.3
47,77.4,3.6,312.1
49,77.39,3.15,312.9
51,77.38,2.98,313.9
53,77.35,2.14,314.8
55,77.35,2.87,315.9
57,77.36,2.99,317.1
59,77.35,3.1,318.1
61,77.34,3.13,319.2
63,77.35,4.7,320.3
65,77.35,11.15,321.5
67,77.31,18.82,322.4
69,77.23,24.51,323.4
71,77.09,22.4,324.5
73,76.93,21.69,325.6
75,76.8,22.78,326.8
77,76.63,29.95,328.2
79,76.41,44.35,329.5
81,76.19,71.41,331
83,75.93,121.17,333
85,75.67,171.6,335.9
87,75.43,217.35,338.7
89,75.07,272.41,341
91,74.76,337.1,343.2
93,74.43,390.19,345.3
95,74.07,435.64,347.3
97,73.79,480.26,349
99,73.44,517.5,350.7
101,73.06,559.94,352.4
103,72.74,608.16,353.9
105,72.37,646.74,355.3
107,72.01,675.59,356.5
109,71.62,700.86,357.6
111,71.24,721.54,358.7
113,70.81,739.01,359.5
115,70.49,755.57,360.3
117,70.11,777.08,361
119,69.73,792.56,361.7
121,69.35,811.62,361.7
123,68.96,834.63,361.3
125,68.54,848.73,361.1
127,68.19,864.44,360.7
129,67.82,874.44,359.9
131,67.41,878.86,358.7
133,67.01,883.19,357.9
135,66.6,883.39,356.9
137,66.25,882.52,356.5
139,65.81,879.65,356.3
141,65.41,877.1,356.2
143,64.99,881.65,356.5
145,64.62,887.09,357.4
147,64.21,886.13,358.3
149,63.86,883.32,360
151,63.42,882.46,362
153,63,885.59,363.4
155,62.64,910.54,365.2
157,62.27,935.47,365.6
159,61.83,943.82,366.3
161,61.46,946.51,366.9
163,61.05,945.88,367.2
165,60.63,940.98,368
167,60.2,936.7,368.8
169,59.8,928.63,369.4
171,59.43,920.87,371.4
173,59.02,917.98,373.3
175,58.6,918.09,374.7
177,58.2,922.99,376.3
179,57.78,929.23,377.6
181,57.42,942.75,378.9
183,57,956.3,379.8
185,56.61,964.18,381.2
187,56.17,954.66,382.2
189,55.77,940.61,383.4
191,55.37,934.11,384.5
193,54.96,935.64,385.6
195,54.53,940.94,386.4
197,54.13,946.6,387.7
199,53.73,955.47,388.3
201,53.31,962.63,389.4
203,52.9,964.94,390.4
205,52.55,964.96,391.1
207,52.09,964.65,392.2
209,51.69,963.98,393.1
211,51.24,957.01,394.2
213,50.81,952.61,395.2
215,50.46,953.53,396.2
217,50.08,961.62,397.1
219,49.62,967.87,398.2
221,49.19,971.69,398.9
223,48.8,974.37,399.8
225,48.4,976.47,400.9
227,47.95,976.38,401.9
229,47.56,968.93,402.8
231,47.12,963.55,403.7
233,46.7,961.68,404.6
235,46.29,966.08,405.4
237,45.85,971.05,406.2
239,45.42,979.83,406.9
241,45.03,986.95,407.6
243,44.61,992.09,408.7
245,44.15,995.95,409.4
247,43.75,997.56,409.9
249,43.3,1000.37,410.7
251,42.83,1002.16,411.2
253,42.49,1002.64,411.9
255,42.02,1003.37,412.7
257,41.64,1001.28,413.7
259,41.15,998.27,414.3
261,40.77,998.7,414.7
263,40.33,999.48,415.4
265,39.93,1000.36,416.1
267,39.51,1004.38,416.8
269,39.1,1008.91,417.6
271,38.61,1015.52,418.3
273,38.15,1023,419
275,37.74,1023.87,419.6
277,37.33,1012.13,420.2
279,36.88,1001.86,420.4
281,36.45,1004.96,420.7
283,36.04,1019.99,421.4
285,35.6,1030.91,421.8
287,35.16,1034.97,422
289,34.74,1035.24,421.5
291,34.26,1031.83,421.1
293,33.85,1024.16,420.7
295,33.38,1019.38,420.4
297,32.95,1026.35,419.3
299,32.52,1032.51,417.9
301,32.09,1037.73,417
303,31.65,1047.84,417.1
305,31.24,1053.28,417.5
307,30.83,1056.24,417.8
309,30.35,1054.34,417.8
311,29.91,1047.02,417.1
313,29.45,1039.96,416.9
315,28.99,1035.58,416.5
317,28.53,1041.54,416
319,28.1,1055.12,416.2
321,27.66,1064.14,417.5
323,27.16,1070.85,418.2
325,26.77,1075.61,418.9
327,26.34,1077.2,420.4
329,25.87,1076.85,422.8
331,25.44,1076.48,426.5
333,25.03,1074.89,437.2
335,24.6,1072.15,446.3
337,24.17,1073.34,452.5
339,23.73,1073.28,458.7
341,23.31,1072.32,465.6
343,22.89,1067.17,471.3
345,22.51,1053,478.6
347,22.1,1039.28,483.1
349,21.65,1030.03,486.3
351,21.28,1016.01,490
353,20.87,1002.98,496
355,20.46,992.88,500.9
357,20.08,985.97,505.3
359,19.72,983.16,509.7
361,19.34,973.51,514.4
363,18.95,953.36,519.4
365,18.51,943.46,524.3
367,18.16,937.84,528.2
369,17.77,923.49,532.4
371,17.37,902.28,536.1
373,17.03,887.05,540.5
375,16.69,879.03,544.8
377,16.3,867.09,548.7
379,15.91,852.23,552.7
381,15.58,837.48,556.4
383,15.21,821.31,559.9
385,14.86,811.1,562.8
387,14.51,793.49,566
389,14.18,770.99,568.9
391,13.87,758.7,571.2
393,13.52,739.96,574.2
395,13.14,723.07,576.8
397,12.78,712.31,580.9
399,12.44,698.66,583.9
401,12.1,684.84,586.2
403,11.73,663.25,586.8
405,11.38,646.14,591.9
407,11.02,638.57,592.5
409,10.62,638.37,595.8
411,10.3,637.39,597.9
413,9.98,632.71,598.8
415,9.68,627.33,600.2
417,9.36,623.46,601.3
419,8.99,619.14,602.6
421,8.61,609.26,604
423,8.33,592.86,606.1
425,8.01,575.43,609.1
427,7.69,553,612.4
429,7.45,526.76,616.7
431,7.16,507.98,620.4
433,6.92,490.44,624.2
435,6.62,471.76,629.3
437,6.36,458.08,636.7
439,6.12,442.01,645.7
441,5.89,430.32,654.2
443,5.66,410.43,664.4
445,5.41,385.82,677.2
447,5.15,362.29,686.5
449,4.94,341.59,695.2
451,4.74,323.61,705.6
453,4.53,305.18,714.6
455,4.34,281.34,731.1
457,4.12,258.69,741
459,3.95,241.67,753.8
461,3.75,223.76,767.9
463,3.62,210.73,774.6
465,3.47,201.08,774
467,3.28,189.61,751.1
469,3.14,167.6,721.5
471,3.05,147.24,698.6
473,2.89,127,680.7
475,2.79,107.83,666.7
477,2.68,89.46,655.8
479,2.57,73.11,647
481,2.43,55.54,640.2
483,2.36,39.8,634.3
485,2.25,28.96,631
487,2.12,21.94,628.2
489,2.04,18.14,623.6
491,1.9,15.01,622.4
493,1.75,13.78,621.5
495,1.69,12.82,620.4
497,1.55,12.08,619.6
499,1.44,12.33,619.4
501,1.34,11.7,617.9
503,1.22,10.74,618.3
505,1.1,10.2,617.2
507,0.99,9.85,615.7
509,0.89,9.48,615

File: HKPolyU_Cone_65kW_1.CSV
Time,Mass,HRR,Back Surface Temperature 1
[s],[g],[kW/m2],[K]
1,81.94,0.39,297.2
2,81.93,0.65,297.2
3,81.92,0.94,297.2
4,81.9,0.72,297.2
5,81.91,0.44,297.3
6,81.9,0.35,297.3
7,81.91,0.44,297.3
8,81.9,0.76,297.3
9,81.88,0.89,297.3
10,81.86,0.64,297.3
11,81.86,0.41,297.3
12,81.87,0.36,297.3
13,81.89,0.49,297.3
14,81.88,0.84,297.3
15,81.82,0.87,297.4
16,81.74,0.61,297.4
17,81.6,0.42,297.5
18,81.42,0.37,297.6
19,81.22,0.61,297.6
20,80.99,0.2,297.7
21,80.72,0.21,297.9
22,80.47,0.45,298
23,80.18,0.38,298.3
24,79.89,1.25,298.4
25,79.56,2.31,298.7
26,79.21,3.31,299.1
27,78.91,3.94,299.4
28,78.58,8.88,299.8
29,78.23,21.05,300.2
30,77.88,49.65,300.7
31,77.55,97.48,301.2
32,77.2,168.9,301.7
33,76.81,270.19,302.3
34,76.47,411.69,303
35,76.1,534.66,303.7
36,75.72,664.84,304.5
37,75.32,786.77,305.3
38,74.95,904.93,306.2
39,74.6,1022,307.2
40,74.21,1131.8,308
41,73.86,1241.26,309
42,73.55,1308.1,310
43,72.98,1360.57,311.1
44,72.63,1510.57,312.2
45,72.24,1583.86,313.3
46,71.85,1643.83,314.3
47,71.5,1703.62,315.6
48,71.13,1766.5,316.8
49,70.73,1820.67,317.9
50,70.35,1861.38,319.1
51,69.96,1892.42,320.4
52,69.57,1921.52,321.6
53,69.17,1954.73,322.9
54,68.79,1994,324.1
55,68.42,2029.32,325.5
56,67.99,2054.6,326.8
57,67.6,2071.28,328.1
58,67.23,2083.91,329.5
59,66.85,2099.04,330.8
60,66.46,2117.02,332.2
61,66.03,2132.8,333.6
62,65.66,2143.9,334.9
63,65.28,2149.53,336.4
64,64.91,2146.84,337.7
65,64.51,2142.8,339.1
66,64.12,2140.16,340.6
67,63.72,2138.46,342
68,63.35,2142.44,343.4
69,63,2157.18,344.8
70,62.62,2174.24,346.4
71,62.22,2187.94,347.9
72,61.81,2198.35,349.5
73,61.4,2208.38,351.1
74,60.99,2216.5,352.7
75,60.62,2222.08,354
76,60.22,2228.96,355.6
77,59.81,2240,357
78,59.43,2250.46,358.5
79,59.06,2257.29,359.7
80,58.68,2260.82,361.1
81,58.3,2261.97,362.4
82,57.88,2259.53,363.6
83,57.48,2253.98,364.9
84,57.08,2249.72,365.9
85,56.7,2245.94,366.8
86,56.31,2242.24,367.8
87,55.9,2240,368.3
88,55.52,2244.04,368.8
89,55.15,2254.65,369.3
90,54.77,2270.94,369.6
91,54.38,2287.38,370
92,53.97,2299.52,370.5
93,53.57,2308.81,371
94,53.19,2319.06,371.6
95,52.78,2328.25,372.3
96,52.41,2335.22,373.3
97,52.02,2336.13,374.2
98,51.62,2334.87,375.3
99,51.21,2332.81,376.6
100,50.82,2326.2,378
101,50.46,2319.16,379.9
102,50.06,2313.85,381.9
103,49.67,2310.06,383.9
104,49.28,2307,386
105,48.9,2305.85,388.2
106,48.51,2308.65,390.3
107,48.12,2312.9,392.5
108,47.77,2316.06,394.6
109,47.37,2312.74,396.7
110,46.98,2305.47,398.8
111,46.57,2300.11,400.9
112,46.2,2296.77,402.9
113,45.82,2296.48,404.9
114,45.43,2299.52,406.9
115,45.02,2302.63,408.9
116,44.64,2305.6,410.8
117,44.27,2312.7,412.8
118,43.86,2319.15,414.8
119,43.44,2323.99,416.7
120,43.04,2326.52,418.6
121,42.72,2313.19,420.6
122,42.35,2290.94,422.5
123,41.99,2273.89,424.4
124,41.63,2262.82,426.6
125,41.23,2256.59,428.6
126,40.83,2255.66,430.8
127,40.42,2267.32,432.8
128,40.01,2282.19,435
129,39.57,2296.05,437.3
130,39.17,2307.55,439.6
131,38.78,2317.96,441.8
132,38.39,2330.83,444
133,37.98,2346.71,446.2
134,37.54,2365.25,448.5
135,37.13,2383,450.7
136,36.71,2396.54,453
137,36.3,2405.96,455.3
138,35.89,2405.76,457.6
139,35.47,2394.98,460
140,35.09,2382.27,462.1
141,34.66,2373.49,464.4
142,34.24,2385.73,466.7
143,33.83,2415.4,469
144,33.4,2443.3,471.2
145,32.97,2463.78,473.2
146,32.56,2478.01,475
147,32.16,2487.37,476.4
148,31.73,2481.54,477.6
149,31.32,2470.1,478.6
150,30.87,2460.88,479.7
151,30.4,2463.82,480.8
152,29.95,2483.73,482
153,29.5,2509.82,483.3
154,29.06,2530.52,484.8
155,28.6,2545.97,486.6
156,28.15,2562.68,488.3
157,27.69,2579.24,490.3
158,27.23,2602.49,492.4
159,26.79,2630.2,494.9
160,26.35,2656.19,496.9
161,25.91,2674.96,499.1
162,25.46,2689.91,501.2
163,24.99,2705.58,503.2
164,24.52,2719.54,506.1
165,24.07,2732.39,509.3
166,23.62,2743.88,511.9
167,23.19,2752.81,514.2
168,22.73,2759.21,516
169,22.28,2767.9,517.9
170,21.84,2783.66,520.2
171,21.42,2804.45,523
172,21.02,2826.31,526.4
173,20.63,2840.94,529.4
174,20.22,2853.05,533
175,19.8,2861.33,536.4
176,19.41,2869.12,539.8
177,19.01,2876.53,543.2
178,18.6,2888.68,546.9
179,18.21,2898.67,550.3
180,17.82,2904.71,553.5
181,17.45,2908.98,556.5
182,17.08,2905.86,558.9
183,16.7,2892.33,560.8
184,16.3,2870.96,562.6
185,15.87,2841.25,564.7
186,15.48,2805.86,565.4
187,15.08,2760.26,563.4
188,14.71,2705.74,556.3
189,14.35,2647.67,542.6
190,13.96,2595.63,541.8
191,13.6,2548.5,548.6
192,13.26,2508.55,563.3
193,12.91,2477.34,594.5
194,12.58,2455.06,615.5
195,12.28,2432.48,644.5
196,11.98,2407.66,679.9
197,11.68,2381.58,656.8
198,11.37,2356.75,680.7
199,11.06,2335.56,706.7
200,10.78,2317.61,730.1
201,10.48,2294.39,752.6
202,10.18,2257.94,774.3
203,9.89,2208.41,792.7
204,9.58,2157.83,809.2
205,9.26,2103.08,827.7
206,8.99,2040.84,842.6
207,8.74,1959.33,851.9
208,8.49,1869.79,910.8
209,8.26,1769.45,954.6
210,8.04,1684.75,942.1
211,7.79,1599.45,949.5
212,7.54,1512.65,954.5
213,7.32,1433.89,965.3
214,7.11,1360.33,979.2
215,6.91,1270.59,987
216,6.73,1185.38,990.9
217,6.55,1109.29,1003.9
218,6.35,1033.48,1006.8
219,6.16,965.69,1002.5
220,5.95,901.96,1000
221,5.8,836.36,998.7
222,5.62,768.38,986.5
223,5.42,700.74,989.1
224,5.24,640.54,982.3
225,5.06,581.69,966.8
226,4.89,528.57,945.4
227,4.69,476.94,937.5
228,4.53,431.81,929.2
229,4.39,389.2,924.9
230,4.2,353.64,919.2
231,4.05,319.49,911.6
232,3.9,286.56,905.7
233,3.75,254.26,901.7
234,3.61,221.04,900
235,3.43,193.23,897.8
236,3.25,167.83,896.5
237,3.12,148.52,895.5
238,2.98,132.32,893.7
239,2.82,117.68,892.5
240,2.66,103.24,892.6
241,2.49,87.77,891.5
242,2.34,73.52,892.2
243,2.18,60.59,891
244,2.03,51.07,891.1
245,1.87,43.06,888.9
246,1.72,36.35,889.7
247,1.58,30.51,887.9
248,1.41,25.66,887.7
249,1.26,21.13,887.6
250,1.11,17.71,887.1
251,0.92,15,888
252,0.75,12.97,885.8
253,0.6,11.66,886.5
254,0.47,10.17,886.1
255,0.33,9.56,885.6

File: HKPolyU_DSC_N2_10K_1.csv
Time,Temperature,Heat Flow
[s],[K],[W/g]
0.24,300.03,4.53669
11.76,301.529,5.33532
23.76,303.413,5.41789
35.76,305.606,5.46215
47.76,308.017,5.47335
59.76,310.538,5.45192
71.76,313.081,5.39489
83.76,315.613,5.28592
95.76,318.045,5.13558
107.76,320.383,4.94013
119.76,322.618,4.69473
131.76,324.751,4.41738
143.76,326.786,4.11493
155.76,328.76,3.79101
167.76,330.689,3.46334
179.76,332.588,3.14209
191.76,334.483,2.83703
203.76,336.385,2.54675
215.76,338.301,2.27752
227.76,340.237,2.03241
239.76,342.199,1.80977
251.76,344.179,1.61083
263.76,346.19,1.43009
275.76,348.208,1.26728
287.76,350.236,1.12283
299.76,352.276,0.989924
311.76,354.312,0.868705
323.76,356.341,0.75985
335.76,358.373,0.659263
347.76,360.401,0.564738
359.76,362.424,0.47792
371.76,364.457,0.394296
383.76,366.462,0.319399
395.76,368.472,0.249599
407.76,370.482,0.184822
419.76,372.483,0.126848
431.76,374.501,0.0730925
443.76,376.511,0.0255349
455.76,378.519,-0.0171723
467.76,380.536,-0.0558111
479.76,382.553,-0.0893422
491.76,384.566,-0.119854
503.76,386.595,-0.146889
515.76,388.612,-0.169897
527.76,390.632,-0.191099
539.76,392.657,-0.210817
551.76,394.68,-0.228834
563.76,396.694,-0.243583
575.76,398.718,-0.257328
587.76,400.732,-0.267029
599.76,402.754,-0.274698
611.76,404.775,-0.2796
623.76,406.78,-0.283362
635.76,408.801,-0.284186
647.76,410.817,-0.285808
659.76,412.831,-0.283432
671.76,414.852,-0.280398
683.76,416.861,-0.277174
695.76,418.866,-0.271077
707.76,420.878,-0.264833
719.76,422.894,-0.256707
731.76,424.898,-0.249137
743.76,426.913,-0.239786
755.76,428.932,-0.229768
767.76,430.95,-0.219538
779.76,432.952,-0.208018
791.76,434.965,-0.196852
803.76,436.971,-0.185706
815.76,438.986,-0.174151
827.76,440.997,-0.16206
839.76,443.001,-0.149891
851.76,445.015,-0.137041
863.76,447.02,-0.12264
875.76,449.022,-0.108052
887.76,451.028,-0.0921104
899.76,453.026,-0.0755208
911.76,455.029,-0.0566815
923.76,457.035,-0.0366834
935.76,459.042,-0.0151999
947.76,461.052,0.008026116
959.76,463.056,0.0325631
971.76,465.054,0.0590652
983.76,467.067,0.0869962
995.76,469.074,0.114878
1007.76,471.074,0.143454
1019.76,473.075,0.172029
1031.76,475.076,0.200762
1043.76,477.08,0.22922
1055.76,479.086,0.259128
1067.76,481.095,0.290817
1079.76,483.098,0.323253
1091.76,485.097,0.356988
1103.76,487.099,0.39176
1115.76,489.1,0.429599
1127.76,491.106,0.46605
1139.76,493.111,0.504054
1151.76,495.108,0.543575
1163.76,497.109,0.582078
1175.76,499.112,0.61981
1187.76,501.12,0.658312
1199.76,503.116,0.69443
1211.76,505.107,0.731199
1223.76,507.105,0.767101
1235.76,509.096,0.802946
1247.76,511.096,0.837561
1259.76,513.088,0.8716423
1271.76,515.084,0.905585
1283.76,517.078,0.937744
1295.76,519.067,0.970326
1307.76,521.059,1.00317
1319.76,523.058,1.03516
1331.76,525.052,1.06647
1343.76,527.046,1.09739
1355.76,529.037,1.12825
1367.76,531.037,1.15698
1379.76,533.023,1.18564
1391.76,535.012,1.21443
1403.76,536.994,1.24202
1415.76,538.986,1.26972
1427.76,540.978,1.29593
1439.76,542.964,1.32147
1451.76,544.953,1.34641
1463.76,546.938,1.37052
1475.76,548.927,1.39563
1487.76,550.915,1.41908
1499.76,552.901,1.4416
1511.76,554.888,1.46418
1523.76,556.875,1.48582
1535.76,558.863,1.50714
1547.76,560.85,1.53026
1559.76,562.839,1.55163
1571.76,564.819,1.57298
1583.76,566.808,1.59469
1595.76,568.791,1.61706
1607.76,570.772,1.64011
1619.76,572.758,1.66339
1631.76,574.744,1.68571
1643.76,576.732,1.70839
1655.76,578.711,1.72843
1667.76,580.7,1.75015
1679.76,582.678,1.76747
1691.76,584.662,1.78189
1703.76,586.641,1.79379
1715.76,588.626,1.80239
1727.76,590.609,1.80863
1739.76,592.592,1.81055
1751.76,594.569,1.80803
1763.76,596.539,1.80025
1775.76,598.514,1.78781
1787.76,600.483,1.76915
1799.76,602.451,1.74394
1811.76,604.419,1.71196
1823.76,606.389,1.67244
1835.76,608.355,1.62388
1847.76,610.313,1.56764
1859.76,612.271,1.50325
1871.76,614.233,1.42947
1883.76,616.197,1.34975
1895.76,618.151,1.26272
1907.76,620.105,1.17108
1919.76,622.058,1.07883
1931.76,624.013,0.985975
1943.76,625.966,0.896207
1955.76,627.929,0.816705
1967.76,629.888,0.755313
1979.76,631.859,0.717233
1991.76,633.829,0.700851
2003.76,635.81,0.704973
2015.76,637.799,0.720897
2027.76,639.783,0.751944
2039.76,641.768,0.806307
2051.76,643.767,0.893337
2063.76,645.755,0.959598
2075.76,647.753,1.04757
2087.76,649.752,1.15327
2099.76,651.759,1.27189
2111.76,653.766,1.40706
2123.76,655.774,1.5526
2135.76,657.79,1.71553
2147.76,659.799,1.89706
2159.76,661.813,2.0845
2171.76,663.84,2.27519
2183.76,665.848,2.46535
2195.76,667.867,2.653
2207.76,669.871,2.83509
2219.76,671.882,3.00457
2231.76,673.893,3.16493
2243.76,675.898,3.31217
2255.76,677.898,3.45004
2267.76,679.901,3.57765
2279.76,681.903,3.69313
2291.76,683.892,3.79881
2303.76,685.89,3.89559
2315.76,687.88,3.98229
2327.76,689.871,4.06393
2339.76,691.864,4.13784
2351.76,693.853,4.20465
2363.76,695.842,4.26975
2375.76,697.825,4.32754
2387.76,699.807,4.38249
2399.76,701.796,4.43591
2411.76,703.776,4.48659
2423.76,705.758,4.5342
2435.76,707.739,4.58054
2447.76,709.725,4.62673
2459.76,711.706,4.67111
2471.76,713.692,4.71461
2483.76,715.671,4.7539
2495.76,717.655,4.79264
2507.76,719.64,4.83148
2519.76,721.627,4.86801
2531.76,723.601,4.90401
2543.76,725.581,4.9388
2555.76,727.558,4.97196
2567.76,729.544,5.00569
2579.76,731.525,5.0393
2591.76,733.504,5.073
2603.76,735.488,5.10598
2615.76,737.467,5.13833
2627.76,739.454,5.17193
2639.76,741.43,5.20437
2651.76,743.407,5.23696
2663.76,745.392,5.27017
2675.76,747.374,5.30277
2687.76,749.362,5.33578
2699.76,751.335,5.36853
2711.76,753.318,5.40019
2723.76,755.295,5.43239
2735.76,757.268,5.46206
2747.76,759.251,5.49366
2759.76,761.234,5.52491
2771.76,763.215,5.5531
2783.76,765.201,5.57979
2795.76,767.185,5.60754
2807.76,769.167,5.63369
2819.76,771.151,5.65924
2831.76,773.131,5.68681
2843.76,775.11,5.71349
2855.76,777.087,5.73907
2867.76,779.067,5.76562
2879.76,781.048,5.79339
2891.76,783.031,5.82039
2903.76,785.012,5.84699
2915.76,787,5.87305
2927.76,788.976,5.89793
2939.76,790.963,5.92325
2951.76,792.947,5.94625
2963.76,794.924,5.96963
2975.76,796.9,5.993
2987.76,798.888,6.01679
2999.76,800.868,6.04216
3011.76,802.846,6.06748

File: HKPolyU_DSC_N2_10K_2.csv
Time,Temperature,Heat Flow
[s],[K],[W/g]
0.15,300.048,2.91094
11.76,302.715,3.7253
23.76,305.319,3.67382
35.76,307.793,3.55594
47.76,310.154,3.35934
59.76,312.392,3.10417
71.76,314.5129,2.79524
83.76,316.546,2.45367
95.76,318.508,2.09013
107.76,320.425,1.72508
119.76,322.325,1.37268
131.76,324.23,1.03692
143.76,326.147,0.729136
155.76,328.1031,0.452277
167.76,330.08,0.209743
179.76,332.087,-0.002809547
191.76,334.137,-0.186145
203.76,336.217,-0.344046
215.76,338.311,-0.482521
227.76,340.41,-0.603501
239.76,342.517,-0.711924
251.76,344.618,-0.811588
263.76,346.715,-0.900668
275.76,348.806,-0.984707
287.76,350.887,-1.06311
299.76,352.95,-1.13389
311.76,355.0005,-1.19926
323.76,357.034,-1.25881
335.76,359.067,-1.31206
347.76,361.1032,-1.35974
359.76,363.114,-1.40079
371.76,365.135,-1.43514
383.76,367.161,-1.46319
395.76,369.187,-1.48462
407.76,371.212,-1.50052
419.76,373.2419,-1.51042
431.76,375.2787,-1.51579
443.76,377.3172,-1.51681
455.76,379.36,-1.51441
467.76,381.3964,-1.51125
479.76,383.4395,-1.50544
491.76,385.4815,-1.49851
503.76,387.519,-1.49156
515.76,389.5415,-1.48559
527.76,391.5727,-1.47805
539.76,393.6015,-1.47133
551.76,395.628,-1.46423
563.76,397.6613,-1.45715
575.76,399.685,-1.44824
587.76,401.702,-1.43664
599.76,403.7146,-1.42527
611.76,405.7418,-1.41288
623.76,407.7503,-1.39927
635.76,409.7791,-1.38482
647.76,411.7978,-1.37058
659.76,413.8241,-1.35611
671.76,415.837,-1.3418
683.76,417.8552,-1.32684
695.76,419.8726,-1.31242
707.76,421.8894,-1.29786
719.76,423.908,-1.28388
731.76,425.9244,-1.26872
743.76,427.9482,-1.25571
755.76,429.9579,-1.24368
767.76,431.9728,-1.23137
779.76,433.9863,-1.22004
791.76,436.0006,-1.20891
803.76,438.0063,-1.19808
815.76,440.0234,-1.18758
827.76,442.0264,-1.1787
839.76,444.0322,-1.16968
851.76,446.0492,-1.16102
863.76,448.0506,-1.15175
875.76,450.061,-1.14205
887.76,452.0749,-1.12948
899.76,454.0808,-1.11924
911.76,456.0829,-1.103
923.76,458.0938,-1.08449
935.76,460.0955,-1.06802
947.76,462.1064,-1.05121
959.76,464.1198,-1.03276
971.76,466.1262,-1.01346
983.76,468.1285,-0.994044
995.76,470.1343,-0.974919
1007.76,472.1373,-0.954311
1019.76,474.1336,-0.9351
1031.76,476.141,-0.913997
1043.76,478.1408,-0.893803
1055.76,480.1446,-0.872404
1067.76,482.1544,-0.84932
1079.76,484.1592,-0.827087
1091.76,486.1703,-0.800836
1103.76,488.1778,-0.774499
1115.76,490.1831,-0.746091
1127.76,492.1762,-0.716576
1139.76,494.1814,-0.68438
1151.76,496.1849,-0.652553
1163.76,498.1889,-0.6184
1175.76,500.1898,-0.588012
1187.76,502.1961,-0.557654
1199.76,504.1938,-0.524906
1211.76,506.1943,-0.495431
1223.76,508.187,-0.466988
1235.76,510.1879,-0.436086
1247.76,512.1803,-0.406316
1259.76,514.171,-0.378247
1271.76,516.1698,-0.350543
1283.76,518.1619,-0.322681
1295.76,520.1523,-0.293778
1307.76,522.1462,-0.26659
1319.76,524.1455,-0.236802
1331.76,526.138,-0.21057
1343.76,528.133,-0.184472
1355.76,530.1255,-0.158899
1367.76,532.1183,-0.131027
1379.76,534.111,-0.107733
1391.76,536.1015,-0.0828801
1403.76,538.097,-0.05636636
1415.76,540.0849,-0.0322756
1427.76,542.0763,-0.009738281
1439.76,544.0646,0.0162657
1451.76,546.0513,0.0390537
1463.76,548.0402,0.0629561
1475.76,550.0336,0.0835337
1487.76,552.018,0.102091
1499.76,554.0078,0.123532
1511.76,555.996,0.143475
1523.76,557.9832,0.159457
1535.76,559.9712,0.18372
1547.76,561.953,0.20024
1559.76,563.9389,0.214783
1571.76,565.9256,0.234607
1583.76,567.9117,0.253042
1595.76,569.8972,0.270681
1607.76,571.8826,0.290034
1619.76,573.8688,0.311486
1631.76,575.8516,0.330596
1643.76,577.837,0.349464
1655.76,579.819,0.360969
1667.76,581.8024,0.371988
1679.76,583.785,0.382071
1691.76,585.7648,0.389082
1703.76,587.749,0.390478
1715.76,589.7334,0.391159
1727.76,591.7127,0.384981
1739.76,593.6914,0.371745
1751.76,595.6661,0.355525
1763.76,597.6365,0.335545
1775.76,599.606,0.307814
1787.76,601.5758,0.273316
1799.76,603.5358,0.234174
1811.76,605.5035,0.186938
1823.76,607.4665,0.133446
1835.76,609.4334,0.0731939
1847.76,611.3938,0.003437531
1859.76,613.3512,-0.078127
1871.76,615.3103,-0.164118
1883.76,617.2656,-0.25772
1895.76,619.219,-0.358808
1907.76,621.1681,-0.460777
1919.76,623.1232,-0.561538
1931.76,625.0706,-0.659659
1943.76,627.03,-0.751593
1955.76,628.994,-0.82574
1967.76,630.9652,-0.876346
1979.76,632.9396,-0.908016
1991.76,634.9176,-0.906336
2003.76,636.9029,-0.883776
2015.76,638.886,-0.883724
2027.76,640.8816,-0.825746
2039.76,642.8605,-0.793195
2051.76,644.8574,-0.730401
2063.76,646.8581,-0.643913
2075.76,648.852,-0.552161
2087.76,650.8631,-0.438693
2099.76,652.87,-0.308413
2111.76,654.8818,-0.161374
2123.76,656.8942,0.002271123
2135.76,658.9054,0.182887
2147.76,660.9296,0.372536
2159.76,662.9536,0.565434
2171.76,664.9668,0.755294
2183.76,666.9843,0.940106
2195.76,668.9985,1.1188
2207.76,671.0128,1.29366
2219.76,673.0195,1.45699
2231.76,675.0274,1.60752
2243.76,677.0303,1.74847
2255.76,679.0314,1.87525
2267.76,681.0402,1.99122
2279.76,683.036,2.09752
2291.76,685.0272,2.18904
2303.76,687.0256,2.27822
2315.76,689.0172,2.36092
2327.76,691.0107,2.43262
2339.76,692.996,2.49983
2351.76,694.9894,2.56106
2363.76,696.9748,2.61882
2375.76,698.9574,2.67354
2387.76,700.9394,2.72679
2399.76,702.928,2.77412
2411.76,704.9114,2.81786
2423.76,706.9015,2.8617
2435.76,708.885,2.90289
2447.76,710.8656,2.94927
2459.76,712.8517,2.98707
2471.76,714.8344,3.02164
2483.76,716.8135,3.05185
2495.76,718.7946,3.08017
2507.76,720.7761,3.1073
2519.76,722.76,3.13571
2531.76,724.7398,3.16391
2543.76,726.7184,3.18896
2555.76,728.6988,3.22003
2567.76,730.6835,3.24465
2579.76,732.6656,3.2663
2591.76,734.643,3.28647
2603.76,736.6216,3.31372
2615.76,738.6054,3.33925
2627.76,740.5872,3.36054
2639.76,742.5633,3.38523
2651.76,744.5454,3.41028
2663.76,746.5308,3.43513
2675.76,748.5072,3.45692
2687.76,750.4881,3.47777
2699.76,752.4728,3.49961
2711.76,754.4489,3.52154
2723.76,756.4299,3.54653
2735.76,758.4088,3.5637
2747.76,760.3918,3.58724
2759.76,762.368,3.60694
2771.76,764.3521,3.62481
2783.76,766.3383,3.6465
2795.76,768.3194,3.66314
2807.76,770.303,3.6817
2819.76,772.281,3.69501
2831.76,774.2594,3.71305
2843.76,776.2424,3.73348
2855.76,778.216,3.75355
2867.76,780.1965,3.7724
2879.76,782.1744,3.78403
2891.76,784.1602,3.79964
2903.76,786.1382,3.81436
2915.76,788.125,3.82652
2927.76,790.111,3.83989
2939.76,792.0899,3.84759
2951.76,794.0712,3.86356
2963.76,796.0508,3.8802
2975.76,798.034,3.89784
2987.76,800.0118,3.91101
2999.76,801.9956,3.92187
3011.76,803.9716,3.93794