Folder: matl-db/Non-charring/PMMA/NIST

Note: Non-charring/PMMA/NIST/README.md
# The National Institute of Standards and Technology (NIST)

### Experimental Conditions: TGA
A Netzsch F1 Jupiter was used to conduct Thermogravimetric Analysis (TGA) experiments. 

* Heating Rate: 10 K/min
* Temperature program
  - Initial temperature 300 K
  - Isotherm: 1500s (hold at 300K for 1500s)  
  - Maximum Temperature 1000 K
* Sample mass: 4.2 mg
* Sample geometry: Powdered
* Calibration type: Before each experiment, a baseline test was performed using an empty crucible. Temperature/Heat flow calibration were performed every 6 months using a set of 5 [6?] reference materials with melting temperatures between 60-820 C
* Crucible type: Pt-Rh crucibles (outer diameter 6.8mm / volume 85µL) with a lid ( a small hole in the lid allowed for gaseous decomposition products to escape).
* Carrier Gas
  - Ultra High Purity (UHP) Nitrogen
  - Flow rate = 50 ml/min


### Experimental Conditions: MCC
An FAA microscale combustion calorimeter was used to conduct MCC experiments.  At the end of each test, the residual solid yield was measured and found to be consistent with the TGA results. 

* Heating Rate: 60 K/min
* Temperature program (Pyrolyzer)
  - Initial temperature 348 K
  - Isotherm: 600s (hold at 348K for 600s)  
  - Maximum Temperature 873 K
* Combustor Temperature: 1173K
* Sample mass: 4-7 mg
* Sample geometry: Powdered
* Calibration type: Before each experiment, a baseline test was performed using a 3-4 mg sample of polystyrene as a reference. O2 sensor/flow calibration was checked at the start of each day of testing, Temperature calibration was performed every 6 months.
* Crucible type: ceramic crucibles (outer diameter 5.74mm / volume 71µL) with no lid
* Pyrolyzer Carrier Gas
  - Ultra High Purity (UHP) Nitrogen 
  - N2 Flow rate = 80 ml/min
* Combustor Carrier Gas
  - Ultra High Purity (UHP) Oxygen + Pyrolyzer Carrier Gas
  - O2 Flow rate = 20 ml/min


### Experimental Conditions, Cone calorimeter
* Extraction flow rate: 24L/s
* Sample Surface Area: 0.01 m2 (nominal)
* Sample holder dimensions:
    - Square pan: 106mm x 106mm x 25mm
    - Retainer frame: None
    - Retaining grid: None
* Backing Insulation: [?]
* Thermocouple location: None

###### Test Heating Conditions  
|Test Name | Heat Flux (kW/m2)| Heater Temperature (K) 
|----------|:------:| :---: |
|NIST\_Cone\_25KW\_1 | 25| 900? |
|NIST\_Cone\_25KW\_2 | 25| 900? |
|NIST\_Cone\_25KW\_2 | 25| 900? |

File: NIST_MCC_60kpm_2.csv
Time,Temperature,HRR
s,K,W/g
0.000,363.069,0.000
2.000,364.362,-0.125
4.000,365.629,-0.182
6.000,366.965,-0.249
8.000,368.359,-0.154
10.000,369.776,-0.230
12.000,371.266,-0.351
14.000,372.768,0.001
16.000,374.33,-0.068
18.000,375.933,0.022
20.000,377.539,0.142
22.000,379.252,0.284
24.000,380.949,0.028
26.000,382.673,0.407
28.000,384.472,0.270
30.000,386.286,0.334
32.000,388.141,0.309
34.000,390.005,0.587
36.000,391.866,0.591
38.000,393.813,0.770
40.000,395.707,0.925
42.000,397.675,1.117
44.000,399.695,1.130
46.000,401.712,1.331
48.000,403.772,1.508
50.000,405.862,1.927
52.000,407.923,1.749
54.000,409.998,2.145
56.000,412.098,2.575
58.000,414.23,2.501
60.000,416.399,2.797
62.000,418.505,3.094
64.000,420.688,3.351
66.000,422.843,3.621
68.000,424.975,4.219
70.000,427.14,4.412
72.000,429.308,4.760
74.000,431.488,5.269
76.000,433.648,5.937
78.000,435.825,7.025
80.000,437.998,7.898
82.000,440.177,8.519
84.000,442.372,9.850
86.000,444.552,11.308
88.000,446.774,12.581
90.000,448.94,13.712
92.000,451.118,15.055
94.000,453.256,16.109
96.000,455.435,16.825
98.000,457.623,17.500
100.000,459.77,18.159
102.000,461.956,18.672
104.000,464.1,18.671
106.000,466.232,18.401
108.000,468.381,17.970
110.000,470.484,17.670
112.000,472.586,16.948
114.000,474.725,16.420
116.000,476.853,16.169
118.000,478.999,15.870
120.000,481.075,15.601
122.000,483.184,15.566
124.000,485.295,15.429
126.000,487.366,15.515
128.000,489.5,15.561
130.000,491.556,15.109
132.000,493.659,14.228
134.000,495.737,13.409
136.000,497.764,11.905
138.000,499.818,10.302
140.000,501.858,8.485
142.000,503.907,7.013
144.000,505.924,5.612
146.000,507.988,4.270
148.000,509.957,3.542
150.000,511.98,2.959
152.000,514.026,2.524
154.000,515.959,2.208
156.000,517.979,2.028
158.000,519.983,1.912
160.000,521.976,2.246
162.000,523.935,2.424
164.000,525.911,2.502
166.000,527.899,3.010
168.000,529.864,3.129
170.000,531.901,3.322
172.000,533.874,3.392
174.000,535.819,3.706
176.000,537.815,3.988
178.000,539.737,4.813
180.000,541.726,5.257
182.000,543.662,5.675
184.000,545.591,6.527
186.000,547.589,7.374
188.000,549.57,8.288
190.000,551.499,9.355
192.000,553.512,10.408
194.000,555.411,11.529
196.000,557.383,12.907
198.000,559.344,14.359
200.000,561.292,15.884
202.000,563.24,17.461
204.000,565.177,19.057
206.000,567.145,20.636
208.000,569.133,22.404
210.000,571.075,23.701
212.000,573.052,25.054
214.000,575.037,26.354
216.000,576.994,27.382
218.000,578.956,29.147
220.000,580.931,30.443
222.000,582.944,31.524
224.000,584.881,32.737
226.000,586.871,34.348
228.000,588.836,36.030
230.000,590.797,38.024
232.000,592.786,40.512
234.000,594.742,43.222
236.000,596.758,46.796
238.000,598.746,50.442
240.000,600.732,55.138
242.000,602.736,60.234
244.000,604.713,66.202
246.000,606.713,72.602
248.000,608.677,79.882
250.000,610.678,87.945
252.000,612.721,96.590
254.000,614.715,106.097
256.000,616.723,116.413
258.000,618.749,127.463
260.000,620.701,138.800
262.000,622.709,151.019
264.000,624.736,163.831
266.000,626.678,176.742
268.000,628.66,189.838
270.000,630.66,202.746
272.000,632.659,215.682
274.000,634.566,228.515
276.000,636.553,240.755
278.000,638.526,252.701
280.000,640.49,264.980
282.000,642.427,276.200
284.000,644.421,288.427
286.000,646.397,300.642
288.000,648.355,311.849
290.000,650.328,323.066
292.000,652.313,331.480
294.000,654.365,336.470
296.000,656.322,343.723
298.000,658.243,344.642
300.000,660.214,342.068
302.000,662.187,338.444
304.000,664.192,330.675
306.000,666.203,322.476
308.000,668.191,309.663
310.000,670.196,294.474
312.000,672.198,277.407
314.000,674.184,259.651
316.000,676.221,241.324
318.000,678.258,223.792
320.000,680.309,206.657
322.000,682.308,188.780
324.000,684.445,169.308
326.000,686.512,149.822
328.000,688.591,132.323
330.000,690.684,116.405
332.000,692.76,101.934
334.000,694.85,88.778
336.000,696.931,77.108
338.000,698.995,66.560
340.000,701.027,57.154
342.000,703.106,48.833
344.000,705.161,41.533
346.000,707.19,35.141
348.000,709.243,29.836
350.000,711.248,25.426
352.000,713.308,21.436
354.000,715.405,17.795
356.000,717.402,14.883
358.000,719.403,12.596
360.000,721.398,10.499
362.000,723.405,8.352
364.000,725.413,5.910
366.000,727.386,3.783
368.000,729.359,2.697
370.000,731.346,1.808
372.000,733.323,1.185
374.000,735.339,0.933
376.000,737.282,0.534
378.000,739.252,0.322
380.000,741.193,0.375
382.000,743.19,0.600
384.000,745.134,0.047
386.000,747.074,0.047
388.000,749.057,-0.092
390.000,750.957,-0.078
392.000,752.923,-0.088
394.000,754.862,-0.094
396.000,756.839,-0.318
398.000,758.778,-0.353
400.000,760.705,-0.707
402.000,762.716,-0.554
404.000,764.674,-0.496
406.000,766.628,-0.614
408.000,768.587,-0.414
410.000,770.576,-0.430
412.000,772.525,-0.493
414.000,774.529,-0.548
416.000,776.519,-0.440
418.000,778.479,-0.814
420.000,780.424,-0.364
422.000,782.417,-0.474
424.000,784.407,-0.330
426.000,786.367,-0.457
428.000,788.327,-0.481
430.000,790.327,-0.556
432.000,792.313,-0.484
434.000,794.312,-0.631
436.000,796.281,-0.587
438.000,798.289,-0.846
440.000,800.293,-0.857
442.000,802.291,-0.549
444.000,804.324,-0.754
446.000,806.305,-0.546
448.000,808.339,-0.671
450.000,810.339,-0.424
452.000,812.328,-0.788
454.000,814.397,-0.845
456.000,816.415,-0.865
458.000,818.435,-0.985
460.000,820.444,-0.864
462.000,822.416,-0.574
464.000,824.456,-0.447
466.000,826.463,-0.664
468.000,828.467,-0.482
470.000,830.499,-0.714
472.000,832.478,-0.784
474.000,834.472,-0.691
476.000,836.486,-0.665
478.000,838.479,-0.478
480.000,840.485,-0.482
482.000,842.5,-0.645
484.000,844.488,-0.585
486.000,846.496,-0.591
488.000,848.495,-0.761
490.000,850.472,-0.822
492.000,852.47,-0.872
494.000,854.559,-0.875
496.000,856.547,-0.660
498.000,858.494,-0.526
500.000,860.514,-0.306
502.000,862.535,-0.255
504.000,864.508,-0.316
506.000,866.558,-0.313
508.000,868.52,-0.417
510.000,870.51,-0.348
512.000,872.532,-0.330
514.000,874.593,-0.047
515.500,876.092,0.000

File: NIST_TGA_10kpm_1.csv
Time,Temperature,Mass
s,K,mg
0,297.798,4.198
78,298.307,4.1827
156,298.522,4.17197
234,298.672,4.16677
312,298.851,4.16012
390,299.061,4.1601
468,299.305,4.1586
546,299.535,4.15775
624,299.743,4.1604
702,299.93,4.1618
780,300.068,4.16105
858,300.174,4.16258
936,300.238,4.164
1014,300.273,4.1672
1092,300.289,4.16695
1170,300.282,4.1686
1248,300.271,4.1678
1326,300.248,4.1662
1404,300.236,4.167
1482,300.209,4.1651
1511.85,300.214,4.1676
1527.45,300.237,4.16525
1543.05,300.343,4.16577
1558.65,300.538,4.16635
1574.25,300.867,4.16613
1589.85,301.3461,4.16543
1605.45,301.992,4.16525
1621.05,302.824,4.16515
1636.65,303.862,4.1668
1652.25,305.115,4.16695
1667.85,306.596,4.16535
1683.45,308.2919,4.1667
1699.05,310.213,4.164
1714.65,312.344,4.16323
1730.25,314.68,4.1637
1745.85,317.205,4.16522
1761.45,319.8969,4.16577
1777.05,322.73,4.16468
1792.65,325.6921,4.16603
1808.25,328.756,4.1645
1823.85,331.925,4.16418
1839.45,335.162,4.16275
1855.05,338.455,4.1661
1870.65,341.796,4.168
1886.25,345.164,4.1663
1901.85,348.547,4.16537
1917.45,351.952,4.1691
1933.05,355.372,4.166
1948.65,358.812,4.16732
1964.25,362.266,4.16327
1979.85,365.725,4.16308
1995.45,369.182,4.1647
2011.05,372.623,4.16465
2026.65,376.055,4.16453
2042.25,379.459,4.1667
2057.85,382.842,4.16485
2073.45,386.189,4.16525
2089.05,389.512,4.16405
2104.65,392.81,4.16582
2120.25,396.072,4.16635
2135.85,399.317,4.16643
2151.45,402.531,4.16545
2167.05,405.7269,4.16563
2182.65,408.896,4.16337
2198.25,412.031,4.16495
2213.85,415.141,4.16325
2229.45,418.2211,4.16382
2245.05,421.271,4.16495
2260.65,424.29,4.1641
2276.25,427.276,4.16323
2291.85,430.229,4.16268
2307.45,433.141,4.16555
2323.05,436.038,4.16263
2338.65,438.901,4.16115
2354.25,441.739,4.1592
2369.85,444.549,4.16045
2385.45,447.34,4.15975
2401.05,450.113,4.15878
2416.65,452.862,4.15565
2432.25,455.598,4.15327
2447.85,458.326,4.15197
2463.45,461.036,4.1509
2479.05,463.732,4.14702
2494.65,466.411,4.1406
2510.25,469.078,4.13588
2525.85,471.735,4.1343
2541.45,474.379,4.13095
2557.05,477.02,4.12797
2572.65,479.647,4.12325
2588.25,482.264,4.12098
2603.85,484.871,4.11835
2619.45,487.465,4.11307
2635.05,490.063,4.11205
2650.65,492.658,4.1079
2666.25,495.242,4.10375
2681.85,497.817,4.09885
2697.45,500.3909,4.09403
2713.05,502.966,4.09572
2728.65,505.532,4.09403
2744.25,508.099,4.08988
2759.85,510.672,4.08348
2775.45,513.236,4.08185
2791.05,515.7979,4.07617
2806.65,518.357,4.07475
2822.25,520.916,4.07387
2837.85,523.479,4.07638
2853.45,526.045,4.06987
2869.05,528.605,4.06873
2884.65,531.174,4.06807
2900.25,533.736,4.06493
2915.85,536.305,4.06388
2931.45,538.867,4.061
2947.05,541.435,4.0568
2962.65,543.998,4.05797
2978.25,546.561,4.05623
2993.85,549.129,4.05195
3009.45,551.693,4.0466
3025.05,554.264,4.04715
3040.65,556.831,4.0415
3056.25,559.395,4.0352
3071.85,561.962,4.0328
3087.45,564.533,4.02653
3103.05,567.096,4.01805
3118.65,569.664,4.0084
3134.25,572.24,4.0075
3149.85,574.812,3.99805
3165.45,577.393,3.98775
3181.05,579.963,3.97728
3196.65,582.538,3.97077
3212.25,585.111,3.95858
3227.85,587.679,3.944
3243.45,590.259,3.93197
3259.05,592.831,3.9144
3274.65,595.404,3.89697
3290.25,597.976,3.87045
3305.85,600.546,3.8427
3321.45,603.115,3.8084
3337.05,605.689,3.76285
3352.65,608.266,3.71353
3368.25,610.834,3.65205
3383.85,613.41,3.57898
3399.45,615.986,3.4813
3415.05,618.563,3.38695
3430.65,621.139,3.27328
3446.25,623.712,3.14402
3461.85,626.282,2.99737
3477.45,628.852,2.8367
3493.05,631.426,2.66282
3508.65,633.997,2.46713
3524.25,636.577,2.2632
3539.85,639.154,2.05575
3555.45,641.731,1.84185
3571.05,644.315,1.62615
3586.65,646.886,1.4175
3602.25,649.456,1.21013
3617.85,652.023,1.01585
3633.45,654.586,0.83215
3649.05,657.16,0.665875
3664.65,659.742,0.52125
3680.25,662.342,0.395125
3695.85,664.943,0.29405
3711.45,667.543,0.222925
3727.05,670.143,0.159325
3742.65,672.746,0.11425
3758.25,675.343,0.0766248
3773.85,677.942,0.0484999
3789.45,680.541,0.0301748
3805.05,683.1421,0.0181501
3820.65,685.74,0.003975002
3836.25,688.337,0.001824997
3851.85,690.929,-0.006600096
3867.45,693.517,-0.008749891
3883.05,696.099,-0.007024933
3898.65,698.672,-0.01439998
3914.25,701.235,-0.01387481
3929.85,703.8,-0.01485
3945.45,706.3629,-0.017025
3961.05,708.926,-0.0169998
3976.65,711.497,-0.0181748
3992.25,714.071,-0.0206252
4007.85,716.641,-0.0197499
4023.45,719.215,-0.0156749
4039.05,721.788,-0.0167001
4054.65,724.362,-0.0198251
4070.25,726.933,-0.0187751
4085.85,729.508,-0.0167752
4101.45,732.086,-0.0192
4117.05,734.656,-0.0195249
4132.65,737.231,-0.0164998
4148.25,739.809,-0.0152001
4163.85,742.386,-0.023275
4179.45,744.966,-0.01610017
4195.05,747.543,-0.0177
4210.65,750.126,-0.0156749
4226.25,752.699,-0.0185749
4241.85,755.278,-0.03192495
4257.45,757.86,-0.0114001
4273.05,760.441,-0.0151002
4288.65,763.027,-0.0157748
4304.25,765.605,-0.0176001
4319.85,768.186,-0.02970001
4335.45,770.773,-0.01535
4351.05,773.36,-0.0163999
4366.65,775.94,-0.02002488
4382.25,778.52,-0.0183998
4397.85,781.109,-0.0154251
4413.45,783.696,-0.016075
4429.05,786.279,-0.0178251
4444.65,788.862,-0.0185249
4460.25,791.449,-0.0187751
4475.85,794.034,-0.0163999
4491.45,796.622,-0.0188998
4507.05,799.207,-0.0193998
4522.65,801.795,-0.0188998
4538.25,804.387,-0.0151002
4553.85,806.976,-0.018875
4569.45,809.562,-0.0187499
4585.05,812.152,-0.0146749
4600.65,814.734,-0.0175502
4616.25,817.324,-0.017025
4631.85,819.913,-0.0176249
4647.45,822.5,-0.0212499
4663.05,825.09,-0.0221251
4678.65,827.684,-0.0234001
4694.25,830.266,-0.0187751
4709.85,832.855,-0.0217498
4725.45,835.442,-0.0192
4741.05,838.035,-0.0193251
4756.65,840.625,-0.0209002
4772.25,843.213,-0.0173
4787.85,845.808,-0.0180749
4803.45,848.404,-0.0190749
4819.05,850.992,-0.0175502
4834.65,853.582,-0.019375
4850.25,856.174,-0.0176001
4865.85,858.768,-0.0194502
4881.45,861.357,-0.0157001
4897.05,863.948,-0.0220752
4912.65,866.54,-0.01775
4928.25,869.1291,-0.0216
4943.85,871.719,-0.0196
4959.45,874.318,-0.016975
4975.05,876.909,-0.0208502
4990.65,879.5042,-0.0163751
5006.25,882.093,-0.0192
5021.85,884.693,-0.0206
5037.45,887.289,-0.0149499
5053.05,889.889,-0.01884986
5068.65,892.482,-0.0198251
5084.25,895.073,-0.0187
5099.85,897.673,-0.0164499
5115.45,900.27,-0.0185249
5131.05,902.866,-0.017025
5146.65,905.46,-0.01622485
5162.25,908.054,-0.0193498
5177.85,910.655,-0.0187252
5193.45,913.251,-0.02055005
5209.05,915.839,-0.0185501
5224.65,918.431,-0.0170502
5240.25,921.025,-0.0159998
5255.85,923.632,-0.01775
5271.45,926.228,-0.0171749
5287.05,928.822,-0.0177
5302.65,931.424,-0.0196752
5318.25,934.0212,-0.015075
5333.85,936.619,-0.0164998
5349.45,939.214,-0.0176501
5365.05,941.819,-0.0210248
5380.65,944.412,-0.0123249
5396.25,947.009,-0.0168252
5411.85,949.6049,-0.018475
5427.45,952.2,-0.0185249
5443.05,954.797,-0.0172248
5458.65,957.392,-0.019875
5474.25,959.994,-0.0169251
5489.85,962.598,-0.01399991
5505.45,965.196,-0.0168499
5521.05,967.794,-0.0182252
5536.65,970.392,-0.0166002
5552.25,972.991,-0.0188251
5567.85,975.588,-0.016025
5583.45,978.184,-0.0185002
5599.05,980.779,-0.0215752
5614.65,983.376,-0.02065
5630.25,985.9771,-0.0177
5645.85,988.578,-0.016575
5661.45,991.183,-0.0202499
5677.05,993.784,-0.0198498
5692.65,996.377,-0.0192751
5708.25,998.974,-0.021775
5714.85,1000.07,-0.01687512