Folder: matl-db/Non-charring/PMMA/Sandia

Note: Non-charring/PMMA/Sandia/README.md
#Sandia National Laboratories (SANDIA)

### Experimental Conditions: TGA, DSC
A Netzsch F3 Jupiter using a DSC sample carrier with S-type thermocouples, and a Silicon Carbide furnace was used to conduct Simultaneous Thermal Analysis (TGA + DSC) experiments. Although tests were conducted simultaneously, TGA and DSC measurement data presented here are separated into two files, for consistency with other datasets.

* Heating Rate: 1, 10, or 50 K/min
* Temperature program
  - Initial temperature 303.15 K
  - Isotherm: 20 minutes
  - Maximum Temperature 873.15 K
* Sample mass: 2-6 mg
* Sample geometry: powdered
* Calibration type: The instrument is calibrated at least once per 6 months, or sooner (as needed), using melting point standards for both temperature and DSC sensitivity.  The calibration standards used are In, Sn, Bi, Zn, Al, Ag, Au, and Ni.

* Crucible type: 85 µL, Al2O3 crucibles (no lids)
* Carrier Gas
  - ultra-high-purity argon  (0% O2)
  - Flow rate = 100  ml/min  

| Test Name | Heating Rate (K/min)|  Initial Sample Mass (mg) | 
| --------- | :---------: | :------------------------: |
|SANDIA\_STA\_Ar\_1 | 1  | 4.903|  
|SANDIA\_STA\_Ar\_2 | 10 | 4.917|  
|SANDIA\_STA\_Ar\_3 | 10 | 4.828|  
|SANDIA\_STA\_Ar\_4 | 50 | 5.376|  
|SANDIA\_STA\_Ar\_5 | 50 | 4.835| 
|SANDIA\_STA\_Ar\_6 | 50 | 4.682|

File: SANDIA_TGA_Ar_1.csv
Time,Temperature,Mass
[s],[K],[mg]
1202.3,307.031,0.026
1624.67,309.031,0.027
1795.12,311.031,0.03
1941.42,313.031,0.028
2077.69,315.031,0.0259
2208.444,317.031,0.029
2336.56,319.031,0.029
2462.42,321.031,0.028
2586.9,323.031,0.028
2710.36,325.031,0.0302
2832.762,327.031,0.0283
2954.07,329.031,0.026
3074.97,331.031,0.0265
3195.462,333.031,0.0285
3314.99,335.031,0.027
3434.24,337.031,0.024
3553.38,339.031,0.0259
3671.52,341.031,0.023
3789.06,343.031,0.022
3905.72,345.031,0.0222
4021.98,347.031,0.0241
4137.885,349.031,0.022
4253.73,351.031,0.021
4369.66,353.031,0.019
4484.69,355.031,0.018
4600.04,357.031,0.0195
4714.95,359.031,0.019
4828.7,361.031,0.015
4942.32,363.031,0.016
5055.82,365.031,0.015
5169.02,367.031,0.014
5281.962,369.031,0.013
5394.98,371.031,0.011
5508.32,373.031,0.01
5621.292,375.031,0.012
5734.08,377.031,0.01
5846.331,379.031,0.009
5958.87,381.031,0.00803
6071.52,383.031,0.00701
6184.035,385.031,0.004
6296.41,387.031,0.00511
6408.08,389.031,0.004
6520.047,391.031,0.005
6631.446,393.031,0.004
6742.32,395.031,0.00237
6852.99,397.031,0.002
6963.79,399.031,0.0000218
7074.696,401.031,-0.002
7185.71,403.031,-0.003
7296.4,405.031,-0.004
7407.11,407.031,-0.007
7518,409.031,-0.014
7628.331,411.031,-0.0139
7738.098,413.031,-0.016
7848.11,415.031,-0.02
7958.286,417.031,-0.021
8068.14,419.031,-0.027
8177.71,421.031,-0.03
8287.24,423.031,-0.036
8396.44,425.031,-0.043
8506.41,427.031,-0.0491
8616.25,429.031,-0.056
8726.63,431.031,-0.0629
8837.37,433.031,-0.072
8948.25,435.031,-0.083
9058.93,437.031,-0.0941
9169.83,439.031,-0.1
9280.82,441.031,-0.11
9391.59,443.031,-0.11696
9502.53,445.031,-0.12299
9613.42,447.031,-0.13101
9724.56,449.031,-0.138
9835,451.031,-0.141
9945.53,453.031,-0.146
10056.7,455.031,-0.149
10167.3,457.031,-0.15522
10278,459.031,-0.15701
10388.5,461.031,-0.15762
10498.812,463.031,-0.16102
10608.6,465.031,-0.165
10717.797,467.031,-0.164
10827.1,469.031,-0.166
10936.527,471.031,-0.166
11046,473.031,-0.167
11155.2,475.031,-0.167
11263.3,477.031,-0.169
11371.5,479.031,-0.173
11480.5,481.031,-0.173
11589.8,483.031,-0.17077
11699,485.031,-0.169
11808.576,487.031,-0.173
11918.511,489.031,-0.173
12028.851,491.031,-0.173
12139.6,493.031,-0.176
12250.1,495.031,-0.178
12359.5,497.031,-0.181
12468.8,499.031,-0.18284
12577.8,501.031,-0.1871
12687.4,503.031,-0.19101
12798.3,505.031,-0.193
12909,507.031,-0.19698
13019.2,509.031,-0.202
13129.3,511.031,-0.211
13239.3,513.031,-0.21591
13350.3,515.031,-0.22103
13460.6,517.031,-0.228
13570.4,519.031,-0.234
13681.8,521.031,-0.241
13794.8,523.031,-0.248
13908.6,525.031,-0.25811
14022.438,527.031,-0.2668
14136.2,529.031,-0.27798
14249.9,531.031,-0.2878
14364,533.031,-0.30101
14477.7,535.031,-0.31313
14591.1,537.031,-0.32499
14704.707,539.031,-0.341
14819,541.031,-0.35445
14933.6,543.031,-0.36893
15048.2,545.031,-0.38305
15163,547.031,-0.39996
15278.1,549.031,-0.41699
15393.1,551.031,-0.43399
15507.7,553.031,-0.45201
15622.3,555.031,-0.4686
15737.4,557.031,-0.48821
15852.6,559.031,-0.50757
15967.8,561.031,-0.52653
16083.8,563.031,-0.54734
16199.8,565.031,-0.56898
16315.1,567.031,-0.591
16429.7,569.031,-0.61511
16544.769,571.031,-0.64212
16660.5,573.031,-0.66798
16776.222,575.031,-0.6972
16892.7,577.031,-0.73006
17008.9,579.031,-0.76408
17125.2,581.031,-0.80192
17241.8,583.031,-0.84614
17358.5,585.031,-0.89473
17475.1,587.031,-0.94834
17591.4,589.031,-1.0075
17707.4,591.031,-1.07603
17823.3,593.031,-1.15307
17938.9,595.031,-1.23847
18055.1,597.031,-1.33495
18170.5,599.031,-1.44225
18285.9,601.031,-1.56124
18401.259,603.031,-1.69383
18517,605.031,-1.83603
18633.663,607.031,-1.98824
18749.9,609.031,-2.14821
18865.6,611.031,-2.30799
18980.1,613.031,-2.46975
19096.9,615.031,-2.64443
19212.8,617.031,-2.82113
19328.7,619.031,-2.99243
19445,621.031,-3.16338
19562,623.031,-3.34162
19678.8,625.031,-3.50614
19795.4,627.031,-3.66661
19912.4,629.031,-3.82171
20029.6,631.031,-3.96047
20146.3,633.031,-4.08703
20264.1,635.031,-4.20222
20382.6,637.031,-4.30682
20499.6,639.031,-4.40108
20616.4,641.031,-4.47849
20734.7,643.031,-4.54858
20855.5,645.031,-4.60467
20975,647.031,-4.65545
21093.2,649.031,-4.69385
21211,651.031,-4.72899
21329.5,653.031,-4.75662
21447.9,655.031,-4.77967
21565.8,657.031,-4.79789
21684.2,659.031,-4.81598
21802.2,661.031,-4.83294
21920.724,663.031,-4.84641
22040.6,665.031,-4.857
22160.6,667.031,-4.86204
22279.8,669.031,-4.8661
22398.8,671.031,-4.87
22517.6,673.031,-4.871
22638.6,675.031,-4.871
22763.3,677.031,-4.87497
22886.6,679.031,-4.876
23010.9,681.031,-4.8739
23133.6,683.031,-4.876
23256.3,685.031,-4.875
23377.2,687.031,-4.875
23497.9,689.031,-4.874
23618.8,691.031,-4.876
23740.8,693.031,-4.87804
23863.8,695.031,-4.878
23985.8,697.031,-4.878
24108.012,699.031,-4.878
24229.098,701.031,-4.875
24349.7,703.031,-4.876
24472.1,705.031,-4.876
24599.166,707.031,-4.87655
24725.8,709.031,-4.876
24853.3,711.031,-4.877
24979.5,713.031,-4.877
25107.9,715.031,-4.878
25236.4,717.031,-4.878
25362.543,719.031,-4.8788
25486.5,721.031,-4.879
25609.8,723.031,-4.877
25733.5,725.031,-4.877
25858.8,727.031,-4.878
25985.5,729.031,-4.877
26114.505,731.031,-4.876
26245.4,733.031,-4.877
26372.1,735.031,-4.879
26499.3,737.031,-4.87662
26626.3,739.031,-4.876
26753.4,741.031,-4.875
26881.2,743.031,-4.87303
27012.1,745.031,-4.875
27142,747.031,-4.874
27265,749.031,-4.874
27389.3,751.031,-4.873
27515.718,753.031,-4.876
27642.6,755.031,-4.874
27767.9,757.031,-4.875
27893.4,759.031,-4.874
28020.5,761.031,-4.874
28147.5,763.031,-4.874
28273.4,765.031,-4.87467
28399.5,767.031,-4.875
28526.9,769.031,-4.874
28654.1,771.031,-4.874
28785.4,773.031,-4.875
28920.5,775.031,-4.877
29050.6,777.031,-4.876
29174.4,779.031,-4.87498
29298.7,781.031,-4.877
29422.2,783.031,-4.876
29549.6,785.031,-4.878
29682.4,787.031,-4.878
29818.2,789.031,-4.876
29943.2,791.031,-4.87792
30069.1,793.031,-4.87908
30199,795.031,-4.875
30327.336,797.031,-4.875
30454.4,799.031,-4.87496
30586.1,801.031,-4.875
30718.6,803.031,-4.876
30849.8,805.031,-4.874
30982.2,807.031,-4.876
31112.6,809.031,-4.875
31243.425,811.031,-4.874
31371.5,813.031,-4.875
31498.02,815.031,-4.879
31625.6,817.031,-4.879
31750.569,819.031,-4.88009
31873.6,821.031,-4.877
32001.5,823.031,-4.876
32133.3,825.031,-4.877
32264,827.031,-4.878
32393.7,829.031,-4.878
32520.699,831.031,-4.877
32650.5,833.031,-4.875
32781.2,835.031,-4.87603
32913.954,837.031,-4.876
33050.6,839.031,-4.876
33184,841.031,-4.87907
33315,843.031,-4.878
33448.6,845.031,-4.878
33582.666,847.031,-4.878
33711.5,849.031,-4.878
33841.2,851.031,-4.88
33969.4,853.031,-4.878
34095.2,855.031,-4.877
34218.33,857.031,-4.878
34341.2,859.031,-4.878
34466,861.031,-4.87907
34588.866,863.031,-4.879
34711.9,865.031,-4.88007
34838.3,867.031,-4.879
34958.1,869.031,-4.87899
35066.238,871.031,-4.874
35175.1,873.031,-4.875
35308.1,875.031,-4.875
35377.23,876.031,-4.875