Folder: matl-db/Non-charring/PMMA/TIFP (part 2)

File: TIFP_Cone_65kW_3.csv
Time,Mass,HRR,Back Surface Temperature 1,Back Surface Temperature 2
[s],[g],[kW/m2],[K],[K]
0,69.86,2.99879,298.75,298.85
2,69.8525,3.24251,298.75,298.85
4,69.8321,3.248055,298.85,298.85
6,69.7157,2.51762,298.95,298.95
8,69.6902,0.952524,298.95,298.95
10,69.6697,-8.7913,298.95,299.05
12,69.4755,32.8796,299.05,299.15
14,69.6928,127.805,299.35,299.35
16,69.6554,265.067,299.55,299.55
18,69.4845,422.534,301.35,300.75
20,69.1373,530.15,302.05,301.75
22,68.7247,586.953,303.55,303.55
24,68.3118,637.135,304.65,304.55
26,67.8549,659.777,307.05,306.75
28,67.3803,705.91,308.35,308.05
30,66.9327,712.669,311.45,310.85
32,66.44285,758.203,314.85,312.35
34,65.90682,761.009,316.75,315.75
36,65.3869,784.88,320.45,317.45
38,65.0302,802.268,322.25,321.15
40,64.3773,798.62,326.35,323.25
42,63.8501,766.733,328.35,327.25
44,63.3361,756.797,332.55,331.45
46,62.8202,759.068,334.55,333.65
48,62.314,760.193,338.95,337.95
50,61.7807,788.76,341.25,340.15
52,61.2358,811.366,345.45,344.65
54,60.7119,759.034,347.65,346.95
56,60.1608,766.017,352.25,351.55
58,59.6197,812.736,354.65,353.75
60,59.0908,847.007,359.05,358.45
62,58.54197,828.807,361.35,360.75
64,58.0274,795.985,365.95,365.25
66,57.4745,818.976,368.25,367.65
68,56.9136,796.893,372.95,372.25
70,56.36768,792.848,375.25,374.55
72,55.82366,822.075,379.75,379.05
74,55.2556,826.821,382.15,381.15
76,54.6855,834.436,386.55,385.55
78,54.1327,804.048,390.85,387.65
80,53.5925,860.137,393.15,391.75
82,53.0297,792.209,397.65,393.95
84,52.4312,820.497,399.85,398.55
86,51.8238,840.076,404.35,400.65
88,51.2853,916.582,406.85,405.45
90,50.69738,807.126,411.55,409.95
92,50.1265,849.468,413.85,412.25
94,49.5274,853.827,418.75,416.85
96,48.9327,899.553,420.95,419.15
98,48.33491,867.943,426.05,423.35
100,47.7304,905.126,428.45,425.55
102,47.1104,866.995,433.25,429.85
104,46.5192,903.707,435.75,431.75
106,45.93601,820.198,441.25,436.45
108,45.2949,879.136,447.35,438.95
110,44.6876,940.2,450.05,443.75
112,44.0664,952.471,453.05,446.45
114,43.4515,909.745,459.55,451.65
116,42.8211,938.888,462.45,454.65
118,42.1882,925.645,468.75,460.55
120,41.5584,934.378,475.55,463.85
122,40.9314,925.558,478.75,470.65
124,40.2922,1031.99,485.35,474.15
126,39.6262,989.883,489.05,481.05
128,39.0283,982.729,495.95,488.85
130,38.3644,934.954,499.95,492.75
132,37.6284,983.833,507.45,499.85
134,36.9564,1062.65,511.35,503.75
136,36.2904,1045.92,519.05,511.85
138,35.5753,1005.04,523.55,515.95
140,34.8755,1096.59,532.05,524.65
142,34.1611,1043.11,535.95,529.35
144,33.42159,1107.33,544.95,538.65
146,32.6944,1126.72,549.65,543.45
148,31.92962,1125.32,558.35,553.65
150,31.1467,1183.57,567.15,559.25
152,30.3854,1118.5,572.35,569.95
154,29.5917,1061.09,577.05,577.05
156,28.8134,1112.3,584.35,591.65
158,27.9911,1144.79,592.25,599.75
160,27.0979,1101.03,596.85,616.05
162,26.3063,1137.37,,
164,25.5289,1235.74,,
166,24.6903,1206.07,,
168,23.8805,1262.31,,
170,23.0949,1220.67,,
172,22.1935,1244.02,,
174,21.4149,1218.01,,
176,20.576,1181.64,,
178,19.6984,1240.52,,
180,18.8196,1203.74,,
182,17.9309,1308.12,,
184,17.1561,1128.54,,
186,16.3783,1022.26,,
188,15.6235,998.235,,
190,14.9562,824.204,,
192,14.37209,690.382,,
194,13.9151,637.269,,
196,13.48658,582.292,,
198,13.0388,489.124,,
200,12.6794,442.009,,
202,12.3712,411.478,,
204,12.1137,387.403,,
206,11.81385,351.312,,
208,11.613,335.942,,
210,11.3038,310.801,,
212,11.0509,300.078,,
214,10.8197,292.261,,
216,10.5512,289.65,,
218,10.2728,283.15,,
220,10.0781,271.239,,
222,9.83696,280.659,,
224,9.651805,274.322,,
226,9.482693,277.073,,
228,9.222602,284.379,,
230,9.078368,271.281,,
232,8.819887,278.193,,
234,8.614173,273.869,,
236,8.405445,278.548,,
238,8.171884,282.065,,
240,7.953033,288.965,,
242,7.702698,282.204,,
244,7.454365,284.964,,
246,7.346754,278.026,,
248,7.20542,281.11,,
250,6.955822,277.86,,
252,6.69217,276.82,,
254,6.491134,274.849,,
256,6.213838,264.552,,
258,6.016519,260.617,,
260,5.744734,264.158,,
262,5.587159,258.644,,
264,5.293651,245.299,,
266,5.119504,242.832,,
268,5.12929,250.951,,
270,4.951086,249.725,,
272,4.66512,258.016,,
274,4.588491,250.153,,
276,4.290153,255.479,,
278,4.03082,250.789,,
280,4.137439,257.712,,
282,4.014738,251.176,,
284,3.799491,238.645,,
286,3.498005,242.984,,
288,3.19071,238.342,,
290,2.906166,232.768,,
292,2.689249,226.307,,
294,2.746103,208.35,,
296,2.586996,200.025,,
298,2.476222,191.945,,
300,2.262748,174.178,,
302,2.153884,159.001,,
304,2.057157,150.453,,
306,1.984096,146.371,,
308,1.891131,137.832,,
310,1.773382,131.897,,
312,1.66909,127.987,,
314,1.593928,128.655,,
316,1.454192,126.039,,
318,1.415521,119.997,,
320,1.249999,117.592,,
322,1.249403,115.165,,
324,1.133088,114.882,,
326,1.078564,115.266,,
328,0.952261,107.167,,
330,0.897906,86.2144,,
332,0.796232,69.4954,,
334,0.818542,58.2663,,
336,0.763002,46.7703,,
338,0.75055,37.8732,,
340,0.659161,34.5836,,
342,0.651737,32.2937,,
344,0.630034,29.0944,,
346,0.580408,27.0967,,
348,0.585588,27.5082,,
350,0.555494,27.1634,,
352,0.529733,26.2668,,
354,0.485177,24.1542,,
356,0.621328,21.963,,
358,0.651085,20.0474,,
360,0.727577,17.893,,
362,0.694951,16.1177,,
364,0.703827,13.9384,,
366,0.617797,12.0354,,
368,0.664375,10.2376,,
370,0.612042,9.72352,,
372,0.633032,8.59789,,
374,0.571708,8.56225,,
376,0.661379,8.85997,,
378,0.55044,7.6903,,
380,0.556722,7.87765,,
382,0.540564,7.38905,,
384,0.560684,7.11125,,
386,0.519749,6.70643,,
388,0.568335,6.47218,,
390,0.499436,5.45853,,
392,0.518321,5.72756,,
394,0.489734,4.9432,,
396,0.523206,3.93385,,
398,0.501729,4.17904,,
400,0.518351,3.46122,,
402,0.499967,3.07605,,
404,0.525846,2.67319,,
406,0.494619,2.4527,,
408,0.514319,2.33771,,
410,0.492623,2.76478,,
412,0.492929,2.62513,,
414,0.503043,2.41564,,
416,0.477898,3.01713,,
418,0.479359,2.72294,,
420,0.464942,2.19474,,
422,0.490417,2.29463,,
424,0.474501,1.894245,,
426,0.480019,1.865615,,
428,0.436592,1.43588,,
430,0.489358,1.03184,,
432,0.436397,0.517452,,
434,0.472657,0.585771,,
436,0.430899,1.11382,,
438,0.505645,1.27667,,
440,0.464258,1.60398,,
442,0.509141,1.17865,,
444,0.431002,1.16036,,
446,0.491057,0.518586,,
448,0.427661,-0.729702,,
450,0.473805,-0.459421,,
452,0.425025,-0.206129,,
454,0.48929,0.285568,,
456,0.413188,0.520407,,
458,0.472964,0.604937,,
460,0.430997,0.37754,,
462,0.459428,0.640205,,
464,0.412324,1.54848,,
466,0.468339,1.33341,,
468,0.483251,1.64987,,
470,0.512954,1.41437,,
472,0.465052,1.26037,,
474,0.472484,1.65878,,
476,0.451406,2.34988,,
478,0.447156,2.31316,,
480,0.442046,1.89632,,
482,0.459309,1.36387,,
484,0.491949,0.408292,,
486,0.473873,0.848166,,
488,0.460969,0.44299,,
490,0.446497,0.434826,,
492,0.455678,0.806803,,
494,0.466333,0.344841,,
496,0.466892,0.377183,,
498,0.44721,0.733878,,
500,0.45,0.283596,,

File: TIFP_DSC_N2_10K_1.csv
Time,Temperature,Heat Flow
[s],[K],[mW/mg]
0,300.105,8.82E-03
22.8,300.111,8.90E-03
45.6,300.114,9.00E-03
68.4,300.12,9.19E-03
91.2,300.126,8.79E-03
114,300.133,8.66E-03
136.8,300.134,8.79E-03
159.6,300.14,8.46E-03
182.4,300.139,8.46E-03
205.2,300.144,8.40E-03
228,300.149,8.48E-03
250.8,300.151,8.01E-03
273.6,300.154,8.12E-03
296.4,300.156,7.91E-03
309.0498,300.157,7.83E-03
320.4498,300.198,8.53E-03
331.8498,300.353,1.06E-02
343.2498,300.702,1.54E-02
354.6498,301.317,2.36E-02
366.0498,302.246,3.59E-02
377.4498,303.527,5.19E-02
388.8498,305.161,7.11E-02
400.2498,307.135,9.15E-02
411.6498,309.404,0.11027
423.0498,311.908,0.1266
434.4498,314.581,0.13845
445.8498,317.365,0.14717
457.2498,320.196,0.15114
468.6498,323.02,0.15193
480.0498,325.8,0.15001
491.4498,328.517,0.14665
502.8498,331.132,0.14259
514.2498,333.65,0.13817
525.6498,336.057,0.13442
537.0498,338.366,0.13102
548.4498,340.588,0.12839
559.8498,342.728,0.12645
571.2498,344.799,0.12602
582.6498,346.818,0.12625
594.0498,348.796,0.12731
605.4498,350.74,0.12911
616.8498,352.663,0.13127
628.2498,354.569,0.13267
639.6498,356.469,0.13259
651.0498,358.364,0.1313
662.4498,360.255,0.12984
673.8498,362.142,0.12824
685.2498,364.027,0.12729
696.6498,365.916,0.12695
708.0498,367.804,0.12685
719.4498,369.685,0.12685
730.8498,371.57,0.12737
742.2498,373.449,0.12813
753.6498,375.334,0.12934
765.0498,377.217,0.13047
776.4498,379.094,0.13168
787.8498,380.976,0.13253
799.2498,382.863,0.13424
810.6498,384.744,0.13748
822.0498,386.635,0.14032
833.4498,388.527,0.14233
844.8498,390.421,0.14242
856.2498,392.324,0.14262
867.6498,394.227,0.14261
879.0498,396.137,0.13961
890.4498,398.048,0.13145
901.8498,399.965,0.11785
913.2498,401.88,0.10046
924.6498,403.797,8.53E-02
936.0498,405.712,7.33E-02
947.4498,407.627,6.53E-02
958.8498,409.543,5.78E-02
970.2498,411.456,5.41E-02
981.6498,413.369,5.18E-02
993.0498,415.282,5.02E-02
1004.45,417.196,4.99E-02
1015.85,419.108,4.82E-02
1027.25,421.019,4.62E-02
1038.65,422.931,4.43E-02
1050.05,424.847,4.28E-02
1061.45,426.754,4.63E-02
1072.85,428.663,4.70E-02
1084.25,430.569,4.76E-02
1095.65,432.472,4.69E-02
1107.05,434.373,4.59E-02
1118.45,436.273,4.67E-02
1129.85,438.169,4.56E-02
1141.25,440.066,4.47E-02
1152.65,441.964,4.40E-02
1164.05,443.859,4.39E-02
1175.45,445.757,4.37E-02
1186.85,447.651,5.08E-02
1198.25,449.545,5.31E-02
1209.65,451.442,5.56E-02
1221.05,453.334,5.77E-02
1232.45,455.226,5.87E-02
1243.85,457.12,6.05E-02
1255.25,459.014,6.25E-02
1266.65,460.909,6.45E-02
1278.05,462.808,6.65E-02
1289.45,464.699,6.88E-02
1300.85,466.596,7.11E-02
1312.25,468.492,7.45E-02
1323.65,470.389,7.70E-02
1335.05,472.288,8.07E-02
1346.45,474.186,8.50E-02
1357.85,476.083,8.90E-02
1369.25,477.986,9.29E-02
1380.65,479.882,9.60E-02
1392.05,481.781,9.92E-02
1403.45,483.68,0.10365
1414.85,485.581,0.10718
1426.25,487.479,0.11024
1437.65,489.377,0.11532
1449.05,491.273,0.12035
1460.45,493.162,0.1228
1471.85,495.063,0.12561
1483.25,496.956,0.12866
1494.65,498.851,0.13229
1506.05,500.744,0.13614
1517.45,502.634,0.13921
1528.85,504.527,0.1415
1540.25,506.423,0.14437
1551.65,508.317,0.14762
1563.05,510.216,0.15174
1574.45,512.111,0.15576
1585.85,514.01,0.15979
1597.25,515.908,0.16448
1608.65,517.81,0.16918
1620.05,519.708,0.17385
1631.45,521.606,0.17868
1642.85,523.501,0.18419
1654.25,525.398,0.19034
1665.65,527.295,0.19628
1677.05,529.187,0.2015
1688.45,531.086,0.20971
1699.85,532.979,0.21774
1711.25,534.876,0.22715
1722.65,536.776,0.23749
1734.05,538.678,0.25015
1745.45,540.586,0.26597
1756.85,542.497,0.28314
1768.25,544.415,0.30282
1779.65,546.325,0.32584
1791.05,548.239,0.3521
1802.45,550.148,0.38238
1813.85,552.058,0.41772
1825.25,553.966,0.46011
1836.65,555.875,0.50868
1848.05,557.776,0.56404
1859.45,559.677,0.6279
1870.85,561.582,0.70202
1882.25,563.48,0.78641
1893.65,565.383,0.88423
1905.05,567.279,1.01814
1916.45,569.176,1.1689
1927.85,571.072,1.33466
1939.25,572.966,1.51945
1950.65,574.859,1.70974
1962.05,576.757,1.87303
1973.45,578.663,2.03828
1984.85,580.571,2.29172
1996.25,582.486,2.45004
2007.65,584.398,2.58768
2019.05,586.307,2.71782
2030.45,588.221,2.78416
2041.85,590.134,2.84062
2053.25,592.049,2.91576
2064.65,593.962,2.97571
2076.05,595.873,3.01741
2087.45,597.78,3.04578
2098.85,599.687,3.06146
2110.25,601.591,3.03413
2121.65,603.492,3.01053
2133.05,605.389,2.98944
2144.45,607.287,2.971
2155.85,609.178,2.92682
2167.25,611.06,2.86886
2178.65,612.949,2.93264
2190.05,614.833,2.93418
2201.45,616.718,2.92828
2212.85,618.61,2.95721
2224.25,620.506,3.03046
2235.65,622.409,3.04336
2247.05,624.326,3.10375
2258.45,626.253,3.15531
2269.85,628.181,3.13933
2281.25,630.131,3.21335
2292.65,632.089,3.30549
2304.05,634.051,3.34441
2315.45,636.025,3.39704
2326.85,637.983,3.36207
2338.25,639.94,3.38523
2349.65,641.886,3.30435
2361.05,643.805,3.23799
2372.45,645.697,3.10007
2383.85,647.551,2.94456
2395.25,649.375,2.70721
2406.65,651.156,2.46273
2418.05,652.937,2.47509
2429.45,654.718,2.40667
2440.85,656.471,2.38989
2452.25,658.196,2.22997
2463.65,659.94,2.25348
2475.05,661.693,2.18534
2486.45,663.462,2.09245
2497.85,665.246,1.99974
2509.25,667.057,1.91163
2520.65,668.895,1.83305
2532.05,670.759,1.76305
2543.45,672.652,1.70122
2554.85,674.568,1.64401
2566.25,676.512,1.59157
2577.65,678.475,1.5438
2589.05,680.448,1.49926
2600.45,682.434,1.45993
2611.85,684.423,1.42421
2623.25,686.41,1.38995
2634.65,688.403,1.35504
2646.05,690.389,1.31698
2657.45,692.361,1.26827
2668.85,694.324,1.21186
2680.25,696.274,1.15176
2691.65,698.21,1.09461
2703.05,700.14,1.0621
2714.45,702.057,1.05715
2725.85,703.967,1.0624
2737.25,705.869,1.07043
2748.65,707.766,1.079
2760.05,709.66,1.08644
2771.45,711.55,1.09434
2782.85,713.44,1.10189
2794.25,715.329,1.10797
2805.65,717.214,1.11294
2817.05,719.102,1.11707
2828.45,720.992,1.12124
2839.85,722.883,1.12217
2851.25,724.772,1.12181
2862.65,726.667,1.11954
2874.05,728.562,1.11463
2885.45,730.461,1.1081
2896.85,732.357,1.09705
2908.25,734.26,1.08333
2919.65,736.16,1.06476
2931.05,738.061,1.04127
2942.45,739.964,1.01395
2953.85,741.868,0.98003
2965.25,743.772,0.93908
2976.65,745.678,0.89126
2988.05,747.582,0.83532
2999.45,749.482,0.77362
3010.85,751.386,0.70843
3022.25,753.285,0.64429
3033.65,755.181,0.58482
3045.05,757.083,0.53535
3056.45,758.98,0.49678
3067.85,760.874,0.46793
3079.25,762.77,0.44565
3090.65,764.661,0.43007
3102.05,766.554,0.41832
3113.45,768.449,0.41153
3124.85,770.344,0.40649
3136.25,772.24,0.4033
3147.65,774.142,0.40039
3159.05,776.039,0.39877
3170.45,777.937,0.39733
3181.85,779.83,0.39615
3193.25,781.727,0.39614
3204.65,783.632,0.39642
3216.05,785.546,0.3973
3227.45,787.479,0.39887
3238.85,789.423,0.40141
3250.25,791.372,0.40543
3261.65,793.321,0.40944
3273.05,795.262,0.41257
3284.45,797.2,0.4168
3295.85,799.122,0.42081
3307.25,801.031,0.42427
3318.65,802.934,0.42761
3330.05,804.819,0.43103
3341.45,806.695,0.43265
3352.85,808.567,0.43525
3364.25,810.442,0.43763
3375.65,812.306,0.44018
3387.05,814.173,0.44241
3398.45,816.043,0.44545
3409.85,817.918,0.4473
3421.25,819.8,0.45031
3432.65,821.683,0.451
3436.85,822.381,0.45132

File: TIFP_DSC_N2_10K_2.csv
Time,Temperature,Heat flux
s,K,W/g
0,300.631,-6.16E-03
22.8,300.59,-4.33E-03
45.6,300.535,-2.80E-03
68.4,300.46,-2.33E-03
91.2,300.376,-1.77E-03
114,300.29,-2.11E-03
136.8,300.198,-2.62E-03
159.6,300.11,-2.91E-03
182.4,300.045,-3.80E-03
205.2,300.002,-5.73E-03
228,299.981,-7.64E-03
250.8,299.992,-8.69E-03
273.6,300.007,-9.80E-03
296.4,300.032,-1.01E-02
309,300.044,-1.00E-02
320.4,300.1,-1.07E-02
331.8,300.27,-1.33E-02
343.2,300.636,-1.88E-02
354.6,301.261,-2.90E-02
366,302.201,-4.34E-02
377.4,303.5,-6.23E-02
388.8,305.148,-8.48E-02
400.2,307.13,-0.10856
411.6,309.409,-0.13149
423,311.924,-0.15167
434.4,314.604,-0.16739
445.8,317.391,-0.17801
457.2,320.225,-0.18343
468.6,323.06,-0.18442
480,325.843,-0.18224
491.4,328.55,-0.17739
502.8,331.168,-0.17151
514.2,333.679,-0.16447
525.6,336.085,-0.15796
537,338.391,-0.15171
548.4,340.612,-0.14694
559.8,342.751,-0.14292
571.2,344.823,-0.14053
582.6,346.842,-0.13896
594,348.813,-0.13853
605.4,350.756,-0.13924
616.8,352.681,-0.14058
628.2,354.59,-0.1411
639.6,356.489,-0.14036
651,358.379,-0.13879
662.4,360.272,-0.13657
673.8,362.159,-0.13463
685.2,364.046,-0.13291
696.6,365.93,-0.13177
708,367.812,-0.13124
719.4,369.695,-0.13105
730.8,371.58,-0.13151
742.2,373.46,-0.13177
753.6,375.339,-0.13257
765,377.221,-0.13367
776.4,379.1,-0.13468
787.8,380.983,-0.13623
799.2,382.865,-0.13751
810.6,384.751,-0.14052
822,386.643,-0.14359
833.4,388.533,-0.1458
844.8,390.432,-0.1455
856.2,392.335,-0.14573
867.6,394.24,-0.14644
879,396.146,-0.14603
890.4,398.057,-0.1439
901.8,399.963,-0.14064
913.2,401.881,-0.13587
924.6,403.799,-0.13238
936,405.716,-0.12965
947.4,407.637,-0.12879
958.8,409.552,-0.12596
970.2,411.467,-0.12718
981.6,413.378,-0.1296
993,415.292,-0.13203
1004.4,417.207,-0.13576
1015.8,419.113,-0.13796
1027.2,421.02,-0.13892
1038.6,422.929,-0.13959
1050,424.835,-0.14067
1061.4,426.74,-0.14651
1072.8,428.648,-0.15016
1084.2,430.548,-0.15285
1095.6,432.452,-0.15549
1107,434.351,-0.15813
1118.4,436.255,-0.16073
1129.8,438.154,-0.16212
1141.2,440.051,-0.16413
1152.6,441.949,-0.16671
1164,443.848,-0.16939
1175.4,445.743,-0.17227
1186.8,447.637,-0.18218
1198.2,449.532,-0.18795
1209.6,451.43,-0.19384
1221,453.32,-0.20156
1232.4,455.218,-0.20663
1243.8,457.112,-0.21165
1255.2,459.003,-0.21765
1266.6,460.9,-0.22365
1278,462.793,-0.22969
1289.4,464.687,-0.23604
1300.8,466.584,-0.24175
1312.2,468.477,-0.24917
1323.6,470.374,-0.25663
1335,472.274,-0.26464
1346.4,474.175,-0.27431
1357.8,476.076,-0.28367
1369.2,477.981,-0.2933
1380.6,479.883,-0.30233
1392,481.784,-0.31141
1403.4,483.69,-0.32192
1414.8,485.597,-0.33212
1426.2,487.501,-0.34099
1437.6,489.399,-0.35176
1449,491.295,-0.36149
1460.4,493.193,-0.36964
1471.8,495.086,-0.37749
1483.2,496.979,-0.38586
1494.6,498.876,-0.39529
1506,500.765,-0.40514
1517.4,502.662,-0.41603
1528.8,504.552,-0.42444
1540.2,506.446,-0.43212
1551.6,508.342,-0.44168
1563,510.233,-0.45135
1574.4,512.13,-0.46314
1585.8,514.031,-0.47447
1597.2,515.929,-0.48564
1608.6,517.827,-0.49651
1620,519.728,-0.50798
1631.4,521.628,-0.52035
1642.8,523.531,-0.53258
1654.2,525.433,-0.54497
1665.6,527.333,-0.55807
1677,529.23,-0.57015
1688.4,531.13,-0.58444
1699.8,533.028,-0.59867
1711.2,534.923,-0.61457
1722.6,536.818,-0.63105
1734,538.72,-0.64896
1745.4,540.615,-0.66909
1756.8,542.515,-0.6896
1768.2,544.412,-0.71347
1779.6,546.308,-0.73953
1791,548.206,-0.76851
1802.4,550.105,-0.80141
1813.8,552.005,-0.83994
1825.2,553.907,-0.88254
1836.6,555.809,-0.93128
1848,557.712,-0.9846
1859.4,559.617,-1.04336
1870.8,561.52,-1.10616
1882.2,563.423,-1.17615
1893.6,565.326,-1.25673
1905,567.229,-1.35501
1916.4,569.13,-1.46469
1927.8,571.033,-1.58017
1939.2,572.933,-1.69994
1950.6,574.835,-1.8142
1962,576.735,-1.93075
1973.4,578.635,-2.04788
1984.8,580.532,-2.1686
1996.2,582.431,-2.28918
2007.6,584.332,-2.40278
2019,586.234,-2.50683
2030.4,588.135,-2.60161
2041.8,590.042,-2.68281
2053.2,591.945,-2.75325
2064.6,593.857,-2.80993
2076,595.776,-2.85707
2087.4,597.707,-2.88662
2098.8,599.651,-2.92163
2110.2,601.601,-2.94218
2121.6,603.555,-2.95474
2133,605.518,-2.95288
2144.4,607.477,-2.94362
2155.8,609.43,-2.93031
2167.2,611.38,-2.96066
2178.6,613.319,-2.94056
2190,615.242,-2.94271
2201.4,617.155,-2.95523
2212.8,619.06,-3.00607
2224.2,620.954,-3.04116
2235.6,622.842,-3.03644
2247,624.735,-3.08406
2258.4,626.625,-3.12647
2269.8,628.506,-3.04545
2281.2,630.397,-3.15053
2292.6,632.285,-3.1294
2304,634.169,-3.11507
2315.4,636.055,-3.11043
2326.8,637.938,-3.05133
2338.2,639.814,-2.92654
2349.6,641.709,-2.96593
2361,643.592,-2.97812
2372.4,645.468,-2.90393
2383.8,647.32,-2.82247
2395.2,649.175,-2.71281
2406.6,651.003,-2.5384
2418,652.789,-2.31237
2429.4,654.572,-2.174
2440.8,656.354,-2.11067
2452.2,658.133,-2.11354
2463.6,659.919,-2.09846
2475,661.684,-2.05672
2486.4,663.443,-1.96987
2497.8,665.209,-1.88916
2509.2,666.987,-1.8097
2520.6,668.788,-1.73851
2532,670.62,-1.67552
2543.4,672.48,-1.61961
2554.8,674.372,-1.57019
2566.2,676.295,-1.52531
2577.6,678.251,-1.48651
2589,680.224,-1.44917
2600.4,682.215,-1.41253
2611.8,684.222,-1.3805
2623.2,686.228,-1.34851
2634.6,688.241,-1.31592
2646,690.249,-1.27967
2657.4,692.25,-1.23231
2668.8,694.237,-1.17562
2680.2,696.21,-1.11535
2691.6,698.168,-1.06007
2703,700.11,-1.03034
2714.4,702.039,-1.02521
2725.8,703.949,-1.03104
2737.2,705.859,-1.04007
2748.6,707.747,-1.04877
2760,709.633,-1.05719
2771.4,711.508,-1.06455
2782.8,713.386,-1.07134
2794.2,715.261,-1.0764
2805.6,717.148,-1.0808
2817,719.049,-1.08573
2828.4,720.958,-1.09115
2839.8,722.881,-1.09396
2851.2,724.81,-1.09678
2862.6,726.732,-1.0982
2874,728.655,-1.0991
2885.4,730.568,-1.09824
2896.8,732.476,-1.09285
2908.2,734.374,-1.08576
2919.6,736.277,-1.20891
2931,738.164,-1.17573
2942.4,740.056,-1.15057
2953.8,741.942,-1.12498
2965.2,743.828,-1.09512
2976.6,745.713,-1.06109
2988,747.597,-1.01955
2999.4,749.481,-0.97233
3010.8,751.37,-0.91933
3022.2,753.26,-0.85946
3033.6,755.153,-0.79603
3045,757.047,-0.73374
3056.4,758.944,-0.67534
3067.8,760.844,-0.62429
3079.2,762.753,-0.5808
3090.6,764.662,-0.54626
3102,766.57,-0.51968
3113.4,768.475,-0.49878
3124.8,770.388,-0.48368
3136.2,772.297,-0.47161
3147.6,774.205,-0.46245
3159,776.107,-0.4561
3170.4,778.007,-0.45117
3181.8,779.913,-0.44754
3193.2,781.819,-0.4458
3204.6,783.724,-0.44505
3216,785.627,-0.44436
3227.4,787.531,-0.44374
3238.8,789.436,-0.44398
3250.2,791.337,-0.44428
3261.6,793.236,-0.44489
3273,795.138,-0.44491
3284.4,797.04,-0.44526
3295.8,798.94,-0.44644
3307.2,800.858,-0.44784
3318.6,802.763,-0.44921
3330,804.668,-0.4514
3341.4,806.574,-0.45214
3352.8,808.475,-0.4536
3364.2,810.37,-0.45421
3375.6,812.27,-0.45558
3387,814.165,-0.45681
3398.4,816.061,-0.4585
3409.8,817.95,-0.4594
3421.2,819.838,-0.46001
3432.6,821.727,-0.45904
3436.8,822.421,-0.45858