Folder: matl-db/Non-charring/PMMA/TIFP (part 3)

File: TIFP_DSC_O2-21_10K_2.csv
Time,Temperature,Heat flow
s,K,W g-1
0,297.5898,-0.178378
15,298.9133,-0.167026
30,301.071,-0.089332
45,303.2608,-0.04574
60,305.4848,-0.016735
75,307.7528,0.003134
90,310.0502,0.018647
105,312.3632,0.032727
120,314.6739,0.04238
135,317.0269,0.046709
150,319.3781,0.05519
165,321.739,0.062607
180,324.1054,0.061982
195,326.488,0.062893
210,328.8691,0.072353
225,331.2648,0.075329
240,333.6706,0.079544
255,336.0793,0.087577
270,338.4749,0.092072
285,340.9009,0.099045
300,343.3283,0.099982
315,345.7647,0.107439
330,348.1989,0.111091
345,350.6356,0.114414
360,353.1,0.113297
375,355.5473,0.118358
390,358.0112,0.111952
405,360.4646,0.112123
420,362.9407,0.108575
435,365.4177,0.115259
450,367.8998,0.117023
465,370.3807,0.121835
480,372.8682,0.123655
495,375.361,0.127894
510,377.856,0.12924
525,380.352,0.134954
540,382.88,0.136813
555,385.38,0.14169
570,387.877,0.149221
585,390.406,0.156639
600,392.906,0.164677
615,395.431,0.174335
630,397.958,0.179149
645,400.476,0.189794
660,403.014,0.199718
675,405.549,0.199299
690,408.078,0.200808
705,410.617,0.195051
720,413.159,0.194153
735,415.689,0.192834
750,418.24,0.190542
765,420.781,0.189408
780,423.332,0.196346
795,425.879,0.191885
810,428.438,0.199955
825,430.986,0.198632
840,433.536,0.198263
855,436.09,0.198905
870,438.64,0.197336
885,441.201,0.203248
900,443.75,0.20691
915,446.31,0.207446
930,448.87,0.20899
945,451.435,0.21394
960,453.991,0.218335
975,456.553,0.21696
990,459.103,0.220295
1005,461.68,0.221364
1020,464.25,0.219978
1035,466.808,0.224096
1050,469.372,0.224032
1065,471.947,0.221622
1080,474.512,0.220203
1095,477.073,0.220611
1110,479.642,0.219934
1125,482.206,0.225113
1140,484.768,0.227385
1155,487.349,0.219961
1170,489.913,0.221578
1185,492.495,0.223444
1200,495.046,0.217973
1215,497.629,0.218348
1230,500.194,0.221578
1245,502.756,0.220889
1260,505.317,0.228625
1275,507.888,0.228408
1290,510.461,0.231505
1305,513.013,0.23375
1320,515.586,0.240844
1335,518.152,0.249106
1350,520.711,0.246484
1365,523.261,0.25059
1380,525.838,0.256934
1395,528.395,0.264789
1410,530.96,0.269157
1425,533.529,0.282838
1440,536.093,0.305313
1455,538.667,0.337111
1470,541.234,0.380407
1485,543.81,0.432255
1500,546.379,0.492874
1515,548.951,0.557992
1530,551.531,0.615839
1545,554.103,0.659404
1560,556.678,0.677574
1575,559.252,0.684341
1590,561.819,0.687707
1605,564.393,0.703978
1620,566.959,0.742458
1635,569.529,0.81974
1650,572.093,0.925815
1665,574.665,1.068514
1680,577.243,1.255148
1695,579.817,1.519916
1710,582.394,1.865654
1725,584.978,2.312702
1740,587.572,2.7115
1755,590.164,2.982364
1770,592.759,3.240617
1785,595.352,3.439853
1800,597.929,3.999054
1815,600.486,4.600875
1830,603.066,5.154233
1845,605.656,5.610106
1860,608.273,5.933816
1875,610.899,6.048775
1890,613.537,5.964901
1905,616.173,5.625889
1920,618.816,5.321211
1935,621.44,4.964705
1950,624.061,4.6582
1965,626.674,4.102959
1980,629.306,3.245346
1995,631.885,2.813675
2010,634.446,2.544388
2025,636.994,2.355052
2040,639.528,2.173426
2055,642.054,1.900653
2070,644.572,1.58222
2085,647.088,1.215228
2100,649.593,0.800699
2115,652.099,0.25956
2130,654.563,-0.161441
2145,657.022,-0.3621
2160,659.468,-0.437369
2175,661.918,-0.412028
2190,664.351,-0.337092
2205,666.786,-0.254643
2220,669.222,-0.172701
2235,671.667,-0.102876
2250,674.121,-0.041586
2265,676.581,0.010852
2280,679.034,0.053578
2295,681.486,0.10594
2310,683.952,0.167754
2325,686.413,0.212308
2340,688.88,0.231932
2355,691.373,0.245231
2370,693.86,0.242359
2385,696.358,0.245671
2400,698.855,0.24945
2415,701.361,0.255852
2430,703.864,0.252551
2445,706.366,0.253975
2460,708.875,0.254606
2475,711.389,0.242755
2490,713.904,0.22901
2505,716.408,0.222033
2520,718.918,0.214599
2535,721.431,0.205012
2550,723.948,0.187772
2565,726.454,0.173323
2580,728.98,0.1591
2595,731.489,0.147999
2610,734,0.136902
2625,736.52,0.121626
2640,739.023,0.11117
2655,741.54,0.10444
2670,744.051,0.09339
2685,746.559,0.078862
2700,749.077,0.072148
2715,751.578,0.077645
2730,754.1,0.066359
2745,756.607,0.057371
2760,759.116,0.057207
2775,761.623,0.046929
2790,764.129,0.037786
2805,766.64,0.037673
2820,769.141,0.031257
2835,771.651,0.022426
2850,774.157,0.018588
2865,776.667,0.014777
2880,779.175,0.016833
2895,781.685,0.006805
2910,784.191,-0.001591
2925,786.701,-0.003375
2940,789.206,-0.004066
2955,791.714,-0.005656
2970,794.213,-0.007467
2985,796.725,-0.017989
3000,799.215,-0.017383
3015,801.728,-0.024118
3030,804.235,-0.018725
3045,806.744,-0.028047
3060,809.25,-0.04223
3075,811.751,-0.048932
3090,814.251,-0.058389
3105,816.749,-0.054987
3120,819.249,-0.057483
3135,821.764,-0.060833
3150,824.259,-0.064056
3165,826.763,-0.073467
3180,829.262,-0.073694
3195,831.759,-0.069272
3210,834.26,-0.074037
3225,836.757,-0.07619
3240,839.261,-0.081571
3255,841.763,-0.082563
3270,844.259,-0.096632
3285,846.768,-0.099409
3300,849.259,-0.0984
3315,851.759,-0.098967
3330,854.256,-0.094751
3345,856.752,-0.099281
3360,859.254,-0.111419
3375,861.75,-0.120102
3390,864.248,-0.12454
3405,866.749,-0.12683
3420,869.241,-0.13131
3435,871.744,-0.139215
3450,874.234,-0.1429
3465,876.738,-0.145887
3480,879.239,-0.152137
3495,881.723,-0.154105
3510,884.227,-0.155399
3525,886.726,-0.15863
3540,889.223,-0.1658
3555,891.715,-0.171416
3570,894.199,-0.182492
3585,896.694,-0.175116
3600,899.183,-0.196441
3615,901.675,-0.209993
3630,904.17,-0.210149
3645,906.664,-0.209961
3660,909.16,-0.22979
3675,911.655,-0.235457
3690,914.139,-0.230692
3705,916.628,-0.234158
3720,919.114,-0.245898
3735,921.608,-0.249729
3750,924.097,-0.254923
3765,926.582,-0.273028
3780,929.071,-0.286716
3795,931.567,-0.288021
3810,934.056,-0.294899
3825,936.542,-0.320794
3840,939.027,-0.322958
3855,941.519,-0.31805
3870,943.999,-0.332968
3885,946.488,-0.337292
3900,948.976,-0.357048
3915,951.455,-0.361596
3930,953.946,-0.363966
3945,956.431,-0.380341
3960,958.911,-0.382095
3975,961.39,-0.397898
3990,963.872,-0.404056
4005,966.364,-0.422663
4020,968.839,-0.424948
4035,971.32,-0.443222
4050,973.801,-0.465759
4065,976.278,-0.468442
4080,978.764,-0.486445
4095,981.241,-0.498958
4110,983.724,-0.523595
4125,986.208,-0.582311
4140,988.683,-0.62305
4155,991.169,-0.655715
4170,993.649,-0.673041
4185,996.125,-0.691569
4200,998.601,-0.725128
4215,1001.072,-0.753253
4230,1003.546,-0.774101
4245,1006.026,-0.769358
4260,1008.499,-0.757284
4275,1010.972,-0.789568
4290,1013.449,-0.812445
4305,1015.92,-0.818283
4320,1018.397,-0.835163
4335,1020.864,-0.850152
4350,1023.341,-0.880501

File: TIFP_Gasification_65kW_1.csv
time,Mass
s,g
0,74.1
3,73.9907
6,73.9014
9,73.8641
12,73.8742
15,73.7983
18,73.7851
21,73.7629
24,73.6279
27,73.3325
30,72.9578
33,72.5592
36,72.13808
39,71.6689
42,71.1879
45,70.6829
48,70.14512
51,69.6472
54,69.1305
57,68.6177
60,68.0543
63,67.51129
66,67.0084
69,66.4028
72,65.9559
75,65.2742
78,64.6675
81,64.043
84,63.5734
87,63.0048
90,62.3237
93,61.8566
96,61.2587
99,60.7396
102,60.1609
105,59.321
108,58.8203
111,58.26941
114,57.6344
117,56.9679
120,56.3118
123,55.633
126,55.1434
129,54.7262
132,53.8313
135,53.0854
138,52.3718
141,51.9907
144,51.2892
147,50.579
150,49.8926
153,49.3209
156,48.3932
159,47.7184
162,46.9998
165,46.258
168,45.8525
171,45.1823
174,44.08598
177,43.655
180,42.9768
183,42.22625
186,41.3714
189,40.9032
192,40.0293
195,38.9773
198,38.7249
201,37.8269
204,37.2682
207,36.2683
210,35.3033
213,34.6669
216,33.6007
219,33.0883
222,32.8905
225,31.55149
228,30.6385
231,29.7439
234,28.7509
237,28.0194
240,26.8967
243,26.4159
246,25.4852
249,24.578
252,23.9102
255,22.6709
258,21.7706
261,20.8139
264,19.87777
267,19.0182
270,18.1364
273,17.3303
276,16.574
279,15.9395
282,15.3921
285,14.8396
288,14.3592
291,13.893
294,13.4668
297,13.1209
300,12.7128
303,12.3835
306,12.0493
309,11.738
312,11.4073
315,11.0921
318,10.8269
321,10.5552
324,10.26066
327,9.97471
330,9.724986
333,9.433079
336,9.23029
339,8.967827
342,8.735002
345,8.475231
348,8.24988
351,8.004391
354,7.752788
357,7.54609
360,7.306721
363,7.102781
366,6.880737
369,6.67742
372,6.475121
375,6.260144
378,6.069156
381,5.835626
384,5.661112
387,5.458684
390,5.279572
393,5.099974
396,4.919501
399,4.743991
402,4.567315
405,4.493101
408,4.235254
411,4.074122
414,3.909667
417,3.695952
420,3.618621
423,3.449629
426,3.3278
429,3.170049
432,3.028886
435,2.89046
438,2.747371
441,2.62642
444,2.505611
447,2.391262
450,2.246337
453,2.132108
456,2.027682
459,1.90402
462,1.810718
465,1.684891
468,1.586004
471,1.470321
474,1.394018
477,1.300935
480,1.214475
483,1.099435
486,1.050691
489,0.95796
492,0.881398
495,0.788501
498,0.736617
501,0.696939
504,0.610949
507,0.55601
510,0.481184
513,0.45158
516,0.4
519,0.391063
522,0.353385
525,0.323073
528,0.319791
531,0.279
534,0.294772
537,0.237102
540,0.24396
543,0.202373
546,0.181591
549,0.196855
552,0.178497
555,0.198122
558,0.160658
561,0.174195
564,0.125262
567,0.14285
570,0.113106
573,0.116571
576,0.118799
579,0.097543
582,0.084814
585,0.065809
588,0.097011
591,0.075026
594,0.074278
597,0.06444
600,0.084114
603,0.062537
606,0.073435
609,0.056001
612,0.051769
615,0.056831
618,0.048
621,0.040787
624,0.027241
627,0.048267
630,0.02054
633,0.032213
636,0.010508

File: TIFP_TGA_N2_10K_1.csv
Time,Temperature,Mass
[s],[K],[mg]
0,300.105,5.4338
22.8,300.111,5.43749
45.6,300.114,5.44185
68.4,300.12,5.4452
91.2,300.126,5.44755
114,300.133,5.44889
136.8,300.134,5.45191
159.6,300.14,5.45326
182.4,300.139,5.45392
205.2,300.144,5.45761
228,300.149,5.45963
250.8,300.151,5.46097
273.6,300.154,5.46264
296.4,300.156,5.46365
309.0498,300.157,5.46566
320.4498,300.198,5.46812
331.8498,300.353,5.46768
343.2498,300.702,5.46868
354.6498,301.317,5.468
366.0498,302.246,5.46856
377.4498,303.527,5.46901
388.8498,305.161,5.47136
400.2498,307.135,5.47159
411.6498,309.404,5.47293
423.0498,311.908,5.46969
434.4498,314.581,5.47203
445.8498,317.365,5.47393
457.2498,320.196,5.47404
468.6498,323.02,5.47382
480.0498,325.8,5.4755
491.4498,328.517,5.47415
502.8498,331.132,5.47281
514.2498,333.65,5.47549
525.6498,336.057,5.47784
537.0498,338.366,5.47662
548.4498,340.588,5.47673
559.8498,342.728,5.47393
571.2498,344.799,5.47795
582.6498,346.818,5.47762
594.0498,348.796,5.47796
605.4498,350.74,5.4793
616.8498,352.663,5.4793
628.2498,354.569,5.4793
639.6498,356.469,5.47929
651.0498,358.364,5.47929
662.4498,360.255,5.47829
673.8498,362.142,5.4793
685.2498,364.027,5.48064
696.6498,365.916,5.48199
708.0498,367.804,5.48198
719.4498,369.685,5.48198
730.8498,371.57,5.48198
742.2498,373.449,5.48153
753.6498,375.334,5.48221
765.0498,377.217,5.48355
776.4498,379.094,5.48153
787.8498,380.976,5.48254
799.2498,382.863,5.48287
810.6498,384.744,5.47573
822.0498,386.635,5.49886
833.4498,388.527,5.48925
844.8498,390.421,5.48556
856.2498,392.324,5.4841
867.6498,394.227,5.48545
879.0498,396.137,5.48545
890.4498,398.048,5.48511
901.8498,399.965,5.4841
913.2498,401.88,5.48511
924.6498,403.797,5.48377
936.0498,405.712,5.48377
947.4498,407.627,5.48176
958.8498,409.543,5.47371
970.2498,411.456,5.47874
981.6498,413.369,5.4774
993.0498,415.282,5.47874
1004.45,417.196,5.47717
1015.85,419.108,5.47583
1027.25,421.019,5.47684
1038.65,422.931,5.47449
1050.05,424.847,5.47382
1061.45,426.754,5.47248
1072.85,428.663,5.47114
1084.25,430.569,5.46935
1095.65,432.472,5.47069
1107.05,434.373,5.46935
1118.45,436.273,5.47069
1129.85,438.169,5.46701
1141.25,440.066,5.46835
1152.65,441.964,5.467
1164.05,443.859,5.46465
1175.45,445.757,5.467
1186.85,447.651,5.46566
1198.25,449.545,5.46432
1209.65,451.442,5.46163
1221.05,453.334,5.45895
1232.45,455.226,5.46309
1243.85,457.12,5.46063
1255.25,459.014,5.45761
1266.65,460.909,5.45627
1278.05,462.808,5.45593
1289.45,464.699,5.45459
1300.85,466.596,5.45459
1312.25,468.492,5.45325
1323.65,470.389,5.4546
1335.05,472.288,5.45158
1346.45,474.186,5.45023
1357.85,476.083,5.45057
1369.25,477.986,5.44889
1380.65,479.882,5.45023
1392.05,481.781,5.44922
1403.45,483.68,5.44889
1414.85,485.581,5.44889
1426.25,487.479,5.44621
1437.65,489.377,5.44353
1449.05,491.273,5.44856
1460.45,493.162,5.44957
1471.85,495.063,5.44945
1483.25,496.956,5.44677
1494.65,498.851,5.44297
1506.05,500.744,5.44029
1517.45,502.634,5.44028
1528.85,504.527,5.44207
1540.25,506.423,5.44073
1551.65,508.317,5.44029
1563.05,510.216,5.44029
1574.45,512.111,5.44029
1585.85,514.01,5.4376
1597.25,515.908,5.43625
1608.65,517.81,5.4376
1620.05,519.708,5.43626
1631.45,521.606,5.43491
1642.85,523.501,5.43492
1654.25,525.398,5.43089
1665.65,527.295,5.43189
1677.05,529.187,5.43167
1688.45,531.086,5.42899
1699.85,532.979,5.42531
1711.25,534.876,5.42463
1722.65,536.776,5.42228
1734.05,538.678,5.41792
1745.45,540.586,5.4149
1756.85,542.497,5.40987
1768.25,544.415,5.40507
1779.65,546.325,5.39546
1791.05,548.239,5.38684
1802.45,550.148,5.37667
1813.85,552.058,5.36326
1825.25,553.966,5.34749
1836.65,555.875,5.32759
1848.05,557.776,5.30748
1859.45,559.677,5.28064
1870.85,561.582,5.2509
1882.25,563.48,5.21759
1893.65,565.383,5.17723
1905.05,567.279,5.13185
1916.45,569.176,5.08042
1927.85,571.072,5.02218
1939.25,572.966,4.95958
1950.65,574.859,4.88758
1962.05,576.757,4.80642
1973.45,578.663,4.71654
1984.85,580.571,4.6242
1996.25,582.486,4.52269
2007.65,584.398,4.4194
2019.05,586.307,4.30839
2030.45,588.221,4.19749
2041.85,590.134,4.08693
2053.25,592.049,3.97434
2064.65,593.962,3.86199
2076.05,595.873,3.75433
2087.45,597.78,3.64668
2098.85,599.687,3.54003
2110.25,601.591,3.43617
2121.65,603.492,3.33679
2133.05,605.389,3.23987
2144.45,607.287,3.14105
2155.85,609.178,3.0516
2167.25,611.06,2.96407
2178.65,612.949,2.87609
2190.05,614.833,2.78979
2201.45,616.718,2.70192
2212.85,618.61,2.61652
2224.25,620.506,2.532
2235.65,622.409,2.44111
2247.05,624.326,2.34956
2258.45,626.253,2.25789
2269.85,628.181,2.16879
2281.25,630.131,2.07276
2292.65,632.089,1.97673
2304.05,634.051,1.88148
2315.45,636.025,1.77662
2326.85,637.983,1.67779
2338.25,639.94,1.5736
2349.65,641.886,1.47086
2361.05,643.805,1.36599
2372.45,645.697,1.26191
2383.85,647.551,1.15716
2395.25,649.375,1.0608
2406.65,651.156,0.967234
2418.05,652.937,0.879033
2429.45,654.718,0.785463
2440.85,656.471,0.704082
2452.25,658.196,0.627722
2463.65,659.94,0.558182
2475.05,661.693,0.494352
2486.45,663.462,0.436662
2497.85,665.246,0.388261
2509.25,667.057,0.344881
2520.65,668.895,0.308661
2532.05,670.759,0.277581
2543.45,672.652,0.249971
2554.85,674.568,0.227501
2566.25,676.512,0.211181
2577.65,678.475,0.193521
2589.05,680.448,0.179431
2600.45,682.434,0.166461
2611.85,684.423,0.159981
2623.25,686.41,0.151041
2634.65,688.403,0.144221
2646.05,690.389,0.13841
2657.45,692.361,0.135721
2668.85,694.324,0.13025
2680.25,696.274,0.127561
2691.65,698.21,0.124881
2703.05,700.14,0.12353
2714.45,702.057,0.122531
2725.85,703.967,0.12219
2737.25,705.869,0.12085
2748.65,707.766,0.12353
2760.05,709.66,0.122871
2771.45,711.55,0.12153
2782.85,713.44,0.11951
2794.25,715.329,0.12219
2805.65,717.214,0.12219
2817.05,719.102,0.12152
2828.45,720.992,0.11951
2839.85,722.883,0.12085
2851.25,724.772,0.12152
2862.65,726.667,0.11884
2874.05,728.562,0.121191
2885.45,730.461,0.11951
2896.85,732.357,0.12085
2908.25,734.26,0.11805
2919.65,736.16,0.119401
2931.05,738.061,0.1184
2942.45,739.964,0.11661
2953.85,741.868,0.11795
2965.25,743.772,0.117941
2976.65,745.678,0.117941
2988.05,747.582,0.119281
2999.45,749.482,0.11895
3010.85,751.386,0.116601
3022.25,753.285,0.11728
3033.65,755.181,0.11728
3045.05,757.083,0.11661
3056.45,758.98,0.11661
3067.85,760.874,0.116601
3079.25,762.77,0.117941
3090.65,764.661,0.11895
3102.05,766.554,0.118611
3113.45,768.449,0.117941
3124.85,770.344,0.11761
3136.25,772.24,0.11761
3147.65,774.142,0.11761
3159.05,776.039,0.116601
3170.45,777.937,0.116601
3181.85,779.83,0.11929
3193.25,781.727,0.11693
3204.65,783.632,0.11828
3216.05,785.546,0.11862
3227.45,787.479,0.11828
3238.85,789.423,0.11862
3250.25,791.372,0.11828
3261.65,793.321,0.11895
3273.05,795.262,0.11627
3284.45,797.2,0.11761
3295.85,799.122,0.1176
3307.25,801.031,0.11761
3318.65,802.934,0.11761
3330.05,804.819,0.11761
3341.45,806.695,0.11761
3352.85,808.567,0.11761
3364.25,810.442,0.11582
3375.65,812.306,0.11716
3387.05,814.173,0.11716
3398.45,816.043,0.118511
3409.85,817.918,0.117171
3421.25,819.8,0.117171
3432.65,821.683,0.11716
3436.85,822.381,0.11716

File: TIFP_TGA_N2_10K_2.csv
Time,Temperature,Mass
[s],[K],[mg]
0,300.631,5.3668
22.8,300.59,5.36479
45.6,300.535,5.36211
68.4,300.46,5.35842
91.2,300.376,5.35573
114,300.29,5.3554
136.8,300.198,5.35406
159.6,300.11,5.35407
182.4,300.045,5.35506
205.2,300.002,5.35708
228,299.981,5.35876
250.8,299.992,5.36144
273.6,300.007,5.36379
296.4,300.032,5.36424
309,300.044,5.36558
320.4,300.1,5.36423
331.8,300.27,5.36569
343.2,300.636,5.3629
354.6,301.261,5.36669
366,302.201,5.36591
377.4,303.5,5.36255
388.8,305.148,5.36524
400.2,307.13,5.36256
411.6,309.409,5.36591
423,311.924,5.36413
434.4,314.604,5.36334
445.8,317.391,5.36267
457.2,320.225,5.36289
468.6,323.06,5.36244
480,325.843,5.36267
491.4,328.55,5.36267
502.8,331.168,5.35999
514.2,333.679,5.36166
525.6,336.085,5.36155
537,338.391,5.36245
548.4,340.612,5.36156
559.8,342.751,5.36021
571.2,344.823,5.36289
582.6,346.842,5.35954
594,348.813,5.3629
605.4,350.756,5.3629
616.8,352.681,5.3629
628.2,354.59,5.3629
639.6,356.489,5.36088
651,358.379,5.36021
662.4,360.272,5.36021
673.8,362.159,5.3592
685.2,364.046,5.35988
696.6,365.93,5.36122
708,367.812,5.35987
719.4,369.695,5.36043
730.8,371.58,5.3611
742.2,373.46,5.35831
753.6,375.339,5.363
765,377.221,5.36379
776.4,379.1,5.35909
787.8,380.983,5.35775
799.2,382.865,5.35909
810.6,384.751,5.35228
822,386.643,5.37552
833.4,388.533,5.36737
844.8,390.432,5.362
856.2,392.335,5.36222
867.6,394.24,5.35954
879,396.146,5.36088
890.4,398.057,5.36054
901.8,399.963,5.35976
913.2,401.881,5.36077
924.6,403.799,5.35809
936,405.716,5.35953
947.4,407.637,5.35685
958.8,409.552,5.34847
970.2,411.467,5.35216
981.6,413.378,5.35082
993,415.292,5.35216
1004.4,417.207,5.35193
1015.8,419.113,5.34925
1027.2,421.02,5.34892
1038.6,422.929,5.34724
1050,424.835,5.34657
1061.4,426.74,5.34389
1072.8,428.648,5.3449
1084.2,430.548,5.34177
1095.6,432.452,5.34177
1107,434.351,5.3411
1118.4,436.255,5.34244
1129.8,438.154,5.33976
1141.2,440.051,5.34009
1152.6,441.949,5.33762
1164,443.848,5.33494
1175.4,445.743,5.33762
1186.8,447.637,5.33628
1198.2,449.532,5.33226
1209.6,451.43,5.3336
1221,453.32,5.33092
1232.4,455.218,5.33092
1243.8,457.112,5.33047
1255.2,459.003,5.32779
1266.6,460.9,5.32276
1278,462.793,5.32343
1289.4,464.687,5.32477
1300.8,466.584,5.32209
1312.2,468.477,5.32309
1323.6,470.374,5.32276
1335,472.274,5.32142
1346.4,474.175,5.31873
1357.8,476.076,5.31907
1369.2,477.981,5.31873
1380.6,479.883,5.31739
1392,481.784,5.31739
1403.4,483.69,5.31471
1414.8,485.597,5.31348
1426.2,487.501,5.31214
1437.6,489.399,5.31315
1449,491.295,5.31684
1460.4,493.193,5.31684
1471.8,495.086,5.31684
1483.2,496.979,5.31416
1494.6,498.876,5.30767
1506,500.765,5.30633
1517.4,502.662,5.30498
1528.8,504.552,5.30677
1540.2,506.446,5.30834
1551.6,508.342,5.30499
1563,510.233,5.30499
1574.4,512.13,5.30465
1585.8,514.031,5.30331
1597.2,515.929,5.30196
1608.6,517.827,5.30331
1620,519.728,5.30197
1631.4,521.628,5.29794
1642.8,523.531,5.29929
1654.2,525.433,5.29525
1665.6,527.333,5.29391
1677,529.23,5.29369
1688.4,531.13,5.29235
1699.8,533.028,5.28867
1711.2,534.923,5.28698
1722.6,536.818,5.2843
1734,538.72,5.28016
1745.4,540.615,5.27614
1756.8,542.515,5.27077
1768.2,544.412,5.2634
1779.6,546.308,5.25837
1791,548.206,5.24909
1802.4,550.105,5.23958
1813.8,552.005,5.22572
1825.2,553.907,5.21365
1836.6,555.809,5.19531
1848,557.712,5.17452
1859.4,559.617,5.15171
1870.8,561.52,5.12813
1882.2,563.423,5.09682
1893.6,565.326,5.06049
1905,567.229,5.02103
1916.4,569.13,4.97799
1927.8,571.033,4.92712
1939.2,572.933,4.8719
1950.6,574.835,4.81086
1962,576.735,4.73942
1973.4,578.635,4.66206
1984.8,580.532,4.58192
1996.2,582.431,4.49136
2007.6,584.332,4.39689
2019,586.234,4.29561
2030.4,588.135,4.19031
2041.8,590.042,4.08511
2053.2,591.945,3.97544
2064.6,593.857,3.86499
2076,595.776,3.75521
2087.4,597.707,3.64778
2098.8,599.651,3.53777
2110.2,601.601,3.43291
2121.6,603.555,3.32906
2133,605.518,3.22867
2144.4,607.477,3.1275
2155.8,609.43,3.03459
2167.2,611.38,2.93879
2178.6,613.319,2.84924
2190,615.242,2.75925
2201.4,617.155,2.66871
2212.8,619.06,2.58163
2224.2,620.954,2.49577
2235.6,622.842,2.40421
2247,624.735,2.31321
2258.4,626.625,2.22512
2269.8,628.506,2.13401
2281.2,630.397,2.04178
2292.6,632.285,1.94642
2304,634.169,1.85195
2315.4,636.055,1.75548
2326.8,637.938,1.65598
2338.2,639.814,1.55492
2349.6,641.709,1.45632
2361,643.592,1.35057
2372.4,645.468,1.24615
2383.8,647.32,1.14252
2395.2,649.175,1.04023
2406.6,651.003,0.937608
2418,652.789,0.844258
2429.4,654.572,0.752148
2440.8,656.354,0.664499
2452.2,658.133,0.584229
2463.6,659.919,0.507539
2475,661.684,0.434099
2486.4,663.443,0.372719
2497.8,665.209,0.31593
2509.2,666.987,0.27009
2520.6,668.788,0.2275
2532,670.62,0.194969
2543.4,672.48,0.16713
2554.8,674.372,0.14198
2566.2,676.295,0.12096
2577.6,678.251,0.10263
2589,680.224,0.0896599
2600.4,682.215,0.07847979
2611.8,684.222,0.0672997
2623.2,686.228,0.06026004
2634.6,688.241,0.0532199
2646,690.249,0.0450597
2657.4,692.25,0.0409197
2668.8,694.237,0.03824006
2680.2,696.21,0.0319797
2691.6,698.168,0.0309702
2703,700.11,0.0296301
2714.4,702.039,0.0296301
2725.8,703.949,0.0296301
2737.2,705.859,0.02829
2748.6,707.747,0.02829
2760,709.633,0.0287398
2771.4,711.508,0.02807
2782.8,713.386,0.0263902
2794.2,715.261,0.0277297
2805.6,717.148,0.0277297
2817,719.049,0.0284
2828.4,720.958,0.0277297
2839.8,722.881,0.0277297
2851.2,724.81,0.0284
2862.6,726.732,0.0263902
2874,728.655,0.02739
2885.4,730.568,0.02638
2896.8,732.476,0.0267197
2908.2,734.374,0.0253801
2919.6,736.277,0.0253801
2931,738.164,0.0260601
2942.4,740.056,0.0245998
2953.8,741.942,0.0242601
2965.2,743.828,0.0258299
2976.6,745.713,0.02303
2988,747.597,0.0270497
2999.4,749.481,0.0270497
3010.8,751.37,0.02303
3022.2,753.26,0.0257199
3033.6,755.153,0.0243798
3045,757.047,0.0230402
3056.4,758.944,0.0230402
3067.8,760.844,0.02303
3079.2,762.753,0.0270599
3090.6,764.662,0.0270497
3102,766.57,0.0257102
3113.4,768.475,0.0243701
3124.8,770.388,0.0227
3136.2,772.297,0.0260499
3147.6,774.205,0.0252701
3159,776.107,0.02829
3170.4,778.007,0.0269499
3181.8,779.913,0.0269499
3193.2,781.819,0.0245901
3204.6,783.724,0.0266102
3216,785.627,0.02728
3227.4,787.531,0.0269499
3238.8,789.436,0.02728
3250.2,791.337,0.02728
3261.6,793.236,0.0259399
3273,795.138,0.0245998
3284.4,797.04,0.0249299
3295.8,798.94,0.0257102
3307.2,800.858,0.0260601
3318.6,802.763,0.0270599
3330,804.668,0.0258299
3341.4,806.574,0.0251601
3352.8,808.475,0.0258299
3364.2,810.37,0.0221402
3375.6,812.27,0.02615993
3387,814.165,0.02750002
3398.4,816.061,0.0275102
3409.8,817.95,0.0275102
3421.2,819.838,0.0261701
3432.6,821.727,0.02615993
3436.8,822.421,0.02481984