Folder: matl-db/Non-charring/PMMA/TIFP

Note: README.md
# matl-db
#### Welcome to the MaCFP Condensed Phase Subgroup database!

The MaCFP Condensed Phase Working Group was organized to enable the fire safety science research community to make significant progress towards establishing a common framework for the selection of experiments and the methodologies used to analyze these experiments when developing pyrolysis models. Key objectives of this effort include:
- Cataloguing current approaches used to parameterize pyrolysis models;
- Developing standard data set formats for experimental data on pyrolysis;
- Developing requirements for data set quality and establishing a data review committee;
- Quantifying the inter-laboratory variability for comparable experimental datasets; and
- Assessing the impact of the variability of model parameters on fire growth predictions

#### In preparation for MaCFP-4, please read the following:

[Guidelines for Participation in the MaCFP-4 Workshop (2026)](https://github.com/MaCFP/macfp-db/releases/download/macfp-4.0/MaCFP-4_Guidelines_for_Participation.pdf)

[Presentation of Target Experiments and Modeling Guidelines for the upcoming MaCFP-4 Workshop (meeting recording and presentation slides)](https://github.com/MaCFP/macfp-db/releases/tag/macfp-4.0)

Please visit our [wiki pages](https://github.com/MaCFP/matl-db/wiki/How-to-Contribute) for additional details, including how to contribute (experimentalists and modelers).

#### Presentations for previous MaCFP workshops can be found on online:

[**MaCFP-3 (Tsukuba, 2023)**](https://github.com/MaCFP/macfp-db/releases/tag/macfp-3.0)

[**MaCFP-2 (Waterloo, 2021)**](https://github.com/MaCFP/matl-db/releases/tag/v1.1.0)

[MaCFP-2 Preliminary Summary of Experimental Measurements](https://github.com/MaCFP/matl-db/releases/tag/v1.0.0)


#### Virtual Discusion Forum
If you have questions regarding any of the activities or measurement data of the MaCFP Condensed Subgroup, please [start a discussion post](https://github.com/MaCFP/matl-db/discussions). The purpose of this forum is to facilitate data sharing and model development to improve computational predictions of thermal degradation and pyrolysis in fire.

If you find problems with the database or if you have suggestions for improvement, please submit an [Issue](https://github.com/MaCFP/matl-db/issues).

File: TIFP_Cone_25_3.csv
Time,mass,HRR,Back surface temperature 1,Back surface temperature 2
s,g,kW/m2,K,K
0,69.88,-1.03571,299.15,299.45
4,70.1129,-0.833333,299.05,299.35
8,69.7776,-0.309524,298.85,299.05
12,69.6676,-0.583333,298.85,299.05
16,69.598,0.25,298.95,299.15
20,69.6149,1.65476,299.35,299.55
24,69.5419,0.607143,300.35,300.45
28,69.5276,-0.77381,302.95,302.35
32,69.5038,-0.690476,305.25,304.85
36,69.4872,2.15476,307.95,307.25
40,69.5145,2.85714,310.95,309.95
44,69.4755,4.05952,314.25,312.95
48,69.5071,3.47619,317.85,316.05
52,69.4777,1.95238,321.55,319.25
56,69.4949,2.91667,325.35,322.55
60,69.4734,4.35714,329.25,326.05
64,69.4874,5.09524,333.35,329.55
68,69.4988,5.2619,337.35,333.05
72,69.5689,3.64286,342.75,336.65
76,69.6217,3.02381,346.85,340.15
80,69.6214,2.05952,350.75,343.75
84,69.6705,7.09524,354.85,348.65
88,69.7006,7.39286,358.75,352.35
92,69.7403,4.90476,362.55,355.95
96,69.7356,0.75,366.25,359.55
100,69.6934,38.2857,369.95,363.05
104,69.5941,132.738,373.35,366.55
108,69.3114,226.667,376.85,369.85
112,68.9108,286.476,380.15,373.15
116,68.4161,313,383.45,376.35
120,67.9969,321.75,386.55,379.45
124,67.5863,343.048,389.85,382.45
128,67.1819,346.036,393.35,385.55
132,66.7961,352.619,396.85,388.45
136,66.286,362.643,400.55,391.25
140,65.7509,367.786,404.15,394.45
144,65.2641,366.774,407.75,397.95
148,64.759,367.048,411.25,401.45
152,64.2541,365.869,414.75,404.95
156,63.7529,364.381,418.25,408.35
160,63.2189,371.833,421.65,411.85
164,62.7122,373.286,426.15,415.35
168,62.2273,387.643,429.55,418.65
172,61.6293,384.893,432.95,423.35
176,61.1663,386.25,436.55,426.55
180,60.61,384.131,440.05,429.95
184,60.0634,395.036,443.45,433.25
188,59.5292,398.321,447.05,436.65
192,58.9893,379.095,450.55,440.05
196,58.4656,391.786,453.95,443.15
200,57.9078,397.238,457.35,446.35
204,57.3625,398.048,460.75,449.55
208,56.8098,402.667,463.85,452.65
212,56.2497,411.119,467.15,455.45
216,55.6747,409.464,469.85,456.95
220,55.1196,411.262,472.55,457.55
224,54.5216,404.869,475.55,460.65
228,53.9589,406.464,478.15,463.75
232,53.3205,412.345,480.75,467.05
236,52.7481,420.131,482.85,470.35
240,52.0907,428.476,486.75,474.25
244,51.4529,456.488,488.85,481.15
248,50.7684,458.202,485.25,485.85
252,50.1096,452.679,489.15,489.75
256,49.4539,449.857,492.15,492.35
260,48.7665,463.488,495.55,493.25
264,48.3504,477.048,497.65,497.55
268,47.6962,474.155,499.65,498.75
272,46.8847,467.762,503.95,501.05
276,46.1904,489.75,508.45,503.25
280,45.6378,487.333,513.05,505.95
284,44.9464,498.762,517.65,511.05
288,44.4694,492.845,522.25,513.15
292,43.7628,518.452,525.65,515.95
296,43.0669,513.298,529.85,519.45
300,42.3088,513.714,532.15,523.85
304,41.6152,508.476,535.65,527.75
308,40.9077,506.619,540.15,535.05
312,40.2049,510.619,544.35,542.65
316,39.4467,507.869,548.05,552.55
320,38.7031,524.286,552.25,556.15
324,37.9591,506.381,558.65,559.45
328,37.1755,506.548,565.95,562.05
332,36.4731,539.214,572.05,564.95
336,35.7728,521.94,580.25,567.65
340,35.2322,524.56,588.15,570.35
344,34.5677,518.286,586.45,572.95
348,33.7311,528.905,584.35,574.85
352,33.1338,528.702,589.35,575.55
356,32.3365,522.155,593.05,575.35
360,31.571,547.952,597.05,578.25
364,30.8354,535.726,600.35,581.25
368,30.1168,535.131,607.35,584.25
372,29.3465,537.726,613.25,587.55
376,28.5991,534.75,618.05,590.65
380,27.8232,542.143,623.15,594.05
384,27.2034,556.595,626.75,597.85
388,26.3056,541.298,631.05,601.45
392,25.5933,521.857,636.45,605.35
396,25.2001,545.429,643.35,608.85
400,24.4717,534.988,652.85,613.55
404,23.6878,550.774,,
408,22.9166,528.452,,
412,22.1257,550.69,,
416,21.3839,543.155,,
420,20.656,529.107,,
424,19.9333,533.619,,
428,19.1373,537.321,,
432,18.3877,544.619,,
436,17.6914,498.405,,
440,17.0264,462.31,,
444,16.3865,422.5,,
448,15.8562,383.381,,
452,15.3205,331.274,,
456,14.8625,308.56,,
460,14.4571,268.619,,
464,14.0887,243.81,,
468,13.7407,225.488,,
472,13.4678,209.095,,
476,13.1817,193,,
480,12.9366,186.417,,
484,12.6709,178.798,,
488,12.4287,175.798,,
492,12.1617,172.44,,
496,11.9513,169.298,,
500,11.7166,166.155,,
504,11.5025,165.607,,
508,11.2637,160.75,,
512,11.0596,161.024,,
516,10.8694,150.536,,
520,10.6395,154.071,,
524,10.4137,155.905,,
528,10.1861,154.119,,
532,9.9846,152.905,,
536,9.7811,148.548,,
540,9.5743,147.071,,
544,9.3707,142.107,,
548,9.1746,133.405,,
552,9.0071,123.488,,
556,8.8318,121.393,,
560,8.6673,116.857,,
564,8.5278,111.548,,
568,8.3899,108.75,,
572,8.25,104.929,,
576,8.0941,106.071,,
580,7.93,104.94,,
584,7.7822,101.333,,
588,7.6478,100.81,,
592,7.5022,104.048,,
596,7.3721,102.964,,
600,7.2188,101.869,,
604,7.0909,100.214,,
608,6.9416,102.012,,
612,6.7957,102.226,,
616,6.6482,100.512,,
620,6.5194,100.286,,
624,6.4079,99.9167,,
628,6.2622,96.0476,,
632,6.1374,97.0357,,
636,5.9965,99.7738,,
640,5.8794,99.7381,,
644,5.715,98.0952,,
648,5.5408,101.25,,
652,5.4247,99.2857,,
656,5.2986,95.6548,,
660,5.1692,94.2619,,
664,5.0512,89.2857,,
668,4.9138,85.1667,,
672,4.7858,87.9643,,
676,4.6752,86.2857,,
680,4.5587,83.1429,,
684,4.4244,80.2381,,
688,4.367,79.6071,,
692,4.2255,77.0595,,
696,4.1073,77.6548,,
700,4.0567,76.9048,,
704,3.9482,73.9167,,
708,3.8723,72.869,,
712,3.7696,68.25,,
716,3.6796,65.0119,,
720,3.571,60.7024,,
724,3.5122,57.3095,,
728,3.4233,56.6905,,
732,3.3686,57.0357,,
736,3.2877,51.131,,
740,3.2356,48,,
744,3.1763,44.75,,
748,3.1248,42.4643,,
752,3.0873,40.2619,,
756,3.0195,38.2024,,
760,2.9702,37.119,,
764,2.934,38.7738,,
768,2.9282,37.5833,,
772,2.8367,37.119,,
776,2.8045,37.2262,,
780,2.7148,35.8929,,
784,2.6979,33.7738,,
788,2.6504,32.0476,,
792,2.6027,30.25,,
796,2.5386,30.0595,,
800,2.5018,29.3214,,
804,2.4716,27.2857,,
808,2.4462,24.9881,,
812,2.4083,24.9167,,
816,2.3973,23.4524,,
820,2.3455,20.6786,,
824,2.3368,19.8571,,
828,2.3207,19.5,,
832,2.2804,21.4643,,
836,2.2696,21.4524,,
840,2.2422,19.4286,,
844,2.2395,18.7619,,
848,2.2126,17.1667,,
852,2.2025,16.7619,,
856,2.1732,16.6667,,
860,2.1584,17.2024,,
864,2.1485,17.9405,,
868,2.142,19.369,,
872,2.1123,17.5,,
876,2.0931,15.7976,,
880,2.0701,14.5476,,
884,2.0571,14.4881,,
888,2.05,13.1905,,
892,2.0296,13.0714,,
896,1.9696,11.2976,,
900,1.9615,11.2024,,
904,1.9371,13.1667,,
908,1.9212,13.5952,,
912,1.9057,14.4881,,
916,1.8521,15.0238,,
920,1.8249,13.2262,,
924,1.8224,11.5952,,
928,1.8181,9.66667,,
932,1.8104,8.2619,,
936,1.7946,6.96429,,
940,1.7916,6.95238,,
944,1.8014,6.41667,,
948,1.784,5.21429,,
952,1.7421,5.80952,,
956,1.7836,6.60714,,
960,1.7517,6.39286,,
964,1.7714,4.35714,,
968,1.7321,5.03571,,
972,1.7164,4.4881,,
976,1.7034,4.25,,
980,1.6886,5.32143,,
984,1.69,5.54762,,
988,1.6916,4.19048,,
992,1.6638,3.52381,,
996,1.6561,4.94048,,
1000,1.655,4.35714,,

File: TIFP_Cone_65_1.csv
Time,mass,HRR,Back surface temperature 1,Back surface temperature 2
s,g,kW/m2,K,K
0,69.9,0.595238,299.25,299.55
2,69.9043,-0.0714286,299.25,299.25
4,69.7088,-0.345238,299.25,299.25
6,69.6822,0.857143,299.25,299.15
8,69.6274,1.5119,299.25,299.05
10,69.4814,0.416667,299.15,298.85
12,69.5695,-6,299.15,298.75
14,69.7398,14.0238,299.25,298.85
16,69.6233,128.702,299.45,298.95
18,69.6762,301.5,301.05,299.55
20,69.4209,420.262,301.65,300.95
22,69.1857,506.845,303.25,302.25
24,68.7574,534.905,304.15,303.05
26,68.3792,564.417,306.35,304.85
28,67.8204,623.798,307.65,305.85
30,67.3954,700.226,310.45,308.15
32,67.0076,713.417,311.95,309.45
34,66.0807,725.917,315.15,312.05
36,65.5318,695.119,316.95,313.45
38,65.0119,696.607,320.55,316.65
40,64.4353,712.464,324.55,318.35
42,63.9218,710.238,326.45,321.75
44,63.367,769.333,330.65,323.55
46,62.8231,746.381,332.65,327.35
48,62.3639,731.012,336.95,329.45
50,61.8187,765.798,339.25,333.25
52,61.3142,767.583,343.55,337.55
54,60.7156,731.571,345.85,339.55
56,60.216,743.655,350.15,343.65
58,59.6492,762.155,352.65,345.85
60,59.1651,780.976,357.15,350.25
62,58.5876,779.464,353.65,358.85
64,58.0542,747.333,362.15,359.05
66,57.5176,738.464,366.25,360.25
68,56.9629,746,369.95,363.05
70,56.4303,757.131,381.75,365.35
72,55.8604,783.167,396.05,369.45
74,55.3297,775.702,402.75,371.85
76,54.8198,769.857,402.75,375.95
78,54.2492,809.655,408.45,377.95
80,53.7089,775.607,408.45,382.05
82,53.1137,830.762,404.75,384.25
84,52.5066,815.155,396.55,388.25
86,51.8309,807.286,401.25,392.15
88,51.2027,799.476,403.45,393.95
90,50.5969,810.631,407.55,395.75
92,50.0552,794.19,409.45,399.95
94,49.4577,842.631,413.55,402.35
96,48.914,822.524,415.55,406.65
98,48.3294,837.643,419.45,410.95
100,47.7535,804.393,421.55,412.95
102,47.1215,806.952,425.85,417.25
104,46.5856,815.083,427.95,419.25
106,46.0134,836.964,432.05,423.65
108,45.4189,856.786,434.65,425.75
110,44.8132,874.595,439.45,430.15
112,44.2044,803.774,442.05,432.75
114,43.5822,847.81,451.25,437.55
116,42.954,852.595,453.75,439.85
118,42.3405,844.381,459.45,445.05
120,41.7286,877.976,462.25,447.35
122,41.082,926.238,468.35,452.75
124,40.467,885.643,471.45,455.05
126,39.8372,871.262,477.25,460.35
128,39.1935,947.536,483.55,463.75
130,38.5393,866.94,486.45,469.75
132,37.859,940.726,493.05,472.75
134,37.2015,972.298,496.25,479.15
136,36.5303,942.821,503.15,485.15
138,35.8657,905.393,506.85,487.85
140,35.7078,972.714,513.65,494.25
142,35.0474,1001.87,517.65,497.85
144,34.2842,1012.17,525.55,504.95
146,33.4711,1036.19,529.35,508.25
148,32.6329,1059.69,537.65,515.45
150,31.9336,1055.76,541.55,518.95
152,31.1665,1060.48,550.15,525.45
154,30.4421,1061.67,554.55,529.05
156,29.6066,1092.42,563.85,536.15
158,28.8394,1078.9,573.55,539.85
160,28.022,1050.75,577.55,546.65
162,27.1963,1137.07,,
164,26.4524,1107.48,,
166,25.5618,1102.54,,
168,24.679,1147.33,,
170,23.8624,1128.5,,
172,23.0084,1139.43,,
174,22.2341,1167.18,,
176,21.3913,1141.75,,
178,20.6605,1139.38,,
180,19.8445,1276.06,,
182,18.9641,1192.29,,
184,18.0792,1051.58,,
186,17.2186,1099.5,,
188,16.3973,1120.98,,
190,15.6119,1070.06,,
192,14.7462,945.56,,
194,13.769,906.524,,
196,13.0843,871.107,,
198,12.5106,763.06,,
200,12.0157,722.762,,
202,11.5402,625.548,,
204,11.1074,577.762,,
206,10.7972,512.952,,
208,10.3573,473.5,,
210,10.0411,449.893,,
212,9.7507,400.202,,
214,9.4228,376.179,,
216,9.1182,354.321,,
218,8.9392,330.429,,
220,8.7474,317.476,,
222,8.4464,312.381,,
224,8.321,290.857,,
226,8.1428,279.512,,
228,7.9057,265.381,,
230,7.711,264.702,,
232,7.5583,260.476,,
234,7.3369,252.738,,
236,7.2067,255.31,,
238,7.0773,247.94,,
240,6.8828,238.369,,
242,6.6667,235.595,,
244,6.516,227.048,,
246,6.4234,218.929,,
248,6.2454,214.333,,
250,6.0881,204.381,,
252,5.8845,203.429,,
254,5.7672,194.893,,
256,5.612,190.405,,
258,5.5334,191.798,,
260,5.3514,184.369,,
262,5.1673,182.488,,
264,5.0773,186.774,,
266,4.9404,184.012,,
268,4.83,184.274,,
270,4.6752,185,,
272,4.6132,187.5,,
274,4.6172,187.833,,
276,4.5011,181,,
278,4.3462,182.869,,
280,4.1438,181.381,,
282,4.1045,176.893,,
284,3.9077,186.024,,
286,3.8736,176.429,,
288,3.7337,176.964,,
290,3.6134,172.131,,
292,3.4528,170.464,,
294,3.2869,168.738,,
296,3.2294,169.976,,
298,3.0381,165.821,,
300,2.9018,164.833,,
302,2.8707,162.94,,
304,2.7684,164,,
306,2.5872,161.952,,
308,2.4937,161.583,,
310,2.418,163.798,,
312,2.2924,160.452,,
314,2.2075,157.286,,
316,2.0839,157,,
318,1.9092,152.238,,
320,1.8423,151.036,,
322,1.8291,147.952,,
324,1.6475,146.321,,
326,1.5302,138.643,,
328,1.4407,142.107,,
330,1.3847,138.917,,
332,1.2632,137.929,,
334,1.1734,132.738,,
336,1.0003,130.583,,
338,0.9115,127.452,,
340,0.8863,122.464,,
342,1.0942,122.31,,
344,1.1788,121.298,,
346,1.1831,121.548,,
348,1.285,117.94,,
350,2.2986,118.393,,
352,2.2001,113.131,,
354,2.0357,109.333,,
356,2.0657,107.929,,
358,1.9444,101.214,,
360,1.8433,97.7381,,
362,1.874,95.9643,,
364,1.7374,94.9048,,
366,1.5753,87.25,,
368,1.5319,89.3214,,
370,1.4478,86.5476,,
372,1.5705,82.4048,,
374,1.3569,80.2143,,
376,1.3443,79.0595,,
378,1.3578,75.4048,,
380,1.1959,73.0714,,
382,1.2978,69.369,,
384,1.1334,69.1071,,
386,0.96,63.7738,,
388,0.953,62.4643,,
390,1.0054,61.2381,,
392,0.9769,57.0714,,
394,0.3301,52.5714,,
396,-0.7718,48.369,,
398,-0.7874,42.9643,,
400,-0.7251,38.0357,,
402,-0.7823,34.7857,,
404,-0.8576,30.8571,,
406,-0.9378,29.2976,,
408,-0.8718,29.25,,
410,-0.891,27.4762,,
412,-0.8799,26.9524,,
414,-0.9135,25.7143,,
416,-0.9396,24.2976,,
418,-0.8928,24.8214,,
420,-0.9642,24.4643,,
422,-0.9304,24.2143,,
424,-0.9574,24.0238,,
426,-1.0657,22.5357,,
428,-1.0164,21.0476,,
430,-1.033,20.2024,,
432,-1.069,18.9048,,
434,-1.045,16.4762,,
436,-1.038,15.3571,,
438,-1.1054,13.0238,,
440,-1.0644,11.0357,,
442,-1.0748,10.1905,,
444,-1.0757,8.69048,,
446,-1.0852,7.52381,,
448,-1.1625,7.28571,,
450,-1.0876,5.78571,,
452,-1.0905,4.2619,,
454,-1.1549,4.5,,
456,-1.1667,3.70238,,
458,-1.0321,3.09524,,
460,-1.098,2.54762,,
462,-1.0944,0.761905,,
464,-1.1867,-1.57143,,
466,-1.1606,-3.22619,,
468,-1.1202,-4.40476,,
470,-1.0117,-4.40476,,
472,-1.0475,-4.04762,,
474,-1.1291,-5.2381,,
476,-1.1307,-5.46429,,
478,-1.1773,-5.30952,,
480,-1.1025,-4.59524,,
482,-1.071,-4.34524,,
484,-1.1649,-3.44048,,
486,-1.0823,-3.5119,,
488,-1.1343,-3.92857,,
490,-1.1942,-4.13095,,
492,-1.1966,-4.46429,,
494,-1.0859,-4.04762,,
496,-1.1754,-4.15476,,
498,-1.1225,-4.28571,,
500,-1.1473,-4.55952,,

File: TIFP_Cone_65kW_2.csv
Time,Mass,HRR
[s],[g],[kW/m2]
0,73.72,4.3929
2,73.729,2.491625
4,74.2367,2.8432
6,74.1644,6.2198
8,74.2548,8.10772
10,74.0172,6.42028
12,73.8667,-2.2749
14,73.6693,35.0581
16,73.551,148.565
18,73.45201,291.026
20,73.2342,435.121
22,72.9166,540.509
24,72.5189,594.695
26,72.0569,638.787
28,71.5393,653.666
30,71.0318,694.433
32,70.5048,709.56
34,70.0193,735.969
36,69.6726,755.736
38,69.126,751.941
40,68.553,771.322
42,67.9842,755.747
44,67.4341,808.624
46,66.91709,778.973
48,66.3288,757.356
50,65.804,763.92
52,65.2307,782.05
54,64.6793,794.531
56,64.1534,790.555
58,63.5995,792.38
60,63.02593,792.1
62,62.4459,782.075
64,61.8539,802.238
66,61.8014,782.11
68,61.528,876.95
70,60.8692,795.322
72,60.2541,807.62
74,59.6264,835.577
76,58.9971,806.462
78,58.3478,832.559
80,57.822,804.833
82,57.237,788.743
84,56.6279,791.669
86,56.0468,828.028
88,55.4503,771.498
90,55.1195,789.743
92,54.4512,813.148
94,53.7992,808.448
96,53.0904,819.887
98,52.9073,834.004
100,52.3318,814.072
102,51.6942,854.499
104,51.0866,905.93
106,50.51277,881.64
108,49.8927,831.043
110,49.2972,874.493
112,48.6665,829.441
114,48.0591,843.352
116,47.40824,857.263
118,47.4862,873.045
120,46.3014,874.858
122,45.6546,901.684
124,45.0435,919.36
126,44.3512,970.973
128,43.7682,863.457
130,43.2152,879.196
132,42.6295,890.222
134,41.9779,933.229
136,41.2978,1045.71
138,40.5962,984.332
140,39.9149,921.124
142,39.1724,948.687
144,38.426,961.5629
146,37.6892,991.01
148,36.9768,1047.56
150,36.6524,1089.69
152,35.8352,1049.03
154,34.9908,1024.3
156,34.1999,1057.6
158,33.3762,1068.65
160,32.5547,1115.21
162,31.827,1184.14
164,31.036,1161.73
166,30.1839,1068.81
168,29.5013,1108.36
170,28.6171,1116.87
172,27.8112,1092.85
174,27.0407,1175.67
176,26.3024,1110.3
178,25.50894,1206.85
180,24.78195,1182.78
182,24.7712,1141.63
184,23.91315,1161.66
186,23.0179,1216.43
188,22.2105,1198.6
190,21.238,1235.82
192,20.4257,1274.37
194,19.5108,1329.64
196,18.663,1155.05
198,17.7882,1100.779
200,17.0692,983.126
202,16.3167,908.673
204,15.7259,822.817
206,15.0937,769.101
208,14.62073,712.441
210,14.0547,624.892
212,13.6779,561.228
214,13.5057,523.064
216,13.3674,505.779
218,12.9829,453.173
220,12.6994,416.865
222,12.8866,388.63
224,12.724,377.225
226,12.4096,350.903
228,12.1646,317.636
230,11.86356,288.363
232,11.6476,275.113
234,11.3492,261.16
236,11.0196,247.363
238,10.6113,231.507
240,10.29072,216.667
242,9.996194,206.134
244,9.747805,198.529
246,9.488605,187.29
248,9.354451,180.548
250,9.311523,178.444
252,9.477529,180.111
254,9.496866,173.74
256,9.303919,165.221
258,9.142741,161.401
260,8.853336,163.586
262,8.738152,165.781
264,8.491421,163.083
266,8.720543,161.078
268,8.240835,164.249
270,8.41258,157.891
272,8.117866,160.29
274,7.738521,162.986
276,7.586334,158.078
278,7.407001,159.716
280,7.37489,157.309
282,7.346563,158.869
284,7.158734,158.446
286,6.911391,158.248
288,6.744546,162.745
290,6.513628,160.892
292,6.388443,160.67
294,6.313877,160.97
296,6.224365,158.887
298,6.180482,159.916
300,6.032751,165
302,6.028722,160.45
304,5.865691,166.12
306,5.833132,162.353
308,5.741547,162.22
310,5.746523,164.29
312,5.608211,161.383
314,5.536884,164.744
316,5.419936,165.7
318,5.32192,165.075
320,5.21353,167.632
322,5.140712,168.73
324,5.048111,166.99
326,4.928886,167.257
328,4.879534,167.631
330,4.718403,165.598
332,4.698382,164.903
334,4.537477,163.048
336,4.482051,160.698
338,4.330655,158.789
340,4.272542,160.449
342,4.142918,160.501
344,4.027901,156.712
346,3.878728,155.56
348,3.818634,157.931
350,3.838751,157.479
352,3.722552,154.2
354,3.658607,147.317
356,3.582535,147.659
358,3.484162,147.207
360,3.336476,142.312
362,3.207397,136.9
364,3.122796,130.162
366,3.130118,127.672
368,3.064191,122.441
370,2.967968,115.135
372,2.896869,106.402
374,2.847028,96.651
376,2.80063,85.0221
378,2.750342,78.2947
380,2.637446,69.965
382,2.587025,65.6384
384,2.521404,59.5464
386,2.481329,55.5965
388,2.396167,50.0414
390,2.34414,46.8208
392,2.289255,42.6427
394,2.199137,41.4072
396,2.158622,38.6223
398,2.099301,35.3474
400,2.082073,34.1985
402,2.040694,31.9611
404,2.038175,29.9369
406,1.994086,28.3526
408,1.988756,27.4367
410,1.866761,26.4862
412,1.894091,25.0095
414,1.893312,25.3772
416,1.909023,25.0124
418,1.873682,24.141
420,1.863474,22.9543
422,1.866941,21.3286
424,1.871254,21.375
426,1.912049,20.6795
428,1.882735,19.9122
430,1.882291,19.2759
432,1.889095,17.6397
434,1.846,16.6856
436,1.849214,16.395
438,1.835452,16.0752
440,1.838883,15.4791
442,1.835983,14.443
444,1.793643,13.8712
446,1.78523,13.0647
448,1.759627,12.9217
450,1.764554,11.7135
452,1.730848,11.036
454,1.694524,11.2946
456,1.644668,10.3062
458,1.626345,9.69363
460,1.608653,9.33493
462,1.590574,8.00913
464,1.618008,8.04221
466,1.61996,7.72072
468,1.582257,6.64745
470,1.522546,5.10704
472,1.530299,4.13909
474,1.577955,2.5707
476,1.530473,1.21804
478,1.451819,0.0972561
480,1.440777,-0.422862
482,1.412496,1.34668
484,1.495277,2.34953
486,1.536909,2.53643
488,1.519888,1.97685
490,1.524342,1.11092
492,1.500345,0.766349
494,1.513438,0.396389
496,1.487606,-0.021082
498,1.458788,-0.936239
500,1.481858,-0.539944