Folder: matl-db/Non-charring/PMMA/TIFP (part 4)

File: TIFP_TGA_N2_10K_4.csv
Time,Temperature,Mass
[s],[K],[mg]
0,300.339,5.1046
12,300.323,5.1073
24,300.365,5.1073
36,300.562,5.1074
48,301.006,5.1095
60,301.77,5.1108
72,302.903,5.1129
84,304.434,5.1134
96,306.356,5.1144
108,308.631,5.1156
120,311.195,5.1173
132,313.966,5.116
144,316.884,5.1187
156,319.859,5.1174
168,322.838,5.1191
180,325.774,5.1207
192,328.624,5.1193
204,331.371,5.1207
216,334.001,5.122
228,336.514,5.1247
240,338.921,5.1249
252,341.232,5.1263
264,343.462,5.1263
276,345.62,5.1289
288,347.728,5.1316
300,349.794,5.133
312,351.832,5.133
324,353.85,5.1343
336,355.856,5.1343
348,357.851,5.1357
360,359.846,5.136
372,361.834,5.1378
384,363.827,5.1401
396,365.812,5.1411
408,367.795,5.1408
420,369.778,5.1425
432,371.756,5.1416
444,373.737,5.1411
456,375.712,5.1438
468,377.693,5.1452
480,379.67,5.1452
492,381.65,5.1465
504,383.635,5.1452
516,385.626,5.1608
528,387.615,5.1592
540,389.612,5.1552
552,391.613,5.1509
564,393.618,5.1515
576,395.631,5.1519
588,397.639,5.1532
600,399.656,5.1532
612,401.674,5.1542
624,403.692,5.1532
636,405.715,5.1529
648,407.738,5.1529
660,409.764,5.1634
672,411.784,5.1499
684,413.809,5.1499
696,415.829,5.1499
708,417.848,5.1496
720,419.87,5.1496
732,421.883,5.1483
744,423.893,5.1483
756,425.906,5.1469
768,427.912,5.1446
780,429.916,5.1459
792,431.923,5.1442
804,433.92,5.1428
816,435.92,5.1415
828,437.914,5.1375
840,439.91,5.1368
852,441.904,5.1334
864,443.892,5.1307
876,445.886,5.1294
888,447.876,5.1254
900,449.866,5.1191
912,451.86,5.1154
924,453.85,5.1089
936,455.842,5.1069
948,457.831,5.0984
960,459.824,5.0898
972,461.811,5.0849
984,463.805,5.0804
996,465.797,5.0729
1008,467.789,5.0666
1020,469.786,5.0619
1032,471.779,5.0554
1044,473.776,5.0511
1056,475.775,5.0458
1068,477.769,5.0404
1080,479.766,5.0348
1092,481.76,5.0295
1104,483.753,5.0241
1116,485.748,5.0187
1128,487.737,5.0137
1140,489.731,5.0117
1152,491.727,5.0137
1164,493.722,5.0137
1176,495.714,5.0113
1188,497.713,5.0066
1200,499.704,5.0049
1212,501.703,5.0035
1224,503.697,5.0053
1236,505.696,5.004
1248,507.694,5.0053
1260,509.693,5.0025
1272,511.692,5.0028
1284,513.695,5.0022
1296,515.69,4.9995
1308,517.69,4.9998
1320,519.69,4.9998
1332,521.696,4.9985
1344,523.695,4.9981
1356,525.694,4.9958
1368,527.696,4.9948
1380,529.694,4.9932
1392,531.696,4.9912
1404,533.692,4.9895
1416,535.693,4.9872
1428,537.689,4.9858
1440,539.687,4.9818
1452,541.684,4.9778
1464,543.677,4.9768
1476,545.673,4.9721
1488,547.664,4.9676
1500,549.672,4.9623
1512,551.673,4.9568
1524,553.674,4.9514
1536,555.675,4.9458
1548,557.669,4.939
1560,559.664,4.9325
1572,561.662,4.924
1584,563.657,4.9151
1596,565.651,4.9046
1608,567.649,4.8954
1620,569.642,4.8823
1632,571.639,4.8734
1644,573.634,4.8605
1656,575.632,4.8497
1668,577.626,4.837
1680,579.619,4.8258
1692,581.617,4.8106
1704,583.616,4.7969
1716,585.617,4.7808
1728,587.609,4.7649
1740,589.605,4.7488
1752,591.602,4.7306
1764,593.595,4.7099
1776,595.588,4.6885
1788,597.587,4.6629
1800,599.587,4.636
1812,601.589,4.6066
1824,603.587,4.5745
1836,605.584,4.5368
1848,607.585,4.4918
1860,609.588,4.4456
1872,611.59,4.3907
1884,613.588,4.3329
1896,615.584,4.2671
1908,617.583,4.1972
1920,619.583,4.1153
1932,621.581,4.023
1944,623.592,3.9246
1956,625.594,3.8155
1968,627.594,3.6963
1980,629.592,3.5691
1992,631.583,3.4291
2004,633.572,3.2818
2016,635.557,3.1251
2028,637.533,2.9645
2040,639.51,2.8019
2052,641.487,2.6406
2064,643.468,2.4844
2076,645.495,2.3203
2088,647.494,2.1464
2100,649.489,1.9773
2112,651.481,1.8066
2124,653.476,1.6439
2136,655.473,1.4846
2148,657.472,1.3367
2160,659.473,1.1982
2172,661.468,1.0687
2184,663.46,0.952
2196,665.458,0.849
2208,667.461,0.7595
2220,669.461,0.6798
2232,671.479,0.6091
2244,673.496,0.5481
2256,675.505,0.4936
2268,677.515,0.4473
2280,679.52,0.4083
2292,681.519,0.3768
2304,683.517,0.3497
2316,685.507,0.331
2328,687.5,0.3137
2340,689.494,0.2994
2352,691.485,0.2879
2364,693.479,0.2765
2376,695.473,0.2683
2388,697.468,0.2619
2400,699.457,0.2591
2412,701.451,0.2551
2424,703.446,0.2508
2436,705.437,0.2481
2448,707.43,0.2446
2460,709.422,0.2441
2472,711.42,0.2447
2484,713.413,0.2427
2496,715.405,0.2444
2508,717.397,0.2447
2520,719.389,0.2457
2532,721.38,0.2451
2544,723.375,0.2464
2556,725.372,0.2471
2568,727.371,0.2457
2580,729.369,0.2457
2592,731.364,0.2471
2604,733.365,0.2471
2616,735.371,0.2471
2628,737.39,0.2474
2640,739.403,0.2471
2652,741.415,0.2498
2664,743.422,0.2498
2676,745.424,0.2498
2688,747.424,0.2514
2700,749.421,0.2508
2712,751.415,0.2498
2724,753.411,0.2524
2736,755.408,0.2511
2748,757.405,0.2534
2760,759.399,0.2521
2772,761.39,0.2561
2784,763.38,0.2555
2796,765.367,0.2568
2808,767.365,0.2568
2820,769.363,0.2578
2832,771.365,0.2575
2844,773.368,0.2578
2856,775.372,0.2588
2868,777.381,0.2588
2880,779.387,0.2602
2892,781.395,0.2612
2904,783.421,0.2632
2916,785.442,0.2608
2928,787.457,0.2618
2940,789.467,0.2632
2952,791.477,0.2632
2964,793.482,0.2632
2976,795.485,0.2615
2988,797.486,0.2642
3000,799.485,0.2645
3012,801.479,0.2641
3024,803.468,0.2641
3036,805.46,0.2681
3048,807.456,0.2667
3060,809.447,0.2681
3072,811.439,0.2681
3084,813.431,0.267
3096,815.426,0.2707
3108,817.428,0.2697
3120,819.438,0.2693
3132,821.443,0.2713
3135,821.949,0.2707

File: TIFP_TGA_N2_10K_7.csv
Time,Temperature,Mass
[s],[K],[mg]
0,300.13,5.6086
12,300.136,5.6087
24,300.205,5.6095
36,300.428,5.6099
48,300.899,5.6093
60,301.687,5.6117
72,302.842,5.6111
84,304.396,5.6113
96,306.339,5.6113
108,308.628,5.6122
120,311.207,5.6132
132,313.997,5.613
144,316.925,5.6122
156,319.912,5.6142
168,322.906,5.6123
180,325.846,5.6134
192,328.706,5.6135
204,331.452,5.6135
216,334.082,5.6135
228,336.595,5.6135
240,338.999,5.6125
252,341.296,5.6149
264,343.516,5.6149
276,345.665,5.6149
288,347.757,5.6152
300,349.812,5.6152
312,351.837,5.6162
324,353.847,5.6162
336,355.841,5.6162
348,357.831,5.6175
360,359.823,5.6175
372,361.807,5.6168
384,363.796,5.6188
396,365.787,5.6174
408,367.772,5.6184
420,369.759,5.6181
432,371.737,5.6189
444,373.721,5.6205
456,375.704,5.6205
468,377.687,5.6191
480,379.673,5.6198
492,381.654,5.6191
504,383.642,5.6198
516,385.63,5.6178
528,387.625,5.6178
540,389.622,5.6178
552,391.62,5.6191
564,393.624,5.6191
576,395.629,5.6178
588,397.64,5.6209
600,399.654,5.6165
612,401.669,5.6176
624,403.688,5.618
636,405.707,5.6177
648,407.732,5.6163
660,409.752,5.6176
672,411.775,5.617
684,413.797,5.6163
696,415.819,5.6136
708,417.843,5.6136
720,419.863,5.6136
732,421.877,5.6116
744,423.893,5.611
756,425.904,5.6086
768,427.913,5.6069
780,429.918,5.6049
792,431.923,5.6032
804,433.921,5.6026
816,435.919,5.5992
828,437.914,5.5969
840,439.907,5.5948
852,441.902,5.5912
864,443.894,5.5881
876,445.886,5.5838
888,447.883,5.5761
900,449.876,5.5724
912,451.874,5.5666
924,453.867,5.5585
936,455.862,5.5532
948,457.854,5.5465
960,459.847,5.5366
972,461.839,5.5296
984,463.829,5.5241
996,465.818,5.516
1008,467.813,5.5072
1020,469.803,5.5018
1032,471.794,5.4947
1044,473.784,5.4903
1056,475.778,5.4803
1068,477.775,5.4756
1080,479.769,5.4689
1092,481.765,5.4625
1104,483.758,5.4581
1116,485.75,5.4538
1128,487.745,5.4487
1140,489.739,5.4447
1152,491.736,5.442
1164,493.731,5.4407
1176,495.731,5.4366
1188,497.732,5.4352
1200,499.729,5.4325
1212,501.728,5.4312
1224,503.723,5.4302
1236,505.717,5.4285
1248,507.713,5.4285
1260,509.705,5.4272
1272,511.7,5.4265
1284,513.693,5.4245
1296,515.691,5.4231
1308,517.687,5.4235
1320,519.687,5.4211
1332,521.684,5.4198
1344,523.682,5.4178
1356,525.682,5.4171
1368,527.68,5.4143
1380,529.683,5.413
1392,531.68,5.4116
1404,533.681,5.4088
1416,535.679,5.4061
1428,537.677,5.402
1440,539.673,5.3987
1452,541.676,5.3966
1464,543.679,5.3913
1476,545.68,5.3848
1488,547.677,5.3818
1500,549.675,5.3771
1512,551.668,5.3716
1524,553.66,5.3648
1536,555.66,5.3553
1548,557.653,5.3497
1560,559.649,5.3397
1572,561.648,5.33
1584,563.639,5.3235
1596,565.635,5.3107
1608,567.63,5.3005
1620,569.629,5.2869
1632,571.622,5.2755
1644,573.62,5.2607
1656,575.614,5.2492
1668,577.609,5.234
1680,579.609,5.2219
1692,581.606,5.2057
1704,583.601,5.1901
1716,585.599,5.1714
1728,587.598,5.1584
1740,589.599,5.1365
1752,591.598,5.1181
1764,593.597,5.0968
1776,595.595,5.0728
1788,597.595,5.0458
1800,599.592,5.0157
1812,601.591,4.9839
1824,603.589,4.9469
1836,605.587,4.9073
1848,607.587,4.8628
1860,609.587,4.8076
1872,611.584,4.7554
1884,613.581,4.6897
1896,615.576,4.6198
1908,617.573,4.5395
1920,619.571,4.4521
1932,621.566,4.3561
1944,623.567,4.2472
1956,625.562,4.1321
1968,627.56,4.0024
1980,629.556,3.8639
1992,631.55,3.7133
2004,633.547,3.5499
2016,635.536,3.3833
2028,637.52,3.2071
2040,639.506,3.0287
2052,641.493,2.8542
2064,643.482,2.6781
2076,645.485,2.4978
2088,647.5,2.3131
2100,649.497,2.1293
2112,651.497,1.9454
2124,653.489,1.7637
2136,655.494,1.5875
2148,657.492,1.4215
2160,659.493,1.2638
2172,661.493,1.1127
2184,663.49,0.9699
2196,665.487,0.8467
2208,667.479,0.7385
2220,669.479,0.6426
2232,671.483,0.559
2244,673.482,0.4839
2256,675.487,0.4194
2268,677.487,0.3651
2280,679.489,0.3175
2292,681.487,0.2805
2304,683.481,0.2487
2316,685.478,0.2267
2328,687.472,0.2041
2340,689.47,0.1857
2352,691.466,0.1727
2364,693.459,0.1601
2376,695.449,0.1534
2388,697.445,0.1423
2400,699.443,0.1365
2412,701.441,0.1284
2424,703.436,0.1275
2436,705.431,0.1214
2448,707.427,0.1177
2460,709.419,0.1205
2472,711.42,0.1156
2484,713.415,0.1156
2496,715.405,0.1142
2508,717.393,0.1156
2520,719.382,0.1173
2532,721.377,0.1159
2544,723.369,0.1159
2556,725.363,0.1146
2568,727.363,0.1173
2580,729.366,0.1146
2592,731.368,0.1146
2604,733.374,0.1146
2616,735.381,0.1159
2628,737.387,0.1146
2640,739.391,0.1169
2652,741.398,0.1129
2664,743.401,0.1142
2676,745.403,0.1142
2688,747.404,0.1142
2700,749.406,0.1169
2712,751.403,0.1141
2724,753.401,0.1155
2736,755.396,0.1158
2748,757.397,0.1148
2760,759.394,0.1176
2772,761.394,0.1156
2784,763.398,0.1129
2796,765.402,0.1152
2808,767.404,0.1152
2820,769.407,0.1179
2832,771.408,0.1126
2844,773.412,0.1146
2856,775.416,0.1132
2868,777.42,0.1151
2880,779.422,0.1145
2892,781.423,0.1127
2904,783.425,0.1134
2916,785.425,0.1147
2928,787.428,0.114
2940,789.433,0.1145
2952,791.434,0.1138
2964,793.441,0.1135
2976,795.441,0.1146
2988,797.447,0.1122
3000,799.448,0.1122
3012,801.447,0.1126
3024,803.445,0.1129
3036,805.445,0.1129
3048,807.442,0.1142
3060,809.446,0.1116
3072,811.449,0.1152
3084,813.456,0.1126
3096,815.461,0.1129
3108,817.469,0.1129
3120,819.476,0.1129
3132,821.477,0.1131
3135,821.98,0.1145

File: TIFP_TGA_N2_10K_8.csv
Time,Temperature,Mass fraction
[s],[K],[mg]
0,300.149,5.0804
12,300.149,5.0806
24,300.221,5.0817
36,300.444,5.0829
48,300.91,5.0826
60,301.695,5.0831
72,302.851,5.0834
84,304.399,5.0837
96,306.341,5.0853
108,308.627,5.0864
120,311.205,5.0893
132,313.992,5.088
144,316.921,5.0872
156,319.912,5.0893
168,322.909,5.0891
180,325.852,5.0887
192,328.709,5.089
204,331.461,5.089
216,334.091,5.0903
228,336.605,5.0903
240,339.006,5.0903
252,341.308,5.0907
264,343.523,5.0917
276,345.672,5.0927
288,347.769,5.0944
300,349.825,5.0916
312,351.856,5.0954
324,353.866,5.094
336,355.864,5.0954
348,357.856,5.0967
360,359.844,5.0954
372,361.828,5.0959
384,363.812,5.0969
396,365.798,5.0979
408,367.776,5.0983
420,369.76,5.0969
432,371.742,5.0986
444,373.718,5.0986
456,375.698,5.0997
468,377.674,5.0996
480,379.654,5.0998
492,381.636,5.0989
504,383.621,5.1005
516,385.607,5.0993
528,387.599,5.0993
540,389.595,5.099
552,391.597,5.102
564,393.604,5.101
576,395.615,5.1009
588,397.63,5.1024
600,399.649,5.0998
612,401.669,5.1008
624,403.692,5.1024
636,405.714,5.1021
648,407.74,5.1001
660,409.763,5.1027
672,411.785,5.1007
684,413.81,5.0987
696,415.832,5.1002
708,417.849,5.0988
720,419.871,5.0975
732,421.886,5.0975
744,423.9,5.0968
756,425.91,5.0958
768,427.918,5.0935
780,429.924,5.0908
792,431.928,5.0894
804,433.926,5.0904
816,435.923,5.0854
828,437.916,5.0858
840,439.91,5.0837
852,441.907,5.0787
864,443.899,5.077
876,445.891,5.0727
888,447.885,5.0676
900,449.874,5.0637
912,451.865,5.0607
924,453.859,5.0522
936,455.85,5.0446
948,457.844,5.0406
960,459.835,5.0323
972,461.828,5.0283
984,463.818,5.0227
996,465.817,5.0144
1008,467.804,5.0076
1020,469.799,5.0002
1032,471.79,4.995
1044,473.784,4.9886
1056,475.775,4.9838
1068,477.77,4.9791
1080,479.765,4.9717
1092,481.762,4.967
1104,483.758,4.9594
1116,485.755,4.9568
1128,487.748,4.9541
1140,489.743,4.95
1152,491.74,4.9453
1164,493.737,4.942
1176,495.73,4.9433
1188,497.729,4.9405
1200,499.725,4.9382
1212,501.723,4.9368
1224,503.72,4.9353
1236,505.714,4.9346
1248,507.71,4.9333
1260,509.706,4.9333
1272,511.703,4.9313
1284,513.701,4.9333
1296,515.697,4.9319
1308,517.697,4.9309
1320,519.695,4.9256
1332,521.696,4.9256
1344,523.693,4.9252
1356,525.69,4.9239
1368,527.69,4.9201
1380,529.689,4.9201
1392,531.686,4.9197
1404,533.686,4.9139
1416,535.686,4.9139
1428,537.685,4.9126
1440,539.683,4.9092
1452,541.679,4.9054
1464,543.677,4.9003
1476,545.67,4.8963
1488,547.663,4.8939
1500,549.661,4.8872
1512,551.652,4.8837
1524,553.644,4.8766
1536,555.642,4.8692
1548,557.638,4.8634
1560,559.636,4.855
1572,561.631,4.849
1584,563.626,4.8391
1596,565.623,4.8315
1608,567.617,4.8228
1620,569.614,4.8095
1632,571.611,4.7997
1644,573.609,4.788
1656,575.604,4.774
1668,577.607,4.7637
1680,579.604,4.7517
1692,581.602,4.7364
1704,583.604,4.7231
1716,585.602,4.7098
1728,587.602,4.6949
1740,589.603,4.6755
1752,591.609,4.6582
1764,593.609,4.6357
1776,595.608,4.6177
1788,597.606,4.591
1800,599.603,4.5635
1812,601.598,4.5381
1824,603.593,4.5035
1836,605.595,4.4625
1848,607.595,4.4229
1860,609.593,4.3762
1872,611.587,4.3253
1884,613.586,4.2678
1896,615.583,4.203
1908,617.576,4.1313
1920,619.566,4.0509
1932,621.558,3.9627
1944,623.555,3.8644
1956,625.548,3.7602
1968,627.542,3.6396
1980,629.54,3.5158
1992,631.535,3.3791
2004,633.533,3.2319
2016,635.528,3.0779
2028,637.517,2.9162
2040,639.498,2.7499
2052,641.486,2.5823
2064,643.491,2.4238
2076,645.49,2.2543
2088,647.497,2.0801
2100,649.493,1.9056
2112,651.489,1.7289
2124,653.481,1.5627
2136,655.479,1.4027
2148,657.476,1.2517
2160,659.479,1.1114
2172,661.482,0.9799
2184,663.482,0.8667
2196,665.479,0.764
2208,667.484,0.6719
2220,669.49,0.595
2232,671.492,0.5295
2244,673.5,0.4627
2256,675.502,0.4104
2268,677.501,0.367
2280,679.503,0.3326
2292,681.497,0.2984
2304,683.494,0.2704
2316,685.489,0.2557
2328,687.487,0.2333
2340,689.478,0.2234
2352,691.471,0.2102
2364,693.463,0.2014
2376,695.46,0.1918
2388,697.455,0.186
2400,699.449,0.1803
2412,701.445,0.1763
2424,703.44,0.1717
2436,705.439,0.167
2448,707.434,0.1652
2460,709.432,0.1619
2472,711.426,0.1636
2484,713.418,0.1629
2496,715.411,0.1604
2508,717.404,0.1577
2520,719.395,0.1618
2532,721.385,0.1604
2544,723.377,0.1618
2556,725.369,0.1618
2568,727.365,0.1608
2580,729.367,0.1591
2592,731.365,0.1597
2604,733.363,0.1597
2616,735.362,0.1603
2628,737.364,0.1563
2640,739.361,0.159
2652,741.358,0.162
2664,743.357,0.1605
2676,745.358,0.1605
2688,747.361,0.1579
2700,749.362,0.1592
2712,751.371,0.1579
2724,753.381,0.1592
2736,755.389,0.1599
2748,757.402,0.1599
2760,759.409,0.1599
2772,761.414,0.1592
2784,763.419,0.1605
2796,765.422,0.16
2808,767.418,0.1586
2820,769.42,0.1613
2832,771.414,0.159
2844,773.411,0.16
2856,775.406,0.1583
2868,777.405,0.1596
2880,779.404,0.1583
2892,781.402,0.161
2904,783.407,0.1595
2916,785.415,0.1582
2928,787.421,0.1575
2940,789.424,0.1592
2952,791.431,0.1585
2964,793.435,0.1599
2976,795.439,0.1614
2988,797.441,0.156
3000,799.446,0.1574
3012,801.451,0.1621
3024,803.452,0.1583
3036,805.456,0.1583
3048,807.458,0.1593
3060,809.463,0.158
3072,811.469,0.1583
3084,813.477,0.1556
3096,815.483,0.1601
3108,817.49,0.1572
3120,819.496,0.1605
3132,821.5,0.1566
3135,821.998,0.158

File: TIFP_TGA_O2-21_10K_1.csv
Time,Temperature,Mass
[s],[K],[mg]
0,297.6031,4.47709
15,298.9183,4.47327
30,301.0276,4.47212
45,303.1958,4.47074
60,305.4102,4.46883
75,307.6714,4.46637
90,309.95,4.46485
105,312.2576,4.46325
120,314.5601,4.46173
135,316.875,4.46014
150,319.2268,4.45884
165,321.5738,4.45764
180,323.9411,4.45664
195,326.3165,4.45588
210,328.6843,4.45484
225,331.0868,4.45409
240,333.4718,4.45321
255,335.8798,4.45269
270,338.2917,4.45206
285,340.7218,4.45145
300,343.1384,4.4511
315,345.5557,4.45078
330,348.0068,4.45023
345,350.4402,4.44986
360,352.8951,4.4494
375,355.3437,4.44891
390,357.803,4.4487
405,360.2714,4.44825
420,362.7423,4.44784
435,365.2177,4.44764
450,367.7069,4.44747
465,370.1871,4.44702
480,372.6759,4.44667
495,375.179,4.44625
510,377.663,4.44593
525,380.163,4.44544
540,382.681,4.44499
555,385.184,4.44441
570,387.685,4.44381
585,390.216,4.4432
600,392.731,4.44252
615,395.249,4.44171
630,397.771,4.44089
645,400.318,4.44004
660,402.834,4.43888
675,405.376,4.43754
690,407.899,4.4363
705,410.446,4.43514
720,412.985,4.43391
735,415.52,4.43199
750,418.076,4.43096
765,420.607,4.42894
780,423.163,4.42783
795,425.716,4.42583
810,428.263,4.42491
825,430.814,4.42288
840,433.365,4.42195
855,435.921,4.42023
870,438.463,4.41911
885,441.02,4.41757
900,443.578,4.41619
915,446.13,4.4153
930,448.703,4.41389
945,451.252,4.41275
960,453.824,4.41191
975,456.388,4.41068
990,458.955,4.4092
1005,461.536,4.40842
1020,464.078,4.40767
1035,466.65,4.40655
1050,469.214,4.40545
1065,471.783,4.40468
1080,474.353,4.40414
1095,476.912,4.4034
1110,479.477,4.40265
1125,482.045,4.40186
1140,484.617,4.40094
1155,487.183,4.39985
1170,489.761,4.39917
1185,492.311,4.3986
1200,494.886,4.39801
1215,497.446,4.39685
1230,500.022,4.39605
1245,502.585,4.39556
1260,505.142,4.39474
1275,507.709,4.39386
1290,510.279,4.39308
1305,512.846,4.3922
1320,515.413,4.39107
1335,517.975,4.39094
1350,520.539,4.38943
1365,523.105,4.38806
1380,525.659,4.38762
1395,528.23,4.38634
1410,530.786,4.38441
1425,533.351,4.38184
1440,535.918,4.37818
1455,538.476,4.37248
1470,541.052,4.36501
1485,543.62,4.35501
1500,546.191,4.34188
1515,548.763,4.32558
1530,551.345,4.30599
1545,553.915,4.28416
1560,556.497,4.26179
1575,559.068,4.23999
1590,561.651,4.21852
1605,564.222,4.19557
1620,566.809,4.16924
1635,569.376,4.1379
1650,571.959,4.09999
1665,574.536,4.05287
1680,577.129,3.99358
1695,579.719,3.91767
1710,582.323,3.81631
1725,584.926,3.68506
1740,587.555,3.53981
1755,590.195,3.40337
1770,592.808,3.26244
1785,595.426,3.12613
1800,598.038,2.98244
1815,600.625,2.82764
1830,603.222,2.64634
1845,605.861,2.44083
1860,608.497,2.23361
1875,611.138,2.02981
1890,613.804,1.83182
1905,616.448,1.64535
1920,619.074,1.47604
1935,621.68,1.31077
1950,624.291,1.1575
1965,626.88,1.01589
1980,629.478,0.887
1995,632.041,0.7767
2010,634.591,0.67847
2025,637.127,0.59063
2040,639.649,0.51217
2055,642.163,0.44205
2070,644.655,0.37993
2085,647.135,0.32533
2100,649.619,0.27752
2115,652.085,0.2358
2130,654.535,0.20001
2145,656.96,0.16954
2160,659.369,0.14344
2175,661.785,0.12091
2190,664.198,0.10214
2205,666.624,0.08626
2220,669.048,0.07333
2235,671.486,0.06271
2250,673.915,0.05523
2265,676.354,0.04984
2280,678.787,0.0469
2295,681.247,0.04553
2310,683.712,0.04429
2325,686.181,0.04321
2340,688.67,0.04215
2355,691.164,0.04205
2370,693.665,0.04202
2385,696.157,0.04197
2400,698.665,0.04183
2415,701.173,0.04154
2430,703.674,0.04124
2445,706.19,0.04109
2460,708.697,0.04082
2475,711.204,0.04041
2490,713.723,0.04023
2505,716.227,0.04011
2520,718.745,0.04008
2535,721.254,0.04006
2550,723.77,0.03998
2565,726.284,0.03983
2580,728.801,0.0398
2595,731.306,0.03984
2610,733.821,0.03955
2625,736.343,0.03911
2640,738.852,0.03901
2655,741.363,0.03902
2670,743.869,0.03903
2685,746.38,0.03905
2700,748.893,0.03896
2715,751.411,0.03895
2730,753.921,0.03898
2745,756.428,0.03891
2760,758.944,0.03901
2775,761.445,0.03893
2790,763.956,0.039
2805,766.469,0.03886
2820,768.974,0.03872
2835,771.487,0.03879
2850,773.993,0.03854
2865,776.502,0.03879
2880,779.007,0.03866
2895,781.512,0.03893
2910,784.031,0.03895
2925,786.531,0.03891
2940,789.039,0.0389
2955,791.553,0.03882
2970,794.053,0.03873
2985,796.561,0.03862
3000,799.068,0.03857
3015,801.568,0.03877
3030,804.079,0.0389
3045,806.58,0.03899
3060,809.082,0.03898
3075,811.586,0.03896
3090,814.089,0.03891
3105,816.592,0.03899
3120,819.097,0.0389
3135,821.6,0.03875
3150,824.109,0.03899
3165,826.61,0.03899
3180,829.118,0.03909
3195,831.62,0.0391
3210,834.125,0.03908
3225,836.619,0.039
3240,839.119,0.03905
3255,841.623,0.03912
3270,844.117,0.03989
3285,846.62,0.03957
3300,849.124,0.0392
3315,851.617,0.0393
3330,854.124,0.03998
3345,856.616,0.03991
3360,859.118,0.03971
3375,861.613,0.04005
3390,864.115,0.04002
3405,866.612,0.0404
3420,869.102,0.04069
3435,871.599,0.04011
3450,874.091,0.04018
3465,876.584,0.04083
3480,879.086,0.04062
3495,881.587,0.03994
3510,884.076,0.04061
3525,886.576,0.04078
3540,889.066,0.04031
3555,891.569,0.0403
3570,894.061,0.04048
3585,896.547,0.04052
3600,899.052,0.03999
3615,901.532,0.04014
3630,904.029,0.04086
3645,906.52,0.04048
3660,909.008,0.0405
3675,911.513,0.04089
3690,914,0.04087
3705,916.498,0.04071
3720,918.991,0.04058
3735,921.481,0.041
3750,923.967,0.04095
3765,926.455,0.04051
3780,928.941,0.04083
3795,931.434,0.04099
3810,933.934,0.04075
3825,936.417,0.04046
3840,938.898,0.041
3855,941.388,0.04089
3870,943.872,0.04034
3885,946.365,0.04098
3900,948.857,0.04098
3915,951.341,0.04062
3930,953.826,0.04093
3945,956.309,0.04099
3960,958.794,0.04076
3975,961.277,0.04087
3990,963.755,0.04099
4005,966.255,0.04119
4020,968.737,0.041
4035,971.21,0.04101
4050,973.692,0.04077
4065,976.17,0.041
4080,978.644,0.04081
4095,981.13,0.04067
4110,983.602,0.04098
4125,986.078,0.04089
4140,988.562,0.04076
4155,991.034,0.04089
4170,993.527,0.0402
4185,995.999,0.04099
4200,998.486,0.04023
4215,1000.962,0.041
4230,1003.429,0.04095
4245,1005.91,0.04087
4260,1008.387,0.04098
4275,1010.857,0.04088
4290,1013.337,0.041
4305,1015.813,0.04067
4320,1018.285,0.04099
4335,1020.752,0.04089
4350,1023.229,0.041