Folder: matl-db/Non-charring/PMMA/TIFP (part 5)

File: TIFP_TGA_O2-21_10K_2.csv
Time,Temperature,Mass
[s],[K],[mg]
0,297.5898,5.20188
15,298.9133,5.19894
30,301.071,5.19739
45,303.2608,5.19587
60,305.4848,5.1932
75,307.7528,5.19065
90,310.0502,5.18857
105,312.3632,5.18658
120,314.6739,5.18465
135,317.0269,5.18272
150,319.3781,5.18113
165,321.739,5.17968
180,324.1054,5.17831
195,326.488,5.17743
210,328.8691,5.17629
225,331.2648,5.17529
240,333.6706,5.17444
255,336.0793,5.17386
270,338.4749,5.17314
285,340.9009,5.17257
300,343.3283,5.172
315,345.7647,5.17138
330,348.1989,5.17103
345,350.6356,5.17057
360,353.1,5.17006
375,355.5473,5.16962
390,358.0112,5.16926
405,360.4646,5.16878
420,362.9407,5.1683
435,365.4177,5.16799
450,367.8998,5.16756
465,370.3807,5.1671
480,372.8682,5.16674
495,375.361,5.16626
510,377.856,5.16563
525,380.352,5.16521
540,382.88,5.16486
555,385.38,5.16422
570,387.877,5.16367
585,390.406,5.16301
600,392.906,5.16233
615,395.431,5.16181
630,397.958,5.1609
645,400.476,5.16014
660,403.014,5.15911
675,405.549,5.15829
690,408.078,5.1574
705,410.617,5.15642
720,413.159,5.15506
735,415.689,5.1538
750,418.24,5.15247
765,420.781,5.15123
780,423.332,5.15031
795,425.879,5.14883
810,428.438,5.14744
825,430.986,5.14633
840,433.536,5.14542
855,436.09,5.1442
870,438.64,5.14296
885,441.201,5.14176
900,443.75,5.14069
915,446.31,5.13982
930,448.87,5.13911
945,451.435,5.13808
960,453.991,5.13728
975,456.553,5.13651
990,459.103,5.13558
1005,461.68,5.13484
1020,464.25,5.13422
1035,466.808,5.1335
1050,469.372,5.13297
1065,471.947,5.13268
1080,474.512,5.13251
1095,477.073,5.13194
1110,479.642,5.13166
1125,482.206,5.13141
1140,484.768,5.13077
1155,487.349,5.13066
1170,489.913,5.13056
1185,492.495,5.13028
1200,495.046,5.13028
1215,497.629,5.13006
1230,500.194,5.12963
1245,502.756,5.12972
1260,505.317,5.12954
1275,507.888,5.12909
1290,510.461,5.12909
1305,513.013,5.1291
1320,515.586,5.12863
1335,518.152,5.12843
1350,520.711,5.12787
1365,523.261,5.12751
1380,525.838,5.12638
1395,528.395,5.12574
1410,530.96,5.12452
1425,533.529,5.12185
1440,536.093,5.11768
1455,538.667,5.11142
1470,541.234,5.10259
1485,543.81,5.09115
1500,546.379,5.07636
1515,548.951,5.05843
1530,551.531,5.03772
1545,554.103,5.01536
1560,556.678,4.99275
1575,559.252,4.97076
1590,561.819,4.94893
1605,564.393,4.92538
1620,566.959,4.89815
1635,569.529,4.86554
1650,572.093,4.82616
1665,574.665,4.7777
1680,577.243,4.71763
1695,579.817,4.64201
1710,582.394,4.54422
1725,584.978,4.41852
1740,587.572,4.27263
1755,590.164,4.12445
1770,592.759,3.97817
1785,595.352,3.82686
1800,597.929,3.67156
1815,600.486,3.47202
1830,603.066,3.24202
1845,605.656,2.98489
1860,608.273,2.71258
1875,610.899,2.44574
1890,613.537,2.19164
1905,616.173,1.94483
1920,618.816,1.71943
1935,621.44,1.50968
1950,624.061,1.32908
1965,626.674,1.16417
1980,629.306,1.02603
1995,631.885,0.908345
2010,634.446,0.803108
2025,636.994,0.709537
2040,639.528,0.627434
2055,642.054,0.554997
2070,644.572,0.491529
2085,647.088,0.436214
2100,649.593,0.388007
2115,652.099,0.345926
2130,654.563,0.309578
2145,657.022,0.278289
2160,659.468,0.251116
2175,661.918,0.227032
2190,664.351,0.206105
2205,666.786,0.187822
2220,669.222,0.172173
2235,671.667,0.158393
2250,674.121,0.146623
2265,676.581,0.136752
2280,679.034,0.129086
2295,681.486,0.12335
2310,683.952,0.120711
2325,686.413,0.119608
2340,688.88,0.118509
2355,691.373,0.118424
2370,693.86,0.117537
2385,696.358,0.117497
2400,698.855,0.117109
2415,701.361,0.116391
2430,703.864,0.116401
2445,706.366,0.116222
2460,708.875,0.115811
2475,711.389,0.115664
2490,713.904,0.115677
2505,716.408,0.115415
2520,718.918,0.114805
2535,721.431,0.114961
2550,723.948,0.114784
2565,726.454,0.114696
2580,728.98,0.114739
2595,731.489,0.11468
2610,734,0.114647
2625,736.52,0.114576
2640,739.023,0.114515
2655,741.54,0.114525
2670,744.051,0.114514
2685,746.559,0.114514
2700,749.077,0.114484
2715,751.578,0.114302
2730,754.1,0.114346
2745,756.607,0.114458
2760,759.116,0.114136
2775,761.623,0.114176
2790,764.129,0.114524
2805,766.64,0.11386
2820,769.141,0.113993
2835,771.651,0.113915
2850,774.157,0.113928
2865,776.667,0.114272
2880,779.175,0.114154
2895,781.685,0.114417
2910,784.191,0.114325
2925,786.701,0.114219
2940,789.206,0.113974
2955,791.714,0.113771
2970,794.213,0.113547
2985,796.725,0.113697
3000,799.215,0.113852
3015,801.728,0.114152
3030,804.235,0.1142
3045,806.744,0.11385
3060,809.25,0.11382
3075,811.751,0.113531
3090,814.251,0.113545
3105,816.749,0.113729
3120,819.249,0.113344
3135,821.764,0.113295
3150,824.259,0.113497
3165,826.763,0.113494
3180,829.262,0.113329
3195,831.759,0.113264
3210,834.26,0.113666
3225,836.757,0.113503
3240,839.261,0.113543
3255,841.763,0.113455
3270,844.259,0.114125
3285,846.768,0.113821
3300,849.259,0.113503
3315,851.759,0.113786
3330,854.256,0.114438
3345,856.752,0.114085
3360,859.254,0.11422
3375,861.75,0.114499
3390,864.248,0.114512
3405,866.749,0.11478
3420,869.241,0.114795
3435,871.744,0.11451
3450,874.234,0.11467
3465,876.738,0.115193
3480,879.239,0.115022
3495,881.723,0.114535
3510,884.227,0.11519
3525,886.726,0.11538
3540,889.223,0.114826
3555,891.715,0.114895
3570,894.199,0.11507
3585,896.694,0.115128
3600,899.183,0.114627
3615,901.675,0.114744
3630,904.17,0.115364
3645,906.664,0.114753
3660,909.16,0.115012
3675,911.655,0.11546
3690,914.139,0.115213
3705,916.628,0.114633
3720,919.114,0.114942
3735,921.608,0.115435
3750,924.097,0.115094
3765,926.582,0.114618
3780,929.071,0.115322
3795,931.567,0.115448
3810,934.056,0.11461
3825,936.542,0.114958
3840,939.027,0.115487
3855,941.519,0.114657
3870,943.999,0.114647
3885,946.488,0.115427
3900,948.976,0.115108
3915,951.455,0.1147
3930,953.946,0.1154
3945,956.431,0.114683
3960,958.911,0.114633
3975,961.39,0.115329
3990,963.872,0.114526
4005,966.364,0.115058
4020,968.839,0.115438
4035,971.32,0.114638
4050,973.801,0.11493
4065,976.278,0.115381
4080,978.764,0.114541
4095,981.241,0.115169
4110,983.724,0.115405
4125,986.208,0.114833
4140,988.683,0.115179
4155,991.169,0.114849
4170,993.649,0.114682
4185,996.125,0.115207
4200,998.601,0.114562
4215,1001.072,0.115494
4230,1003.546,0.114688
4245,1006.026,0.115368
4260,1008.499,0.114509
4275,1010.972,0.115368
4290,1013.449,0.11512
4305,1015.92,0.115111
4320,1018.397,0.115308
4335,1020.864,0.115358
4350,1023.341,0.115189