Folder: matl-db/Non-charring/PMMA/UDRI

Note: Non-charring/PMMA/UDRI/README.md
# University of Dayton Research Institute (UDRI)

### Experimental Conditions, TGA

* Heating Rate: 10 K/min
* Temperature program
  - Initial temperature 298.15 K
  - Isotherm: None  
  - Maximum Temperature 1123.15 K
* Sample mass: 6.63 - 7.16 mg
* Sample geometry: Powdered
* Calibration type: 
* Crucible type: Platinum crucibles  
* Carrier Gas
  - Nitrogen
  - Flow rate = [?]


###### Tests Conducted in Nitrogen 

|Test Name | Initial Sample Mass (mg)|  
|----------|:------:|  
|UDRI\_TGA\_N2\_1 | 7.157|  
|UDRI\_TGA\_N2\_2 | 6.630|  
|UDRI\_TGA\_N2\_3 | 6.906|  



### Experimental Conditions, Cone calorimeter
* Extraction flow rate: 24L/s
* Sample holder dimensions:
    - Square pan: 106mm x 106mm x 25mm
    - Retainer frame: 111mm x 111mm x 54mm (opening dimensions: 94mm x 94mm)
    - Retaining grid: 2mm grid, 20mm spacing
* Backing Insulation: Ceramic wool thermal conductivity (measured via guarded hot plate:  0.04 W/m-K at  30 C) 
* Sample back side temperature was not measured. 
* Note - Aluminum foil damaged in many tests, so mass losses appear to be more than 100% as some of the aluminum foil was oxidized/lost during testing



###### Test Heating Conditions  
|Test Name | Heat Flux (kW/m2)| Heater Temperature (K) 
|----------|:------:| :---: |
|UDRI\_Cone\_25kW\_1 | 25| 856  
|UDRI\_Cone\_25kW\_2 | 25| 856  
|UDRI\_Cone\_25kW\_3 | 25| 856  
|UDRI\_Cone\_65kW\_1 | 65| 1110  
|UDRI\_Cone\_65kW\_2 | 65| 1110
|UDRI\_Cone\_65kW\_3 | 65| 1110  
|UDRI\_Cone\_65kW\_4 | 65| 1110

File: UDRI_TGA_N2_1.csv
Time,Temperature,Mass
[s],[K],[mg]
15.6,299.15,7.148
32.4,302.15,7.15
48.6,305.15,7.149
66,308.15,7.146
84,311.15,7.143
101.4,314.15,7.141
119.4,317.15,7.139
137.4,320.15,7.137
154.8,323.15,7.135
172.8,326.15,7.134
190.8,329.15,7.133
208.8,332.15,7.132
226.8,335.15,7.131
244.8,338.15,7.13
262.8,341.15,7.129
280.8,344.15,7.129
298.8,347.15,7.128
316.8,350.15,7.128
334.8,353.15,7.127
352.8,356.15,7.127
370.8,359.15,7.126
388.8,362.15,7.126
406.8,365.15,7.125
424.8,368.15,7.125
442.8,371.15,7.124
461.4,374.15,7.123
479.4,377.15,7.122
497.4,380.15,7.12
515.4,383.15,7.119
533.4,386.15,7.117
551.4,389.15,7.115
569.4,392.15,7.113
587.4,395.15,7.111
605.4,398.15,7.108
623.4,401.15,7.106
641.4,404.15,7.104
659.4,407.15,7.101
678,410.15,7.097
696,413.15,7.094
714,416.15,7.09
732,419.15,7.085
750,422.15,7.08
768,425.15,7.074
786,428.15,7.067
804,431.15,7.058
822,434.15,7.049
840,437.15,7.038
858,440.15,7.026
876,443.15,7.014
894,446.15,7.003
912,449.15,6.991
930.6,452.15,6.979
948.6,455.15,6.964
966.6,458.15,6.95
984.6,461.15,6.938
1002.6,464.15,6.926
1020.6,467.15,6.916
1038.6,470.15,6.908
1056.6,473.15,6.903
1074.6,476.15,6.899
1092.6,479.15,6.896
1110.6,482.15,6.893
1128.6,485.15,6.89
1146.6,488.15,6.887
1164.6,491.15,6.885
1182.6,494.15,6.882
1200.6,497.15,6.878
1218.6,500.15,6.874
1237.2,503.15,6.87
1255.2,506.15,6.865
1273.2,509.15,6.859
1291.2,512.15,6.853
1309.2,515.15,6.846
1327.2,518.15,6.837
1345.2,521.15,6.828
1363.2,524.15,6.817
1381.2,527.15,6.805
1399.2,530.15,6.79
1417.2,533.15,6.774
1435.2,536.15,6.756
1453.2,539.15,6.736
1471.2,542.15,6.713
1489.2,545.15,6.689
1507.2,548.15,6.663
1525.8,551.15,6.636
1543.8,554.15,6.609
1561.8,557.15,6.578
1579.8,560.15,6.542
1597.8,563.15,6.503
1615.8,566.15,6.46
1633.8,569.15,6.41
1651.8,572.15,6.353
1669.8,575.15,6.286
1687.8,578.15,6.208
1705.8,581.15,6.117
1723.8,584.15,6.012
1741.8,587.15,5.89
1759.8,590.15,5.748
1777.8,593.15,5.585
1796.4,596.15,5.399
1814.4,599.15,5.186
1832.4,602.15,4.945
1850.4,605.15,4.679
1868.4,608.15,4.387
1886.4,611.15,4.072
1904.4,614.15,3.742
1922.4,617.15,3.402
1940.4,620.15,3.057
1958.4,623.15,2.706
1976.4,626.15,2.359
1994.4,629.15,2.027
2013,632.15,1.712
2031,635.15,1.424
2049,638.15,1.165
2067,641.15,0.9391
2085,644.15,0.7499
2103,647.15,0.5911
2121,650.15,0.4635
2139,653.15,0.3629
2157,656.15,0.2866
2175,659.15,0.2286
2193.6,662.15,0.188
2211.6,665.15,0.1558
2229.6,668.15,0.1286
2247.6,671.15,0.1132
2265.6,674.15,0.1004
2283.6,677.15,0.0904
2301.6,680.15,0.08329
2319.6,683.15,0.07846
2338.2,686.15,0.07527
2356.2,689.15,0.07345
2374.2,692.15,0.07252
2392.2,695.15,0.0718
2410.2,698.15,0.07138
2428.2,701.15,0.07114
2446.2,704.15,0.07081
2464.8,707.15,0.07053
2482.8,710.15,0.07032
2500.8,713.15,0.07019
2518.8,716.15,0.06999
2536.8,719.15,0.06994
2554.8,722.15,0.06978
2572.8,725.15,0.06968
2591.4,728.15,0.06959
2609.4,731.15,0.06956
2627.4,734.15,0.06958
2645.4,737.15,0.06945
2663.4,740.15,0.06953
2681.4,743.15,0.06952
2700,746.15,0.06947
2718,749.15,0.06944
2736,752.15,0.06934
2754,755.15,0.06939
2772,758.15,0.06933
2790.6,761.15,0.06928
2808.6,764.15,0.06927
2826.6,767.15,0.06922
2844.6,770.15,0.06913
2862.6,773.15,0.06908
2880.6,776.15,0.06905
2899.2,779.15,0.0689
2917.2,782.15,0.06892
2935.2,785.15,0.06987
2953.2,788.15,0.07004
2971.2,791.15,0.0701
2989.8,794.15,0.07005
3007.8,797.15,0.06997
3025.8,800.15,0.0699
3043.8,803.15,0.06986
3061.8,806.15,0.0698
3080.4,809.15,0.06967
3098.4,812.15,0.06969
3116.4,815.15,0.06967
3134.4,818.15,0.06961
3152.4,821.15,0.06966
3171,824.15,0.06957
3189,827.15,0.06952
3207,830.15,0.06946
3225,833.15,0.06943
3243.6,836.15,0.06946
3261.6,839.15,0.0693
3279.6,842.15,0.06934
3297.6,845.15,0.06931
3315.6,848.15,0.06924
3334.2,851.15,0.06913
3352.2,854.15,0.06921
3370.2,857.15,0.0692
3388.2,860.15,0.06923
3406.8,863.15,0.06936
3424.8,866.15,0.06935
3442.8,869.15,0.06939
3460.8,872.15,0.06931
3478.8,875.15,0.06932
3497.4,878.15,0.0694
3515.4,881.15,0.06943
3533.4,884.15,0.06949
3551.4,887.15,0.06951
3570,890.15,0.06948
3588,893.15,0.06958
3606,896.15,0.06964
3624,899.15,0.06964
3642.6,902.15,0.06973
3660.6,905.15,0.06983
3678.6,908.15,0.06979
3696.6,911.15,0.06988
3715.2,914.15,0.06996
3733.2,917.15,0.07019
3751.2,920.15,0.07015
3769.2,923.15,0.07014
3787.8,926.15,0.07015
3805.8,929.15,0.07023
3823.8,932.15,0.07039
3841.8,935.15,0.07047
3860.4,938.15,0.0705
3878.4,941.15,0.07055
3896.4,944.15,0.07071
3914.4,947.15,0.07072
3933,950.15,0.07078
3951,953.15,0.07086
3969,956.15,0.07093
3987,959.15,0.07104
4005.6,962.15,0.0711
4023.6,965.15,0.07106
4041.6,968.15,0.07119
4059.6,971.15,0.07119
4078.2,974.15,0.07136
4096.2,977.15,0.0715
4114.2,980.15,0.0716
4132.8,983.15,0.07158
4150.8,986.15,0.07161
4168.8,989.15,0.07172
4186.8,992.15,0.07172
4205.4,995.15,0.07173
4223.4,998.15,0.07181
4241.4,1001.15,0.07191
4259.4,1004.15,0.072
4278,1007.15,0.07209
4296,1010.15,0.07211
4314,1013.15,0.07211
4332,1016.15,0.07223
4350.6,1019.15,0.0723
4368.6,1022.15,0.07236
4386.6,1025.15,0.0724
4404.6,1028.15,0.0725
4423.2,1031.15,0.07249
4441.2,1034.15,0.07249
4459.2,1037.15,0.07263
4477.8,1040.15,0.07275
4495.8,1043.15,0.07277
4513.8,1046.15,0.0729
4531.8,1049.15,0.07295
4550.4,1052.15,0.07302
4568.4,1055.15,0.07299
4586.4,1058.15,0.0732
4604.4,1061.15,0.07312
4623,1064.15,0.07324
4641,1067.15,0.07331
4659,1070.15,0.07339
4677,1073.15,0.07343
4695.6,1076.15,0.07354
4713.6,1079.15,0.07363
4731.6,1082.15,0.07374
4750.2,1085.15,0.07387
4768.2,1088.15,0.07401
4786.2,1091.15,0.07408
4804.2,1094.15,0.07407
4822.8,1097.15,0.07415
4840.8,1100.15,0.07415
4858.8,1103.15,0.0742
4877.4,1106.15,0.07427
4895.4,1109.15,0.07435
4913.4,1112.15,0.07444
4931.4,1115.15,0.07447
4950,1118.15,0.07455
4968.6,1121.15,0.07451
4980.6,1123.15,0.07457

File: UDRI_TGA_N2_10K_3.csv
Time,Temperature,Mass
[s],[K],[mg]
10.2,312.15,6.903
30,315.15,6.902
45.6,318.15,6.902
63,321.15,6.9
81,324.15,6.898
98.4,327.15,6.897
116.4,330.15,6.897
134.4,333.15,6.896
152.4,336.15,6.895
169.8,339.15,6.895
187.8,342.15,6.895
205.8,345.15,6.894
223.8,348.15,6.894
241.8,351.15,6.894
259.8,354.15,6.893
277.8,357.15,6.893
296.4,360.15,6.892
314.4,363.15,6.892
332.4,366.15,6.891
350.4,369.15,6.891
368.4,372.15,6.89
386.4,375.15,6.889
404.4,378.15,6.887
422.4,381.15,6.886
440.4,384.15,6.885
458.4,387.15,6.883
476.4,390.15,6.881
494.4,393.15,6.879
513,396.15,6.877
531,399.15,6.874
549,402.15,6.872
567,405.15,6.869
585,408.15,6.867
603,411.15,6.864
621,414.15,6.86
639,417.15,6.857
657,420.15,6.853
675,423.15,6.848
693.6,426.15,6.842
711.6,429.15,6.835
729.6,432.15,6.826
747.6,435.15,6.817
765.6,438.15,6.807
783.6,441.15,6.796
801.6,444.15,6.784
819.6,447.15,6.773
837.6,450.15,6.762
855.6,453.15,6.749
873.6,456.15,6.737
891.6,459.15,6.724
909.6,462.15,6.711
927.6,465.15,6.7
945.6,468.15,6.692
963.6,471.15,6.686
981.6,474.15,6.682
999.6,477.15,6.678
1018.2,480.15,6.676
1036.2,483.15,6.673
1054.2,486.15,6.671
1072.2,489.15,6.668
1090.2,492.15,6.666
1108.2,495.15,6.663
1126.2,498.15,6.659
1144.2,501.15,6.656
1162.2,504.15,6.652
1180.2,507.15,6.647
1198.2,510.15,6.641
1216.2,513.15,6.635
1234.2,516.15,6.628
1252.2,519.15,6.62
1270.2,522.15,6.611
1288.2,525.15,6.601
1306.8,528.15,6.589
1324.8,531.15,6.575
1342.8,534.15,6.56
1360.8,537.15,6.543
1378.8,540.15,6.523
1396.8,543.15,6.502
1414.8,546.15,6.48
1432.8,549.15,6.455
1450.8,552.15,6.43
1468.8,555.15,6.402
1486.8,558.15,6.374
1504.8,561.15,6.343
1522.8,564.15,6.308
1540.8,567.15,6.267
1558.8,570.15,6.218
1576.8,573.15,6.162
1595.4,576.15,6.097
1613.4,579.15,6.022
1631.4,582.15,5.934
1649.4,585.15,5.833
1667.4,588.15,5.715
1685.4,591.15,5.577
1703.4,594.15,5.418
1721.4,597.15,5.235
1739.4,600.15,5.026
1757.4,603.15,4.79
1775.4,606.15,4.529
1793.4,609.15,4.241
1811.4,612.15,3.934
1830,615.15,3.613
1848,618.15,3.29
1866,621.15,2.966
1884,624.15,2.637
1902,627.15,2.309
1920,630.15,1.996
1938,633.15,1.686
1956,636.15,1.397
1974,639.15,1.136
1992,642.15,0.9096
2010,645.15,0.7205
2028.6,648.15,0.5661
2046.6,651.15,0.4423
2064.6,654.15,0.3465
2082.6,657.15,0.2743
2100.6,660.15,0.2225
2118.6,663.15,0.1855
2136.6,666.15,0.1558
2154.6,669.15,0.1308
2172.6,672.15,0.112
2190.6,675.15,0.09801
2209.2,678.15,0.08763
2227.2,681.15,0.07972
2245.2,684.15,0.07419
2263.2,687.15,0.07101
2281.2,690.15,0.06944
2299.2,693.15,0.06867
2317.2,696.15,0.06832
2335.8,699.15,0.06803
2353.8,702.15,0.06775
2371.8,705.15,0.06757
2389.8,708.15,0.06748
2407.8,711.15,0.06728
2425.8,714.15,0.06715
2443.8,717.15,0.06705
2462.4,720.15,0.06699
2480.4,723.15,0.06691
2498.4,726.15,0.0669
2516.4,729.15,0.06686
2534.4,732.15,0.06678
2552.4,735.15,0.06669
2570.4,738.15,0.06663
2589,741.15,0.06654
2607,744.15,0.06653
2625,747.15,0.06651
2643,750.15,0.06641
2661,753.15,0.06636
2679.6,756.15,0.0663
2697.6,759.15,0.06621
2715.6,762.15,0.0662
2733.6,765.15,0.06622
2751.6,768.15,0.06619
2769.6,771.15,0.06611
2788.2,774.15,0.06624
2806.2,777.15,0.06602
2824.2,780.15,0.06595
2842.2,783.15,0.06583
2860.2,786.15,0.06582
2878.8,789.15,0.06579
2896.8,792.15,0.0658
2914.8,795.15,0.06572
2932.8,798.15,0.06567
2950.8,801.15,0.06567
2969.4,804.15,0.06564
2987.4,807.15,0.06554
3005.4,810.15,0.06558
3023.4,813.15,0.06553
3041.4,816.15,0.06557
3060,819.15,0.06549
3078,822.15,0.06554
3096,825.15,0.06536
3114,828.15,0.06535
3132,831.15,0.06535
3150.6,834.15,0.06528
3168.6,837.15,0.06518
3186.6,840.15,0.06511
3204.6,843.15,0.0651
3223.2,846.15,0.06511
3241.2,849.15,0.06497
3259.2,852.15,0.06494
3277.2,855.15,0.06495
3295.2,858.15,0.06489
3313.8,861.15,0.06486
3331.8,864.15,0.0647
3349.8,867.15,0.06467
3367.8,870.15,0.06465
3386.4,873.15,0.06465
3404.4,876.15,0.06462
3422.4,879.15,0.06447
3440.4,882.15,0.06445
3458.4,885.15,0.06438
3477,888.15,0.06434
3495,891.15,0.06433
3513,894.15,0.06427
3531,897.15,0.06429
3549.6,900.15,0.0642
3567.6,903.15,0.07786
3585.6,906.15,0.08027
3603.6,909.15,0.08119
3622.2,912.15,0.08109
3640.2,915.15,0.08097
3658.2,918.15,0.08085
3676.2,921.15,0.08084
3694.8,924.15,0.08091
3712.8,927.15,0.08087
3730.8,930.15,0.08087
3748.8,933.15,0.08083
3767.4,936.15,0.08072
3785.4,939.15,0.08073
3803.4,942.15,0.08068
3821.4,945.15,0.08065
3840,948.15,0.08072
3858,951.15,0.08066
3876,954.15,0.08061
3894,957.15,0.08059
3912.6,960.15,0.08053
3930.6,963.15,0.0805
3948.6,966.15,0.08046
3967.2,969.15,0.08052
3985.2,972.15,0.0805
4003.2,975.15,0.08046
4021.2,978.15,0.08044
4039.8,981.15,0.08047
4057.8,984.15,0.08044
4075.8,987.15,0.08045
4093.8,990.15,0.08041
4112.4,993.15,0.08035
4130.4,996.15,0.08039
4148.4,999.15,0.08045
4166.4,1002.15,0.08046
4185,1005.15,0.08037
4203,1008.15,0.08036
4221,1011.15,0.0803
4239,1014.15,0.08036
4257.6,1017.15,0.08041
4275.6,1020.15,0.08034
4293.6,1023.15,0.08039
4312.2,1026.15,0.08039
4330.2,1029.15,0.08035
4348.2,1032.15,0.08029
4366.2,1035.15,0.0804
4384.8,1038.15,0.08041
4402.8,1041.15,0.08041
4420.8,1044.15,0.08037
4438.8,1047.15,0.08036
4457.4,1050.15,0.08042
4475.4,1053.15,0.08044
4493.4,1056.15,0.08045
4511.4,1059.15,0.08037
4530,1062.15,0.08039
4548,1065.15,0.0804
4566,1068.15,0.08035
4584.6,1071.15,0.08029
4602.6,1074.15,0.08027
4620.6,1077.15,0.08037
4638.6,1080.15,0.0803
4657.2,1083.15,0.08033
4675.2,1086.15,0.08041
4693.2,1089.15,0.08027
4711.8,1092.15,0.0802
4729.8,1095.15,0.08013
4747.8,1098.15,0.08015
4766.4,1101.15,0.08014
4784.4,1104.15,0.08017
4802.4,1107.15,0.08008
4821,1110.15,0.08008
4839,1113.15,0.07999
4857,1116.15,0.0801
4875.6,1119.15,0.08001
4894.2,1122.15,0.07998
4900.2,1123.15,0.07994