Folder: matl-db/Non-charring/PMMA/UMD

Note: Non-charring/PMMA/UMD/README.md
# University of Maryland (UMD)

### Experimental Conditions: TGA, DSC
A Netzsch F3 Jupiter was used to conduct Simultaneous Thermal Analysis (TGA + DSC) experiments. Reported measurement data indicates an average of [##?##] repeated tests; errors are calculated as two standard deviations of the mean. More information is available at G.J. Fiola, D.M. Chaudhari, S.I. Stoliarov, "Comparison of Pyrolysis properties of extruded and cast Poly (methyl methacrylate)," submitted to IAFSS 2020. 

* Heating Rate: 10 K/min
* Temperature program
  - Initial temperature 313 K
  - Isotherm: 1200s (hold at 313K for 1200s)  
  - Maximum Temperature 850 K
* Sample mass: 4-7 mg
* Sample geometry: Powdered
* Calibration type: Before each experiment, a baseline test was performed using an empty crucible. Temperature/Heat flow calibration were performed every 6 months using a set of 5 reference materials with melting temperatures between [?]60-900 C[?]
* Crucible type: Pt-Rh crucibles (outer diameter 6.8mm / volume 85µL) with a lid ( a small hole in the lid allowed for gaseous decomposition products to escape).
* Carrier Gas
  - Ultra High Purity (UHP) Nitrogen
  - Flow rate = 50 ml/min


### Experimental Conditions: MCC
An FAA microscale combustion calorimeter was used to conduct MCC experiments.  At the end of each test, the residual solid yield was measured and found to be consistent with the TGA results. Reported measurement data indicates an average of four (4) repeated tests; errors are calculated as two standard deviations of the mean.More information is available at G.J. Fiola, D.M. Chaudhari, S.I. Stoliarov, "Comparison of Pyrolysis properties of extruded and cast Poly (methyl methacrylate)," submitted to IAFSS 2020. 

* Heating Rate: 60 K/min
* Temperature program (Pyrolyzer)
  - Initial temperature 348 K
  - Isotherm: 600s (hold at 348K for 600s)  
  - Maximum Temperature 873 K
* Combustor Temperature: 1173K
* Sample mass: 4-7 mg
* Sample geometry: Powdered
* Calibration type: Before each experiment, a baseline test was performed using a 3.5 mg sample of polystyrene as a reference. O2 sensor/flow calibration was checked at the start of each day of testing, Temperature calibration was performed every 4 months.
* Crucible type: ceramic crucibles (outer diameter 5.74mm / volume 71µL) with no lid
* Pyrolyzer Carrier Gas
  - Ultra High Purity (UHP) Nitrogen 
  - N2 Flow rate = 80 ml/min
* Combustor Carrier Gas
  - Ultra High Purity (UHP) Oxygen + Pyrolyzer Carrier Gas
  - O2 Flow rate = 20 ml/min


### Experimental Conditions: Gasification Tests (CAPA II)
A custom-built [Controlled Atmosphere Pyrolysis Apparatus II (CAPA II)](https://www.sciencedirect.com/science/article/abs/pii/S0379711217300541) was used to perform anaerobic (02 concentration < 1 vol. %) gasification experiments of PMMA slabs in response to well-characterized radiant heating. 

Reported errors represent two standard deviations of the mean of the respective quantity. The temperature data were c

File: UMD_CAPA_25kW_Mass.csv
Mean Time,Mean MLR ,Temperature,Temperature,Temperature,MLR_error,,,,,,
[s],[kg/s/m^2],[K],[K],[K],[kg/s/m^2],,,,,,
2.493585,-0.000938839,0,0,0,0.000540742,,,,,,
7.511155,0.000401505,0,0,0,0.00014885,,,,,,
12.4411,0.000468942,0,0,0,0.000117623,,,,,,
17.3754,0.000269239,0,0,0,0.000142155,,,,Time,Mass,Temperature
22.3921,0.0004123,0,0,0,0.000121883,,,,[s],[g],[K]
32.4232,0.000292289,0,0,0,8.77E-05,,,,,,
42.458,0.000253962,0,0,0,0.00017945,,,,,,
52.49583,0.000330686,0,0,0,0.000146755,,,,,,
62.5256,2.45E-05,0,0,0,0.000236052,,,,,,
72.5581,0.0003016,0,0,0,0.000152919,,,,,,
82.587,0.000213859,0,0,0,0.000126045,,,,,,
92.6179,0.000315268,0,0,0,0.00022529,,,,,,
102.65,0.000388278,0,0,0,0.000106028,,,,,,
112.68,0.000310262,0,0,0,0.000101064,,,,,,
122.715,0.000726266,0,0,0,0.000183317,,,,,,
132.499,0.000484197,0,0,0,0.000211978,,,,,,
142.278,0.001308147,0,0,0,0.000133317,,,,,,
152.314,0.001452347,0,0,0,0.000141828,,,,,,
162.348,0.001610469,0,0,0,0.000155318,,,,,,
172.377,0.002275585,0,0,0,0.000128158,,,,,,
182.409,0.003193513,0,0,0,0.000287445,,,,,,
192.441,0.003280541,0,0,0,0.000381812,,,,,,
202.47,0.003515247,0,0,0,0.000284727,,,,,,
212.5,0.004345897,0,0,0,0.000281083,,,,,,
222.531,0.004128328,0,0,0,0.000276753,,,,,,
232.563,0.004591777,0,0,0,0.000257827,,,,,,
242.592,0.004519994,0,0,0,0.000249993,,,,,,
252.624,0.005392246,0,0,0,0.000294357,,,,,,
262.651,0.00519802,0,0,0,0.000325449,,,,,,
272.68,0.00556278,0,0,0,0.000345061,,,,,,
282.627,0.005412027,0,0,0,0.000430688,,,,,,
292.572,0.005960452,0,0,0,0.000296702,,,,,,
302.435,0.005804532,0,0,0,0.000277453,,,,,,
312.376,0.005897648,0,0,0,0.000389319,,,,,,
322.329,0.006234084,0,0,0,0.000410814,,,,,,
332.363,0.005478886,0,0,0,0.000368106,,,,,,
342.397,0.006854029,0,0,0,0.000417884,,,,,,
352.43,0.006679915,0,0,0,0.000386477,,,,,,
362.464,0.006592617,0,0,0,0.000345284,,,,,,
372.497,0.006262168,0,0,0,0.000480806,,,,,,
382.53,0.006842806,0,0,0,0.000331439,,,,,,
392.56,0.006984449,0,0,0,0.000349038,,,,,,
402.589,0.00626725,0,0,0,0.000437754,,,,,,
412.621,0.008316793,0,0,0,0.000356153,,,,,,
422.652,0.006823627,0,0,0,0.000391952,,,,,,
432.683,0.007400208,0,0,0,0.000378544,,,,,,
442.381,0.007067332,0,0,0,0.000269531,,,,,,
452.416,0.007037665,0,0,0,0.000274886,,,,,,
462.447,0.00655642,0,0,0,0.000394711,,,,,,
472.476,0.007109928,0,0,0,0.000352595,,,,,,
482.418,0.007571637,0,0,0,0.000359444,,,,,,
492.368,0.007281411,0,0,0,0.000320934,,,,,,
502.403,0.007274772,0,0,0,0.000299438,,,,,,
512.437,0.007803093,0,0,0,0.0003373,,,,,,
522.467,0.007545438,0,0,0,0.000234185,,,,,,
532.498,0.006366305,0,0,0,0.000415614,,,,,,
542.533,0.007241456,0,0,0,0.000332137,,,,,,
552.566,0.007237778,0,0,0,0.000266435,,,,,,
562.594,0.007032848,0,0,0,0.000305445,,,,,,
572.547,0.007238977,0,0,0,0.000256291,,,,,,
582.501,0.007228486,0,0,0,0.000257477,,,,,,
592.537,0.007384795,0,0,0,0.000209308,,,,,,
602.573,0.007558178,0,0,0,0.000335539,,,,,,
612.44,0.007055606,0,0,0,0.000291401,,,,,,
622.477,0.007150828,0,0,0,0.000328408,,,,,,
632.51,0.007041907,0,0,0,0.000256249,,,,,,
642.54,0.007089974,0,0,0,0.000288078,,,,,,
652.5697,0.006994963,0,0,0,0.000301943,,,,,,
662.52,0.006684625,0,0,0,0.000346411,,,,,,
672.465,0.007399596,0,0,0,0.000455507,,,,,,
682.498,0.007357717,0,0,0,0.000390257,,,,,,
692.525,0.00734333,0,0,0,0.000305392,,,,,,
702.554,0.006747526,0,0,0,0.000375047,,,,,,
712.422,0.007300222,0,0,0,0.000327259,,,,,,
722.458,0.006284964,0,0,0,0.000353113,,,,,,
732.489,0.007600134,0,0,0,0.000463441,,,,,,
742.522,0.006751649,0,0,0,0.000361608,,,,,,
752.555,0.007495446,0,0,0,0.000382337,,,,,,
762.423,0.007042791,0,0,0,0.000286203,,,,,,
772.458,0.006771718,0,0,0,0.000331102,,,,,,
782.489,0.006898723,0,0,0,0.00033621,,,,,,
792.521,0.006978912,0,0,0,0.000316192,,,,,,
802.548,0.0072178,0,0,0,0.000306488,,,,,,
812.573,0.00693189,0,0,0,0.000301655,,,,,,
822.6,0.006849391,0,0,0,0.000495707,,,,,,
832.548,0.00726145,0,0,0,0.000413054,,,,,,
842.493,0.006625417,0,0,0,0.000283579,,,,,,
852.524,0.007743629,0,0,0,0.000481312,,,,,,
862.387,0.006804319,0,0,0,0.000299314,,,,,,
872.417,0.006952873,0,0,0,0.000245522,,,,,,
882.445,0.007264931,0,0,0,0.000399108,,,,,,
892.477,0.006996043,0,0,0,0.000298465,,,,,,
902.507,0.006832108,0,0,0,0.000269154,,,,,,
912.535,0.006936617,0,0,0,0.000250706,,,,,,
922.478,0.006906759,0,0,0,0.000241672,,,,,,
932.423,0.007171452,0,0,0,0.000265281,,,,,,
942.45,0.00697033,0,0,0,0.000333976,,,,,,
952.484,0.006412585,0,0,0,0.000306831,,,,,,
962.512,0.006545263,0,0,0,0.000275566,,,,,,
972.538,0.006652724,0,0,0,0.00028349,,,,,,
982.568,0.006637542,0,0,0,0.000315144,,,,,,
992.6,0.006825153,0,0,0,0.000316731,,,,,,
1002.63,0.006440976,0,0,0,0.000262823,,,,,,
1012.49,0.006112104,0,0,0,0.000504325,,,,,,
1022.52,0.00677334,0,0,0,0.000315091,,,,,,
1032.38,0.005904874,0,0,0,0.000285201,,,,,,
1042.42,0.006150418,0,0,0,0.000359261,,,,,,
1052.45,0.006107616,0,0,0,0.000424447,,,,,,
1062.48,0.005908161,0,0,0,0.000353434,,,,,,
1072.52,0.005449158,0,0,0,0.000239147,,,,,,
1082.46,0.005488405,0,0,0,0.000408713,,,,,,
1092.41,0.005297237,0,0,0,0.000348249,,,,,,
1102.44,0.004792896,0,0,0,0.000278351,,,,,,
1112.47,0.005005179,0,0,0,0.000389307,,,,,,
1122.5,0.004373915,0,0,0,0.000330411,,,,,,
1132.53,0.004766959,0,0,0,0.000371124,,,,,,
1142.56,0.00439553,0,0,0,0.000502216,,,,,,
1152.58,0.004146942,0,0,0,0.000333447,,,,,,
1162.61,0.004071744,0,0,0,0.000471701,,,,,,
1172.64,0.003880335,0,0,0,0.00046103,,,,,,
1182.59,0.0037243,0,0,0,0.000434938,,,,,,
1192.36,0.003471801,0,0,0,0.000392601,,,,,,
1202.4,0.003444591,0,0,0,0.000368149,,,,,,
1212.43,0.002558952,0,0,0,0.000391452,,,,,,
1222.46,0.002867144,0,0,0,0.000240127,,,,,,
1232.49,0.002465634,0,0,0,0.000329903,,,,,,
1242.52,0.002742845,0,0,0,0.000293195,,,,,,
1252.39,0.002031831,0,0,0,0.000270302,,,,,,
1262.42,0.001619913,0,0,0,0.000313473,,,,,,
1272.44,0.001422879,0,0,0,0.000279825,,,,,,
1282.48,0.002200714,0,0,0,0.000244517,,,,,,
1292.5,0.00154366,0,0,0,0.000308034,,,,,,
1302.53,0.001580303,0,0,0,0.000346075,,,,,,
1312.56,0.001131464,0,0,0,0.000227463,,,,,,
1322.59,0.001236126,0,0,0,0.000230489,,,,,,
1332.62,0.000909401,0,0,0,0.000235263,,,,,,
1342.65,0.001027229,0,0,0,0.000237798,,,,,,
1352.67,0.000966789,0,0,0,0.000187812,,,,,,
1362.45,0.000772343,0,0,0,0.00027106,,,,,,
1372.4,0.000407457,0,0,0,0.000228462,,,,,,
1382.43,0.000630153,0,0,0,0.000147959,,,,,,
1392.46,0.000784031,0,0,0,0.000125058,,,,,,
1402.49,0.000809679,0,0,0,0.000140504,,,,,,
1412.44,0.000850405,0,0,0,0.000159049,,,,,,
1422.39,0.000405341,0,0,0,9.85E-05,,,,,,
1432.41,0.000184743,0,0,0,0.000139666,,,,,,
1442.44,0.000256977,0,0,0,0.000151849,,,,,,
1452.48,0.000455227,0,0,0,0.00026911,,,,,,
1462.5,0.000459946,0,0,0,0.000121643,,,,,,
1472.53,0.000389098,0,0,0,0.000120056,,,,,,
1482.56,0.000145924,0,0,0,0.000178683,,,,,,
1492.59,0.000233954,0,0,0,0.000180943,,,,,,
1502.62,0.000171309,0,0,0,0.000203038,,,,,,
1512.66,0.000340532,0,0,0,0.00011236,,,,,,
1522.61,0.000270272,0,0,0,0.000137006,,,,,,
1532.38,0.000255886,0,0,0,0.000102994,,,,,,
1542.41,8.77E-05,0,0,0,0.000159325,,,,,,
1552.44,0.00020779,0,0,0,0.000129431,,,,,,
1562.47,0.000567547,0,0,0,0.000356085,,,,,,
1572.5,0.000299756,0,0,0,0.000216309,,,,,,
1582.52,1.83E-05,0,0,0,0.000155955,,,,,,
1592.39,-0.000178477,0,0,0,0.000210462,,,,,,
1602.41,0.000163166,0,0,0,0.000240251,,,,,,
1612.44,0.000308098,0,0,0,0.000138209,,,,,,
1622.46,-1.13E-05,0,0,0,0.000161153,,,,,,
1632.49,0.000153312,0,0,0,0.000164803,,,,,,
1642.52,0.000226947,0,0,0,0.00010308,,,,,,
1652.55,5.52E-05,0,0,0,0.000160518,,,,,,
1662.57,0.000584407,0,0,0,0.000300068,,,,,,
1672.6,0.000533149,0,0,0,0.000375924,,,,,,
1682.55,-0.000162649,0,0,0,0.000244549,,,,,,

File: UMD_CAPA_25kW_Temp.csv
Relative Time [s],Mass,"Temp_avg, all4 [K]",Error
[s],[g],[K],[K]
0,0,297.549,0.87668
6.517,0,297.417,0.871174
13.035,0,297.545,0.913942
19.554,0,298.355,0.956617
26.071,0,300.236,1.01545
32.589,0,303.246,1.04107
39.105,0,307.175,1.1197
45.623,0,311.941,1.19828
52.14,0,316.785,1.27114
58.658,0,322.354,1.32746
65.176,0,328.238,1.33665
71.693,0,334.147,1.40562
78.211,0,339.958,1.46937
84.728,0,345.836,1.49285
91.246,0,351.639,1.51054
97.763,0,357.274,1.51747
104.281,0,362.959,1.53188
110.797,0,368.388,1.53839
117.316,0,373.564,1.5446
123.835,0,378.314,1.46834
130.351,0,382.379,1.34981
136.869,0,386.084,1.14911
143.386,0,390.162,1.1262
149.904,0,394.264,1.20765
156.422,0,398.467,1.28553
162.94,0,402.376,1.25005
169.458,0,406.008,1.23515
175.975,0,409.503,1.19125
182.492,0,413.136,1.20969
189.01,0,416.653,1.21
195.528,0,419.997,1.20044
202.045,0,423.342,1.22081
208.562,0,426.479,1.202
215.08,0,429.5,1.18167
221.597,0,432.488,1.19649
228.115,0,435.327,1.23057
234.632,0,437.969,1.22774
241.282,0,440.51,1.21312
247.8,0,442.493,1.21176
254.318,0,444.086,1.38742
260.836,0,446.409,1.43246
267.354,0,448.686,1.46486
273.872,0,450.807,1.46518
280.389,0,452.841,1.47942
286.907,0,454.831,1.4755
293.424,0,456.816,1.48313
299.942,0,458.633,1.4949
306.459,0,460.451,1.48959
312.977,0,462.297,1.47824
319.494,0,464.005,1.47534
326.012,0,465.712,1.47501
332.53,0,467.435,1.50387
339.046,0,468.966,1.52347
345.564,0,470.426,1.52716
352.081,0,471.781,1.50541
358.599,0,473.121,1.51718
365.249,0,474.76,1.50581
371.767,0,476.089,1.43897
378.285,0,477.301,1.45232
384.802,0,478.49,1.43484
391.32,0,479.557,1.35974
397.837,0,480.977,1.35473
404.355,0,482.238,1.351
410.873,0,483.575,1.34662
417.39,0,484.652,1.3299
424.041,0,485.775,1.32236
430.559,0,486.712,1.29584
437.076,0,487.659,1.30577
443.593,0,488.605,1.31865
450.111,0,489.657,1.31017
456.628,0,490.643,1.32589
463.146,0,491.422,1.35145
469.663,0,492.214,1.38419
476.181,0,493.046,1.34815
482.698,0,493.95,1.31201
489.349,0,494.995,1.33845
495.867,0,495.837,1.34744
502.384,0,496.684,1.30635
508.902,0,497.643,1.33867
515.419,0,498.457,1.35539
521.937,0,499.491,1.38022
528.454,0,500.405,1.38264
534.972,0,501.141,1.33176
541.489,0,501.989,1.4347
548.007,0,502.833,1.4247
554.525,0,504.01,1.46166
561.042,0,504.868,1.44135
567.56,0,505.905,1.49134
574.077,0,506.827,1.47539
580.595,0,507.664,1.50873
587.112,0,508.915,1.60032
593.63,0,509.916,1.6405
600.147,0,510.818,1.62547
606.665,0,511.855,1.64784
613.182,0,512.686,1.77808
619.833,0,513.554,1.80883
626.353,0,514.869,1.88373
632.868,0,515.58,1.81729
639.386,0,516.621,1.83763
645.903,0,517.487,1.84294
652.421,0,518.333,1.82506
658.938,0,519.412,1.94148
665.456,0,520.267,2.02381
671.973,0,521.261,2.01322
678.491,0,522.308,2.08002
685.011,0,523.147,2.1322
691.526,0,523.991,2.13987
698.044,0,525.182,2.23116
704.561,0,526.14,2.2444
711.214,0,526.818,2.27166
717.731,0,528.049,2.30645
724.249,0,529.044,2.29091
730.766,0,529.592,2.2585
737.284,0,530.786,2.3452
743.801,0,531.743,2.36706
750.317,0,532.62,2.41015
756.835,0,533.66,2.42644
763.352,0,534.546,2.47783
769.87,0,535.403,2.47899
776.387,0,536.267,2.52232
782.905,0,536.944,2.56903
789.422,0,537.818,2.61109
795.94,0,538.226,2.64196
802.459,0,539.162,2.67605
808.977,0,540.285,2.80399
815.494,0,540.696,2.71068
822.012,0,541.29,2.81411
828.662,0,542.143,2.79511
835.179,0,542.446,2.82748
841.696,0,543.365,2.92169
848.213,0,543.898,2.85476
854.731,0,544.807,2.97112
861.248,0,545.337,3.11394
867.766,0,545.716,3.10347
874.283,0,545.984,3.12831
880.801,0,546.574,3.21269
887.318,0,546.832,3.10246
893.836,0,547.882,3.15312
900.353,0,548.94,2.99805
907.004,0,550.039,2.94775
913.522,0,551.14,2.81614
920.039,0,552.706,2.61433
926.557,0,553.817,2.574
933.074,0,554.076,2.41936
939.592,0,555.529,2.58368
946.109,0,557.097,2.74738
952.627,0,558.514,2.78675
959.144,0,560.475,2.87318
965.662,0,561.758,2.78191
972.179,0,562.908,2.88132
978.697,0,564.295,2.93673
985.481,0,566.025,2.99069
991.998,0,569.495,3.58807
998.516,0,571.089,4.02155
1005.033,0,573.26,4.22013
1011.551,0,574.993,4.50944
1018.068,0,576.177,4.71557
1024.586,0,577.92,4.84268
1031.103,0,579.845,4.94527
1037.621,0,580.716,4.92505
1044.138,0,582.187,5.10287
1050.656,0,584.162,5.25826
1057.173,0,586.156,5.46698
1063.691,0,587.833,5.60465
1070.475,0,589.231,5.72746
1076.992,0,590.935,5.90883
1083.509,0,592.249,6.09388
1090.027,0,594.223,6.19707
1096.545,0,597.076,6.05861
1103.062,0,599.574,6.09765
1109.58,0,601.377,6.02824
1116.099,0,602.754,6.12827
1122.617,0,604.837,6.16907
1129.134,0,606.63,6.26047
1135.652,0,607.928,6.27462
1142.168,0,609.757,6.14999
1148.686,0,611.648,6.32628
1155.204,0,613.77,6.13696
1161.721,0,614.822,6.13521
1168.239,0,616.863,6.4764
1174.756,0,618.533,5.91587
1181.273,0,620.654,5.89636
1187.79,0,622.467,5.74598
1194.308,0,624.27,5.56713
1200.825,0,625.642,5.33333
1207.343,0,627.574,5.59774
1213.86,0,629.831,5.42052
1220.378,0,630.628,5.25686
1226.897,0,632.366,5.18715
1233.416,0,634.217,5.10539
1239.932,0,635.684,4.96971
1246.716,0,637.123,5.01084
1253.233,0,638.732,4.88897
1259.751,0,639.97,4.65166
1266.268,0,641.541,4.49242
1272.786,0,642.952,3.99788
1279.304,0,644.462,3.6081
1285.82,0,646.061,3.89783
1292.338,0,647.899,3.78695
1298.854,0,649.347,3.66254
1305.372,0,650.655,3.56976
1311.889,0,651.5,3.35376
1318.409,0,652.786,3.35978
1324.924,0,653.929,3.21602
1331.442,0,653.998,2.93758
1337.959,0,655.014,2.88219
1344.477,0,656.463,2.87927
1350.994,0,657.601,2.84944
1357.512,0,657.565,2.71716
1364.031,0,658.424,2.74595
1370.548,0,658.955,2.53532
1377.065,0,660.287,2.69888
1383.584,0,660.953,2.5533
1390.101,0,660.527,2.42198
1396.618,0,661.221,2.36169
1403.136,0,662.093,2.347
1409.652,0,662.94,2.45483
1416.172,0,662.803,2.36168
1422.687,0,663.112,2.32269
1429.205,0,662.856,2.20233
1435.724,0,663.213,2.21582
1442.242,0,663.915,2.27082
1448.759,0,663.677,2.20232
1455.277,0,663.802,2.18605
1461.794,0,664.894,2.25089
1468.312,0,665.688,2.40652
1474.829,0,665.104,2.2299
1481.346,0,664.986,2.23388
1487.864,0,666.054,2.2679
1494.38,0,665.566,2.13104
1500.897,0,665.282,2.12611
1507.417,0,667.032,2.20973
1513.933,0,666.902,2.2536
1520.452,0,667.308,2.50734
1526.97,0,667.253,2.27405
1533.487,0,666.412,2.101
1540.005,0,666.408,2.30293
1546.521,0,666.327,2.40892
1553.038,0,667.256,2.256
1559.688,0,667.262,2.35166
1566.206,0,666.807,2.1529
1572.723,0,667.112,2.05296
1579.241,0,667.236,2.29989
1585.758,0,666.067,2.15821
1592.278,0,666.602,2.25083
1598.795,0,667.308,2.11454
1605.311,0,666.852,2.161
1611.966,0,667.478,2.40247
1618.613,0,667.533,2.33655
1625.131,0,668.364,2.38772
1631.649,0,667.022,2.16001
1638.164,0,667.003,2.4065
1644.684,0,667.069,2.22912
1651.201,0,666.795,2.1656
1657.717,0,667.712,2.06558
1664.236,0,667.241,2.24481
1670.886,0,667.336,2.37408
1677.403,0,666.614,2.33667
1682.059,0,666.613,2.37677

File: UMD_CAPA_25kWm2_MLR.csv
Mean Time [s],Mean MLR [kg/s/m^2],MLR_error [kg/s/m^2]
2.493585,-0.000938839,0.000540742
12.4411,0.000468942,0.000117623
22.3921,0.0004123,0.000121883
32.4232,0.000292289,8.77E-05
42.458,0.000253962,0.00017945
52.49583,0.000330686,0.000146755
62.5256,2.45E-05,0.000236052
72.5581,0.0003016,0.000152919
82.587,0.000213859,0.000126045
92.6179,0.000315268,0.00022529
102.65,0.000388278,0.000106028
112.68,0.000310262,0.000101064
122.715,0.000726266,0.000183317
132.499,0.000484197,0.000211978
142.278,0.001308147,0.000133317
152.314,0.001452347,0.000141828
162.348,0.001610469,0.000155318
172.377,0.002275585,0.000128158
182.409,0.003193513,0.000287445
192.441,0.003280541,0.000381812
202.47,0.003515247,0.000284727
212.5,0.004345897,0.000281083
222.531,0.004128328,0.000276753
232.563,0.004591777,0.000257827
242.592,0.004519994,0.000249993
252.624,0.005392246,0.000294357
262.651,0.00519802,0.000325449
272.68,0.00556278,0.000345061
282.627,0.005412027,0.000430688
292.572,0.005960452,0.000296702
302.435,0.005804532,0.000277453
312.376,0.005897648,0.000389319
322.329,0.006234084,0.000410814
332.363,0.005478886,0.000368106
342.397,0.006854029,0.000417884
352.43,0.006679915,0.000386477
362.464,0.006592617,0.000345284
372.497,0.006262168,0.000480806
382.53,0.006842806,0.000331439
392.56,0.006984449,0.000349038
402.589,0.00626725,0.000437754
412.621,0.008316793,0.000356153
422.652,0.006823627,0.000391952
432.683,0.007400208,0.000378544
442.381,0.007067332,0.000269531
452.416,0.007037665,0.000274886
462.447,0.00655642,0.000394711
472.476,0.007109928,0.000352595
482.418,0.007571637,0.000359444
492.368,0.007281411,0.000320934
502.403,0.007274772,0.000299438
512.437,0.007803093,0.0003373
522.467,0.007545438,0.000234185
532.498,0.006366305,0.000415614
542.533,0.007241456,0.000332137
552.566,0.007237778,0.000266435
562.594,0.007032848,0.000305445
572.547,0.007238977,0.000256291
582.501,0.007228486,0.000257477
592.537,0.007384795,0.000209308
602.573,0.007558178,0.000335539
612.44,0.007055606,0.000291401
622.477,0.007150828,0.000328408
632.51,0.007041907,0.000256249
642.54,0.007089974,0.000288078
652.5697,0.006994963,0.000301943
662.52,0.006684625,0.000346411
672.465,0.007399596,0.000455507
682.498,0.007357717,0.000390257
692.525,0.00734333,0.000305392
702.554,0.006747526,0.000375047
712.422,0.007300222,0.000327259
722.458,0.006284964,0.000353113
732.489,0.007600134,0.000463441
742.522,0.006751649,0.000361608
752.555,0.007495446,0.000382337
762.423,0.007042791,0.000286203
772.458,0.006771718,0.000331102
782.489,0.006898723,0.00033621
792.521,0.006978912,0.000316192
802.548,0.0072178,0.000306488
812.573,0.00693189,0.000301655
822.6,0.006849391,0.000495707
832.548,0.00726145,0.000413054
842.493,0.006625417,0.000283579
852.524,0.007743629,0.000481312
862.387,0.006804319,0.000299314
872.417,0.006952873,0.000245522
882.445,0.007264931,0.000399108
892.477,0.006996043,0.000298465
902.507,0.006832108,0.000269154
912.535,0.006936617,0.000250706
922.478,0.006906759,0.000241672
932.423,0.007171452,0.000265281
942.45,0.00697033,0.000333976
952.484,0.006412585,0.000306831
962.512,0.006545263,0.000275566
972.538,0.006652724,0.00028349
982.568,0.006637542,0.000315144
992.6,0.006825153,0.000316731
1002.63,0.006440976,0.000262823
1012.49,0.006112104,0.000504325
1022.52,0.00677334,0.000315091
1032.38,0.005904874,0.000285201
1042.42,0.006150418,0.000359261
1052.45,0.006107616,0.000424447
1062.48,0.005908161,0.000353434
1072.52,0.005449158,0.000239147
1082.46,0.005488405,0.000408713
1092.41,0.005297237,0.000348249
1102.44,0.004792896,0.000278351
1112.47,0.005005179,0.000389307
1122.5,0.004373915,0.000330411
1132.53,0.004766959,0.000371124
1142.56,0.00439553,0.000502216
1152.58,0.004146942,0.000333447
1162.61,0.004071744,0.000471701
1172.64,0.003880335,0.00046103
1182.59,0.0037243,0.000434938
1192.36,0.003471801,0.000392601
1202.4,0.003444591,0.000368149
1212.43,0.002558952,0.000391452
1222.46,0.002867144,0.000240127
1232.49,0.002465634,0.000329903
1242.52,0.002742845,0.000293195
1252.39,0.002031831,0.000270302
1262.42,0.001619913,0.000313473
1272.44,0.001422879,0.000279825
1282.48,0.002200714,0.000244517
1292.5,0.00154366,0.000308034
1302.53,0.001580303,0.000346075
1312.56,0.001131464,0.000227463
1322.59,0.001236126,0.000230489
1332.62,0.000909401,0.000235263
1342.65,0.001027229,0.000237798
1352.67,0.000966789,0.000187812
1362.45,0.000772343,0.00027106
1372.4,0.000407457,0.000228462
1382.43,0.000630153,0.000147959
1392.46,0.000784031,0.000125058
1402.49,0.000809679,0.000140504
1412.44,0.000850405,0.000159049
1422.39,0.000405341,9.85E-05
1432.41,0.000184743,0.000139666
1442.44,0.000256977,0.000151849
1452.48,0.000455227,0.00026911
1462.5,0.000459946,0.000121643
1472.53,0.000389098,0.000120056
1482.56,0.000145924,0.000178683
1492.59,0.000233954,0.000180943
1502.62,0.000171309,0.000203038
1512.66,0.000340532,0.00011236
1522.61,0.000270272,0.000137006
1532.38,0.000255886,0.000102994
1542.41,8.77E-05,0.000159325
1552.44,0.00020779,0.000129431
1562.47,0.000567547,0.000356085
1572.5,0.000299756,0.000216309
1582.52,1.83E-05,0.000155955
1592.39,-0.000178477,0.000210462
1602.41,0.000163166,0.000240251
1612.44,0.000308098,0.000138209
1622.46,-1.13E-05,0.000161153
1632.49,0.000153312,0.000164803
1642.52,0.000226947,0.00010308
1652.55,5.52E-05,0.000160518
1662.57,0.000584407,0.000300068
1672.6,0.000533149,0.000375924
1682.55,-0.000162649,0.000244549