Folder: matl-db/Non-charring/PMMA/UMD (part 2)

File: UMD_CAPA_25kWm2_Temp.csv
Relative Time [s],"Temp_avg, all4 [K]",Error [K]
0,297.549,0.87668
5.719,297.501,0.896278
11.439,297.488,0.940489
17.158,297.903,0.903345
22.879,299.168,0.968539
28.598,301.256,1.03457
34.318,304.302,1.05557
40.036,307.852,1.13419
45.756,312.026,1.19862
51.475,316.114,1.18091
57.195,321.125,1.3188
62.914,326.256,1.35812
68.634,331.32,1.38812
74.353,336.417,1.4402
80.073,341.558,1.45378
85.792,346.803,1.49309
91.512,351.89,1.51582
97.231,356.619,1.42523
102.951,361.788,1.54807
108.669,366.657,1.54835
114.389,371.309,1.54668
120.11,375.61,1.51125
125.83,379.619,1.41281
131.548,383.045,1.30518
137.268,386.339,1.14663
142.987,389.937,1.13897
148.707,393.489,1.19078
154.426,397.146,1.25775
160.146,400.762,1.28019
165.866,404.04,1.24168
171.586,407.045,1.22303
177.304,410.239,1.17797
183.024,413.35,1.24187
188.744,416.512,1.20162
194.464,419.423,1.19172
200.184,422.471,1.21706
205.903,425.22,1.21014
211.621,427.903,1.2001
217.341,430.556,1.19501
223.06,433.145,1.19759
228.78,435.618,1.2348
234.499,437.928,1.23104
240.351,440.164,1.23604
246.071,442.097,1.17486
251.791,443.306,1.31813
257.51,445.231,1.42024
263.231,447.222,1.43972
268.95,449.195,1.45935
274.67,451.114,1.45744
280.389,452.841,1.47942
286.109,454.652,1.48357
291.828,456.383,1.49303
297.548,457.981,1.48985
303.267,459.515,1.47568
308.987,461.229,1.48403
314.706,462.842,1.50739
320.425,464.293,1.47185
326.145,465.752,1.47425
331.865,467.25,1.49994
337.583,468.659,1.53714
343.303,469.978,1.52769
349.022,471.115,1.53372
354.742,472.328,1.51195
360.461,473.54,1.53462
366.314,474.868,1.50064
372.033,476.169,1.44442
377.753,477.221,1.4356
383.472,478.257,1.45012
389.192,479.067,1.4433
394.911,480.413,1.35116
400.63,481.65,1.37696
406.35,482.804,1.34616
412.069,483.728,1.33735
417.789,484.667,1.31217
423.641,485.656,1.33661
429.362,486.521,1.31197
435.081,487.271,1.32226
440.8,488.126,1.29659
446.519,489.23,1.34231
452.239,489.999,1.30356
457.958,490.789,1.3101
463.678,491.488,1.34305
469.397,492.147,1.37815
475.117,492.927,1.371
480.836,493.762,1.33959
486.689,494.503,1.32835
492.408,495.362,1.37205
498.128,496.185,1.35307
503.847,497.001,1.32278
509.567,497.691,1.33213
515.286,498.432,1.35923
521.006,499.292,1.35063
526.725,500.08,1.36676
532.445,501.045,1.347
538.164,501.719,1.39685
543.884,502.338,1.42094
549.603,503.152,1.40389
555.323,504.069,1.4389
561.042,504.868,1.44135
566.762,505.86,1.51785
572.481,506.598,1.46777
578.201,507.475,1.53495
583.92,508.418,1.54644
589.639,509.283,1.63238
595.359,510.127,1.67208
601.078,511.078,1.66309
606.798,511.842,1.65747
612.517,512.544,1.80018
618.37,513.359,1.8047
624.089,514.399,1.82176
629.81,515.17,1.84783
635.528,516.166,1.84502
641.248,516.91,1.85134
646.967,517.804,1.85842
652.687,518.34,1.84217
658.406,519.315,1.9305
664.126,520.046,1.97193
669.845,521.115,2.06592
675.565,521.879,2.12102
681.284,522.706,2.08831
687.004,523.353,2.10875
692.723,524.257,2.16308
698.443,525.13,2.22046
704.162,526.165,2.26766
710.017,526.55,2.24677
715.736,527.779,2.33187
721.456,528.612,2.25063
727.175,529.244,2.21148
732.894,530.016,2.27497
738.614,530.902,2.32849
744.332,531.682,2.34963
750.051,532.529,2.41696
755.77,533.389,2.4118
761.49,534.313,2.45744
767.211,535.005,2.46073
772.929,535.754,2.47412
778.648,536.317,2.51956
784.368,537.105,2.56396
790.088,537.81,2.63125
795.807,538.222,2.63157
801.528,539.104,2.69787
807.248,539.817,2.73034
812.967,540.426,2.55712
818.687,541.104,2.79076
824.406,541.361,2.71048
830.258,542.119,2.78952
835.977,542.533,2.84132
841.696,543.365,2.92169
847.415,543.953,2.90134
853.135,544.712,2.96927
858.854,545.21,3.0344
864.574,545.494,3.0744
870.293,545.655,3.04845
876.012,546.177,3.15358
881.732,546.518,3.19977
887.451,546.853,3.1103
893.171,547.777,3.10203
898.89,549.194,3.03932
904.743,549.75,2.95746
910.462,550.542,2.77724
916.182,551.582,2.72715
921.901,553.059,2.64827
927.623,553.944,2.56168
933.34,554.074,2.40263
939.06,555.354,2.55438
944.779,556.741,2.7354
950.499,558.211,2.80866
956.218,559.627,2.84138
961.938,561.016,2.86329
967.657,562.034,2.78939
973.376,563.242,2.80724
979.096,564.417,2.95351
985.082,565.591,2.90626
990.801,569.029,3.50594
996.52,570.845,3.96851
1002.24,572.368,4.1915
1007.959,574.175,4.3842
1013.679,575.581,4.6095
1019.398,576.482,4.68088
1025.118,578.176,4.85153
1030.837,579.858,4.95731
1036.557,580.813,4.98672
1042.276,581.781,5.03221
1047.996,583.044,5.06798
1053.715,584.8,5.17071
1059.435,586.536,5.40793
1065.154,588.396,5.7779
1071.14,589.367,5.76922
1076.859,590.934,5.9012
1082.579,592.052,6.05807
1088.298,593.641,6.1252
1094.017,596.167,6.10263
1099.737,598.19,6.15297
1105.456,600.105,5.86483
1111.176,601.859,6.05822
1116.897,603.046,6.15265
1122.617,604.837,6.16907
1128.336,606.545,6.3655
1134.056,607.64,6.29623
1139.774,609.414,6.16052
1145.494,611.044,6.18762
1151.213,612.625,6.20249
1156.933,614.326,6.19656
1162.652,615.231,6.20997
1168.372,616.777,6.41274
1174.09,618.356,6.0229
1179.809,619.726,5.82366
1185.529,621.256,5.57526
1191.248,623.216,5.5991
1196.968,625.34,5.52924
1202.687,626.603,5.48116
1208.407,627.685,5.55127
1214.126,629.858,5.37176
1219.846,630.652,5.28833
1225.567,631.311,5.01425
1231.287,634.074,5.36816
1237.006,634.908,4.91656
1242.725,636.269,4.97379
1248.711,637.114,4.75416
1254.43,638.93,4.83355
1260.15,640.055,4.69092
1265.87,641.316,4.4876
1271.589,642.752,3.98651
1277.308,644.138,3.95911
1283.028,645.566,3.75063
1288.746,647.509,3.92497
1294.465,648.048,3.66388
1300.184,650.05,3.8281
1305.904,650.709,3.51926
1311.623,651.501,3.37565
1317.345,652.56,3.31666
1323.064,653.436,3.43399
1328.782,654.049,3.11478
1334.501,654.586,3.02129
1340.22,655.397,2.90486
1345.94,656.622,2.82518
1351.659,657.333,2.88449
1357.379,657.566,2.72494
1363.1,658.416,2.72157
1368.819,659.154,2.68632
1374.538,659.698,2.53311
1380.258,659.713,2.51687
1385.978,660.971,2.49812
1391.697,660.687,2.41568
1397.416,661.35,2.29915
1403.136,662.093,2.347
1408.854,662.71,2.41757
1414.575,662.554,2.22358
1420.295,662.586,2.24922
1426.012,663.667,2.28885
1431.734,663.184,2.21438
1437.453,662.834,2.14154
1443.173,663.987,2.30981
1448.892,663.767,2.21962
1454.612,663.598,2.16842
1460.331,664.67,2.3079
1466.051,665.014,2.29299
1471.77,664.823,2.35574
1477.49,664.781,2.14963
1483.209,665.078,2.23703
1488.928,665.796,2.20147
1494.646,665.473,2.10018
1500.365,665.273,2.08476
1506.087,667.14,2.37089
1511.805,666.184,2.19163
1517.525,666.86,2.33365
1523.245,667.514,2.3715
1528.965,666.789,2.05522
1534.684,666.096,2.07345
1540.404,666.6,2.37966
1546.122,666.542,2.37394
1551.842,667.15,2.21694
1557.693,666.857,2.14317
1563.412,667.039,2.21129
1569.132,666.89,2.13318
1574.852,667.027,2.17345
1580.571,666.864,2.33044
1586.29,666.293,2.12649
1592.012,666.731,2.25435
1597.731,667.733,2.2486
1603.449,667.381,2.47352
1609.42,666.57,2.32755
1615.159,667.797,2.41555
1620.874,667.314,2.38396
1626.594,667.596,2.22955
1632.314,666.395,2.27307
1638.031,667.174,2.39067
1643.753,666.953,2.20081
1649.472,667.159,2.35892
1655.191,667.275,2.4024
1660.909,667.641,2.3781
1666.63,667.901,2.4982
1672.482,666.657,2.35126
1678.202,666.207,2.30283
1682.857,666.614,2.32432

File: UMD_CAPA_60kW_Mass.csv
Time,MLR_mean,"Temp_avg, all4",MLR_error,Temperature_Error
[s],[kg/s/m^2],[K],[kg/s/m^2],[K]
2.49315,-0.000260366,0,0.001030198,0
7.50806,-0.0002508,0,0.000454634,0
12.5234,0.001199156,0,0.000289296,0
17.5398,0.000973333,0,0.000337859,0
22.55627,0.004774699,0,0.000927216,0
27.57311,0.01073036,0,0.001089449,0
32.5914,0.0156333,0,0.00069556,0
37.6118,0.0172381,0,0.00058606,0
42.6298,0.01814478,0,0.000399137,0
47.64548,0.0189136,0,0.000304719,0
52.6607,0.0205649,0,0.000364624,0
57.6754,0.0209623,0,0.000343216,0
62.5681,0.0226332,0,0.000691289,0
67.45539,0.02250719,0,0.000585457,0
72.4715,0.0228395,0,0.00071374,0
77.4877,0.0230462,0,0.000412467,0
82.5044,0.0221966,0,0.000592869,0
87.5186,0.023085,0,0.000342244,0
92.53275,0.0238895,0,0.000370589,0
97.54921,0.0241009,0,0.000748653,0
102.564,0.0234109,0,0.000630322,0
107.4496,0.0239424,0,0.0007359,0
112.342,0.0244553,0,0.000342419,0
117.36,0.0242955,0,0.000397993,0
122.377,0.0240836,0,0.000545008,0
127.394,0.02500547,0,0.000452827,0
132.409,0.0243988,0,0.000494299,0
137.423,0.0255058,0,0.000412429,0
142.439,0.0253787,0,0.000678547,0
147.456,0.0253273,0,0.000354926,0
152.47,0.0248779,0,0.00043408,0
157.485,0.0265038,0,0.000568927,0
162.5021,0.0262602,0,0.00040276,0
167.518,0.0267962,0,0.000324452,0
172.533,0.02711086,0,0.000432136,0
177.548,0.0273605,0,0.000420058,0
182.5651,0.02743618,0,0.000432462,0
187.581,0.0283264,0,0.000528299,0
192.599,0.0285004,0,0.000493924,0
197.616,0.028594,0,0.000610944,0
202.632,0.030101,0,0.000446942,0
207.647,0.0297525,0,0.000407067,0
212.663,0.0300825,0,0.000738712,0
217.678,0.0306388,0,0.000618145,0
222.691,0.0310901,0,0.000573707,0
227.585,0.0317358,0,0.000806875,0
232.471,0.0318161,0,0.000683193,0
237.486,0.0336127,0,0.000683338,0
242.505,0.0328179,0,0.000645993,0
247.399,0.0311889,0,0.000496448,0
252.298,0.0320065,0,0.000520398,0
257.316,0.031702,0,0.000572916,0
262.333,0.0317445,0,0.000656471,0
267.348,0.0295659,0,0.000658074,0
272.364,0.0279077,0,0.000555152,0
277.38,0.0214195,0,0.001515462,0
282.395,0.0194969,0,0.001064124,0
287.408,0.0122424,0,0.001137212,0
292.421,0.006669651,0,0.000769452,0
297.438,0.003084511,0,0.000419058,0
302.455,0.002055262,0,0.00053601,0
307.471,0.000547483,0,0.000117617,0
312.488,0.000442644,0,0.000154365,0
317.505,-2.57E-05,0,7.59E-05,0
322.521,0.000402156,0,7.62E-05,0
327.536,0.000171301,0,0.000169722,0
332.551,6.63E-05,0,0.000103988,0
337.568,0.000357048,0,0.000233377,0
342.587,-0.000455311,0,0.000257242,0
347.606,0.000117551,0,0.000105651,0
352.625,0.000141132,0,6.95E-05,0
357.643,0.001402371,0,0.001084554,0
362.544,0.002002406,0,0.001226431,0

File: UMD_CAPA_60kW_Temp.csv
Time,MLR_mean,Temp_avg_all4,MLR_error,Temperature_Error
[s],[kg/s/m2],[K],[kg/s/m2],[K]
0,0,309.29,0,1.43844
1.197,0,309.43,0,1.4028
2.395,0,309.37,0,1.40859
3.592,0,309.512,0,1.38147
4.789,0,309.501,0,1.38033
5.986,0,309.394,0,1.41589
7.183,0,309.405,0,1.40905
8.38,0,309.361,0,1.37035
9.577,0,309.451,0,1.33353
10.775,0,309.523,0,1.35704
11.972,0,309.573,0,1.35477
13.169,0,309.625,0,1.33936
14.366,0,309.714,0,1.35904
15.564,0,309.908,0,1.38877
16.76,0,310.05,0,1.38406
17.958,0,310.381,0,1.37098
19.155,0,310.732,0,1.3633
20.352,0,311.091,0,1.38479
21.549,0,311.589,0,1.37129
22.746,0,312.21,0,1.36011
23.943,0,312.795,0,1.3431
25.14,0,313.405,0,1.39042
26.337,0,314.244,0,1.37856
27.534,0,315.022,0,1.3777
28.732,0,315.892,0,1.38612
29.929,0,316.816,0,1.38259
31.126,0,317.821,0,1.39212
32.323,0,318.866,0,1.39011
33.52,0,319.934,0,1.38476
34.717,0,321.051,0,1.39986
36.164,0,322.363,0,1.36224
37.306,0,323.674,0,1.38545
38.503,0,324.987,0,1.36833
39.64,0,326.162,0,1.37813
40.837,0,327.561,0,1.35974
42.034,0,328.903,0,1.3483
43.232,0,330.314,0,1.337
44.427,0,331.69,0,1.3265
45.624,0,333.173,0,1.28811
46.821,0,334.531,0,1.27174
48.151,0,335.465,0,1.04271
49.348,0,337.489,0,1.30295
50.545,0,338.914,0,1.32856
51.741,0,340.207,0,1.3467
52.938,0,341.713,0,1.36458
54.135,0,343.035,0,1.29562
55.333,0,344.192,0,1.24323
56.53,0,345.54,0,1.22766
57.727,0,347.104,0,1.33906
58.924,0,348.578,0,1.36946
60.121,0,349.861,0,1.37219
61.318,0,351.008,0,1.38483
62.515,0,352.334,0,1.38863
63.712,0,354.052,0,1.47212
64.909,0,355.075,0,1.52317
66.106,0,356.479,0,1.26665
67.304,0,357.493,0,1.42338
68.501,0,358.848,0,1.46531
69.698,0,360.481,0,1.27674
70.895,0,361.993,0,1.28962
72.092,0,363.333,0,1.47552
73.289,0,364.568,0,1.64338
74.486,0,365.923,0,1.48229
75.683,0,366.856,0,1.52057
76.88,0,367.832,0,1.36972
78.078,0,369.682,0,1.6191
79.274,0,370.403,0,1.51911
80.471,0,372.064,0,1.59253
81.669,0,373.123,0,1.60229
82.866,0,374.541,0,1.45835
84.063,0,375.66,0,1.73228
85.26,0,376.624,0,1.80888
86.457,0,377.856,0,1.66888
87.654,0,379.367,0,1.83
88.851,0,380.112,0,1.62312
90.048,0,381.248,0,1.8779
91.246,0,382.206,0,1.91177
92.442,0,383.289,0,2.00518
93.639,0,384.839,0,1.97758
94.837,0,385.668,0,1.94529
96.034,0,386.618,0,1.79248
97.231,0,387.911,0,1.83634
98.428,0,388.956,0,1.86045
99.625,0,389.925,0,1.62012
100.822,0,391.996,0,2.17542
102.019,0,393.811,0,2.16135
103.216,0,393.669,0,2.00409
104.413,0,395.146,0,1.75745
105.61,0,396.564,0,1.8056
106.807,0,398.156,0,1.76314
108.005,0,398.8,0,1.56106
109.202,0,399.828,0,1.30174
110.399,0,402.072,0,1.77681
111.596,0,402.255,0,1.4559
112.793,0,402.969,0,1.2475
113.99,0,404.678,0,1.31924
115.187,0,406.061,0,1.39543
116.384,0,407.189,0,1.33601
117.581,0,408.438,0,1.50641
118.778,0,410.123,0,1.07517
119.975,0,411.808,0,1.20213
121.171,0,413.741,0,1.07283
122.369,0,415.307,0,1.27913
123.566,0,415.908,0,1.20247
124.765,0,417.037,0,1.08934
125.962,0,418.44,0,1.19236
127.159,0,419.592,0,1.19273
128.356,0,421.604,0,1.0848
129.553,0,423.001,0,1.37206
130.75,0,424.75,0,1.53504
131.947,0,425.207,0,1.31821
133.144,0,426.315,0,1.12919
134.342,0,427.588,0,1.15593
135.539,0,428.289,0,0.938512
136.736,0,429.997,0,1.34723
137.933,0,431.87,0,1.05965
139.13,0,432.458,0,1.09129
140.327,0,434.489,0,1.04436
141.524,0,436.733,0,1.29293
142.721,0,437.914,0,1.02704
143.918,0,439.726,0,1.22003
145.115,0,440.524,0,1.45351
146.313,0,440.565,0,1.34811
147.509,0,441.934,0,1.13153
148.707,0,442.908,0,0.981215
149.904,0,444.127,0,1.26998
151.101,0,445.239,0,1.42977
152.298,0,446.517,0,1.50804
153.495,0,448.35,0,1.7325
154.692,0,449.049,0,1.55844
155.889,0,450.821,0,1.6552
157.086,0,450.996,0,1.86636
158.283,0,452.178,0,1.74413
159.48,0,452.473,0,1.54153
160.677,0,453.403,0,1.91268
161.875,0,454.886,0,1.71837
163.072,0,456.819,0,2.06411
164.269,0,456.616,0,2.23465
165.466,0,457.503,0,2.25833
166.663,0,459.274,0,2.06939
167.86,0,459.8,0,2.22994
169.057,0,461.07,0,2.41999
170.254,0,461.5,0,2.62104
171.451,0,462.952,0,3.2779
172.648,0,463.411,0,3.7154
173.846,0,465.12,0,3.58764
175.043,0,464.857,0,3.65389
176.24,0,465.259,0,4.39647
177.437,0,465.294,0,4.55504
178.634,0,466.099,0,4.66114
179.83,0,467.752,0,4.89357
181.027,0,468.831,0,4.76201
182.224,0,471.04,0,4.95643
183.421,0,471.733,0,4.90823
184.618,0,473.066,0,5.19001
185.816,0,475.613,0,5.83458
187.013,0,475.598,0,5.72417
188.21,0,476.449,0,5.2162
189.407,0,476.582,0,4.96612
190.604,0,477.953,0,4.79609
191.801,0,478.893,0,4.84061
192.998,0,479.867,0,4.89216
194.195,0,479.603,0,5.36213
195.392,0,482.459,0,5.39428
196.589,0,482.636,0,5.82946
197.786,0,484.214,0,5.28384
198.983,0,485.318,0,5.57924
200.181,0,485.837,0,4.79833
201.378,0,486.783,0,4.65433
202.575,0,488.093,0,4.96155
203.772,0,490.2,0,5.30252
204.968,0,490.889,0,5.60246
206.165,0,491.657,0,5.92655
207.362,0,492.405,0,5.88068
208.559,0,494.933,0,5.74532
209.756,0,494.804,0,5.45652
210.953,0,496.798,0,5.52064
212.15,0,498.006,0,5.14896
213.347,0,501.266,0,5.54205
214.545,0,501.552,0,5.37602
215.742,0,502.147,0,5.25813
216.939,0,503.611,0,6.23913
218.136,0,505.252,0,6.04438
219.333,0,506.899,0,5.76024
220.53,0,508.128,0,6.07574
221.727,0,508.717,0,5.5114
222.924,0,508.254,0,5.95317
224.121,0,511.225,0,5.81253
225.318,0,513.14,0,6.17722
226.516,0,514.472,0,5.99183
227.714,0,516.123,0,5.4635
228.911,0,518.484,0,5.76081
230.108,0,522.428,0,6.59451
231.305,0,524.744,0,6.55048
232.502,0,525.6427,0,5.92929
233.699,0,527.18,0,5.65833
234.896,0,531.114,0,5.80133
236.093,0,533.028,0,4.86458
237.29,0,536.769,0,5.7796
238.487,0,537.715,0,4.93658
239.684,0,543.189,0,5.38361
240.881,0,545.058,0,5.47509
242.079,0,549.643,0,5.50123
243.276,0,549.762,0,5.08757
244.473,0,552.94,0,4.50886
245.67,0,556.055,0,5.11258
246.867,0,558.001,0,4.64457
248.064,0,564.568,0,5.2858
249.261,0,565.705,0,5.14494
250.458,0,573.929,0,6.22219
251.655,0,574.102,0,5.96031
252.852,0,574.223,0,5.75767
254.049,0,577.341,0,6.07215
255.247,0,579.784,0,6.33308
256.444,0,584.252,0,6.22569
257.641,0,587.487,0,6.78106
258.838,0,591.225,0,7.83724
260.168,0,593.217,0,7.75497
261.365,0,597.61,0,8.24329
262.562,0,600.822,0,9.15247
263.759,0,601.956,0,9.96347
264.956,0,604.928,0,10.2161
266.153,0,608.964,0,11.0618
267.351,0,616.286,0,11.7689
268.548,0,621.338,0,12.5255
269.745,0,623.445,0,12.5026
270.942,0,631.812,0,13.4803
272.139,0,637.873,0,14.8151
273.336,0,647.304,0,16.2977
274.533,0,657.461,0,17.625
275.73,0,659.076,0,18.3976
276.927,0,670.181,0,19.8964
278.124,0,676.916,0,19.7944
279.321,0,681.391,0,19.5541
280.519,0,687.876,0,19.9583
281.716,0,702.01,0,19.6656
282.913,0,713.492,0,20.1058
284.11,0,721.091,0,19.4169
285.307,0,731.042,0,19.2094
286.504,0,725.046,0,19.4167
287.701,0,743.693,0,18.8241
288.898,0,747.116,0,15.1477
290.095,0,756.246,0,14.7857
291.292,0,753.862,0,13.8203
292.489,0,756.13,0,13.053
293.686,0,758.602,0,12.2331
294.884,0,765.707,0,9.95215
296.081,0,777.585,0,10.0595
297.278,0,777.828,0,8.31788
298.475,0,777.258,0,7.75128
299.672,0,785.365,0,9.35943
300.869,0,782.695,0,8.18621
302.066,0,782.669,0,7.12855
303.263,0,790.798,0,8.44865
304.46,0,789.795,0,7.75963
305.657,0,791.776,0,7.48729
306.854,0,792.038,0,7.52843
308.051,0,792.952,0,8.0553
309.249,0,797.761,0,6.74235
310.446,0,799.071,0,7.18521
311.643,0,796.279,0,6.90411
312.84,0,794.898,0,5.96892
314.17,0,799.443,0,6.49671
315.367,0,801.588,0,5.87247
316.564,0,803.598,0,5.75384
317.761,0,805.082,0,6.43181
318.958,0,807.437,0,6.61659
320.155,0,809.991,0,6.58912
321.353,0,810.933,0,6.80584
322.55,0,815.875,0,7.30761
323.747,0,818.355,0,8.00739
324.944,0,816.671,0,7.87166
326.141,0,816.748,0,7.88381
327.338,0,819.466,0,8.27591
328.535,0,818.844,0,8.55148
329.732,0,818.683,0,8.76566
330.929,0,820.06,0,9.19831
332.126,0,820.291,0,8.89667
333.323,0,818.272,0,9.55477
334.521,0,819.419,0,9.86389
335.718,0,821.329,0,10.1389
336.915,0,821.456,0,10.4139
338.112,0,820.674,0,11.1247
339.309,0,820.339,0,11.8462
340.506,0,819.748,0,11.5243
341.703,0,818.96,0,11.9089
342.9,0,817.798,0,12.3622
344.097,0,818.384,0,12.0886
345.294,0,817.615,0,12.4751
346.491,0,817.173,0,12.8219
347.689,0,816.823,0,12.9698
348.886,0,814.709,0,13.4348
350.083,0,815.486,0,14.4508
351.28,0,814.885,0,14.8269
352.477,0,812.673,0,15.8026
353.674,0,810.948,0,15.4911
354.871,0,811.78,0,15.3898
356.068,0,810.125,0,15.3536
357.265,0,811.277,0,16.0939
358.462,0,808.565,0,16.6179
358.595,0,808.288,0,16.7062

File: UMD_CAPA_60kWm2_MLR.csv
Mean Time [s],Mean MLR [kg/s/m^2],MLR_error [kg/s/m^2]
2.49315,-0.000260366,0.001030198
7.50806,-0.0002508,0.000454634
12.5234,0.001199156,0.000289296
17.5398,0.000973333,0.000337859
22.55627,0.004774699,0.000927216
27.57311,0.01073036,0.001089449
32.5914,0.0156333,0.00069556
37.6118,0.0172381,0.00058606
42.6298,0.01814478,0.000399137
47.64548,0.0189136,0.000304719
52.6607,0.0205649,0.000364624
57.6754,0.0209623,0.000343216
62.5681,0.0226332,0.000691289
67.45539,0.02250719,0.000585457
72.4715,0.0228395,0.00071374
77.4877,0.0230462,0.000412467
82.5044,0.0221966,0.000592869
87.5186,0.023085,0.000342244
92.53275,0.0238895,0.000370589
97.54921,0.0241009,0.000748653
102.564,0.0234109,0.000630322
107.4496,0.0239424,0.0007359
112.342,0.0244553,0.000342419
117.36,0.0242955,0.000397993
122.377,0.0240836,0.000545008
127.394,0.02500547,0.000452827
132.409,0.0243988,0.000494299
137.423,0.0255058,0.000412429
142.439,0.0253787,0.000678547
147.456,0.0253273,0.000354926
152.47,0.0248779,0.00043408
157.485,0.0265038,0.000568927
162.5021,0.0262602,0.00040276
167.518,0.0267962,0.000324452
172.533,0.02711086,0.000432136
177.548,0.0273605,0.000420058
182.5651,0.02743618,0.000432462
187.581,0.0283264,0.000528299
192.599,0.0285004,0.000493924
197.616,0.028594,0.000610944
202.632,0.030101,0.000446942
207.647,0.0297525,0.000407067
212.663,0.0300825,0.000738712
217.678,0.0306388,0.000618145
222.691,0.0310901,0.000573707
227.585,0.0317358,0.000806875
232.471,0.0318161,0.000683193
237.486,0.0336127,0.000683338
242.505,0.0328179,0.000645993
247.399,0.0311889,0.000496448
252.298,0.0320065,0.000520398
257.316,0.031702,0.000572916
262.333,0.0317445,0.000656471
267.348,0.0295659,0.000658074
272.364,0.0279077,0.000555152
277.38,0.0214195,0.001515462
282.395,0.0194969,0.001064124
287.408,0.0122424,0.001137212
292.421,0.006669651,0.000769452
297.438,0.003084511,0.000419058
302.455,0.002055262,0.00053601
307.471,0.000547483,0.000117617
312.488,0.000442644,0.000154365
317.505,-2.57E-05,7.59E-05
322.521,0.000402156,7.62E-05
327.536,0.000171301,0.000169722
332.551,6.63E-05,0.000103988
337.568,0.000357048,0.000233377
342.587,-0.000455311,0.000257242
347.606,0.000117551,0.000105651
352.625,0.000141132,6.95E-05
357.643,0.001402371,0.001084554
362.544,0.002002406,0.001226431