Folder: matl-db/Non-charring/PMMA/UMD (part 3)

File: UMD_CAPA_60kWm2_Temp.csv
Relative Time [s],"Temp_avg, all4 [K]",Error [K]
0,309.29,1.43844
1.197,309.43,1.4028
2.395,309.37,1.40859
3.592,309.512,1.38147
4.789,309.501,1.38033
5.986,309.394,1.41589
7.183,309.405,1.40905
8.38,309.361,1.37035
9.577,309.451,1.33353
10.775,309.523,1.35704
11.972,309.573,1.35477
13.169,309.625,1.33936
14.366,309.714,1.35904
15.564,309.908,1.38877
16.76,310.05,1.38406
17.958,310.381,1.37098
19.155,310.732,1.3633
20.352,311.091,1.38479
21.549,311.589,1.37129
22.746,312.21,1.36011
23.943,312.795,1.3431
25.14,313.405,1.39042
26.337,314.244,1.37856
27.534,315.022,1.3777
28.732,315.892,1.38612
29.929,316.816,1.38259
31.126,317.821,1.39212
32.323,318.866,1.39011
33.52,319.934,1.38476
34.717,321.051,1.39986
36.164,322.363,1.36224
37.306,323.674,1.38545
38.503,324.987,1.36833
39.64,326.162,1.37813
40.837,327.561,1.35974
42.034,328.903,1.3483
43.232,330.314,1.337
44.427,331.69,1.3265
45.624,333.173,1.28811
46.821,334.531,1.27174
48.151,335.465,1.04271
49.348,337.489,1.30295
50.545,338.914,1.32856
51.741,340.207,1.3467
52.938,341.713,1.36458
54.135,343.035,1.29562
55.333,344.192,1.24323
56.53,345.54,1.22766
57.727,347.104,1.33906
58.924,348.578,1.36946
60.121,349.861,1.37219
61.318,351.008,1.38483
62.515,352.334,1.38863
63.712,354.052,1.47212
64.909,355.075,1.52317
66.106,356.479,1.26665
67.304,357.493,1.42338
68.501,358.848,1.46531
69.698,360.481,1.27674
70.895,361.993,1.28962
72.092,363.333,1.47552
73.289,364.568,1.64338
74.486,365.923,1.48229
75.683,366.856,1.52057
76.88,367.832,1.36972
78.078,369.682,1.6191
79.274,370.403,1.51911
80.471,372.064,1.59253
81.669,373.123,1.60229
82.866,374.541,1.45835
84.063,375.66,1.73228
85.26,376.624,1.80888
86.457,377.856,1.66888
87.654,379.367,1.83
88.851,380.112,1.62312
90.048,381.248,1.8779
91.246,382.206,1.91177
92.442,383.289,2.00518
93.639,384.839,1.97758
94.837,385.668,1.94529
96.034,386.618,1.79248
97.231,387.911,1.83634
98.428,388.956,1.86045
99.625,389.925,1.62012
100.822,391.996,2.17542
102.019,393.811,2.16135
103.216,393.669,2.00409
104.413,395.146,1.75745
105.61,396.564,1.8056
106.807,398.156,1.76314
108.005,398.8,1.56106
109.202,399.828,1.30174
110.399,402.072,1.77681
111.596,402.255,1.4559
112.793,402.969,1.2475
113.99,404.678,1.31924
115.187,406.061,1.39543
116.384,407.189,1.33601
117.581,408.438,1.50641
118.778,410.123,1.07517
119.975,411.808,1.20213
121.171,413.741,1.07283
122.369,415.307,1.27913
123.566,415.908,1.20247
124.765,417.037,1.08934
125.962,418.44,1.19236
127.159,419.592,1.19273
128.356,421.604,1.0848
129.553,423.001,1.37206
130.75,424.75,1.53504
131.947,425.207,1.31821
133.144,426.315,1.12919
134.342,427.588,1.15593
135.539,428.289,0.938512
136.736,429.997,1.34723
137.933,431.87,1.05965
139.13,432.458,1.09129
140.327,434.489,1.04436
141.524,436.733,1.29293
142.721,437.914,1.02704
143.918,439.726,1.22003
145.115,440.524,1.45351
146.313,440.565,1.34811
147.509,441.934,1.13153
148.707,442.908,0.981215
149.904,444.127,1.26998
151.101,445.239,1.42977
152.298,446.517,1.50804
153.495,448.35,1.7325
154.692,449.049,1.55844
155.889,450.821,1.6552
157.086,450.996,1.86636
158.283,452.178,1.74413
159.48,452.473,1.54153
160.677,453.403,1.91268
161.875,454.886,1.71837
163.072,456.819,2.06411
164.269,456.616,2.23465
165.466,457.503,2.25833
166.663,459.274,2.06939
167.86,459.8,2.22994
169.057,461.07,2.41999
170.254,461.5,2.62104
171.451,462.952,3.2779
172.648,463.411,3.7154
173.846,465.12,3.58764
175.043,464.857,3.65389
176.24,465.259,4.39647
177.437,465.294,4.55504
178.634,466.099,4.66114
179.83,467.752,4.89357
181.027,468.831,4.76201
182.224,471.04,4.95643
183.421,471.733,4.90823
184.618,473.066,5.19001
185.816,475.613,5.83458
187.013,475.598,5.72417
188.21,476.449,5.2162
189.407,476.582,4.96612
190.604,477.953,4.79609
191.801,478.893,4.84061
192.998,479.867,4.89216
194.195,479.603,5.36213
195.392,482.459,5.39428
196.589,482.636,5.82946
197.786,484.214,5.28384
198.983,485.318,5.57924
200.181,485.837,4.79833
201.378,486.783,4.65433
202.575,488.093,4.96155
203.772,490.2,5.30252
204.968,490.889,5.60246
206.165,491.657,5.92655
207.362,492.405,5.88068
208.559,494.933,5.74532
209.756,494.804,5.45652
210.953,496.798,5.52064
212.15,498.006,5.14896
213.347,501.266,5.54205
214.545,501.552,5.37602
215.742,502.147,5.25813
216.939,503.611,6.23913
218.136,505.252,6.04438
219.333,506.899,5.76024
220.53,508.128,6.07574
221.727,508.717,5.5114
222.924,508.254,5.95317
224.121,511.225,5.81253
225.318,513.14,6.17722
226.516,514.472,5.99183
227.714,516.123,5.4635
228.911,518.484,5.76081
230.108,522.428,6.59451
231.305,524.744,6.55048
232.502,525.6427,5.92929
233.699,527.18,5.65833
234.896,531.114,5.80133
236.093,533.028,4.86458
237.29,536.769,5.7796
238.487,537.715,4.93658
239.684,543.189,5.38361
240.881,545.058,5.47509
242.079,549.643,5.50123
243.276,549.762,5.08757
244.473,552.94,4.50886
245.67,556.055,5.11258
246.867,558.001,4.64457
248.064,564.568,5.2858
249.261,565.705,5.14494
250.458,573.929,6.22219
251.655,574.102,5.96031
252.852,574.223,5.75767
254.049,577.341,6.07215
255.247,579.784,6.33308
256.444,584.252,6.22569
257.641,587.487,6.78106
258.838,591.225,7.83724
260.168,593.217,7.75497
261.365,597.61,8.24329
262.562,600.822,9.15247
263.759,601.956,9.96347
264.956,604.928,10.2161
266.153,608.964,11.0618
267.351,616.286,11.7689
268.548,621.338,12.5255
269.745,623.445,12.5026
270.942,631.812,13.4803
272.139,637.873,14.8151
273.336,647.304,16.2977
274.533,657.461,17.625
275.73,659.076,18.3976
276.927,670.181,19.8964
278.124,676.916,19.7944
279.321,681.391,19.5541
280.519,687.876,19.9583
281.716,702.01,19.6656
282.913,713.492,20.1058
284.11,721.091,19.4169
285.307,731.042,19.2094
286.504,725.046,19.4167
287.701,743.693,18.8241
288.898,747.116,15.1477
290.095,756.246,14.7857
291.292,753.862,13.8203
292.489,756.13,13.053
293.686,758.602,12.2331
294.884,765.707,9.95215
296.081,777.585,10.0595
297.278,777.828,8.31788
298.475,777.258,7.75128
299.672,785.365,9.35943
300.869,782.695,8.18621
302.066,782.669,7.12855
303.263,790.798,8.44865
304.46,789.795,7.75963
305.657,791.776,7.48729
306.854,792.038,7.52843
308.051,792.952,8.0553
309.249,797.761,6.74235
310.446,799.071,7.18521
311.643,796.279,6.90411
312.84,794.898,5.96892
314.17,799.443,6.49671
315.367,801.588,5.87247
316.564,803.598,5.75384
317.761,805.082,6.43181
318.958,807.437,6.61659
320.155,809.991,6.58912
321.353,810.933,6.80584
322.55,815.875,7.30761
323.747,818.355,8.00739
324.944,816.671,7.87166
326.141,816.748,7.88381
327.338,819.466,8.27591
328.535,818.844,8.55148
329.732,818.683,8.76566
330.929,820.06,9.19831
332.126,820.291,8.89667
333.323,818.272,9.55477
334.521,819.419,9.86389
335.718,821.329,10.1389
336.915,821.456,10.4139
338.112,820.674,11.1247
339.309,820.339,11.8462
340.506,819.748,11.5243
341.703,818.96,11.9089
342.9,817.798,12.3622
344.097,818.384,12.0886
345.294,817.615,12.4751
346.491,817.173,12.8219
347.689,816.823,12.9698
348.886,814.709,13.4348
350.083,815.486,14.4508
351.28,814.885,14.8269
352.477,812.673,15.8026
353.674,810.948,15.4911
354.871,811.78,15.3898
356.068,810.125,15.3536
357.265,811.277,16.0939
358.462,808.565,16.6179
358.595,808.288,16.7062

File: UMD_DSC.csv
Time,Temp (K),DSC (mW/mg),Error (mW/mg)
0,313,0.0402,0.001958106
41.5014,315.004,0.0803,0.003883938
67.7796,317.008,0.111,0.005585987
88.5384,319.012,0.136,0.006826567
106.3272,321.016,0.158,0.007966211
122.1888,323.02,0.177,0.008599254
136.6968,325.024,0.194,0.009776172
150.2028,327.028,0.21,0.0111072
162.9426,329.032,0.224,0.0120025
175.0638,331.036,0.238,0.0124611
186.6816,333.04,0.25,0.0133812
197.8794,335.044,0.263,0.014084
208.7088,337.048,0.273,0.0146155
219.2574,339.052,0.284,0.0150184
229.5492,341.056,0.293,0.0161946
239.6088,343.06,0.302,0.0164992
249.5052,345.064,0.31,0.0171487
259.2204,347.068,0.317,0.0174616
268.8006,349.072,0.323,0.0171569
278.2542,351.076,0.329,0.0178659
287.5884,353.08,0.335,0.0182541
296.8458,355.084,0.34,0.01921838
306.021,357.088,0.345,0.0196125
315.123,359.092,0.349,0.0190903
324.1722,361.096,0.354,0.019774
333.171,363.1,0.358,0.0200827
342.1386,365.104,0.361,0.0205112
351.0816,367.108,0.365,0.0211603
359.9964,369.112,0.369,0.0214833
368.8998,371.116,0.373,0.0218789
377.7924,373.12,0.376,0.0216189
386.6856,375.124,0.378,0.0214636
395.5932,377.128,0.382,0.0218026
404.5074,379.132,0.384,0.0214039
413.4414,381.136,0.388,0.021754
422.4,383.14,0.39,0.0216175
431.3934,385.144,0.393,0.0217752
440.4132,387.148,0.397,0.0216866
449.4726,389.152,0.401,0.02134953
458.5734,391.156,0.405,0.0216133
467.7198,393.16,0.411,0.0213332
476.9202,395.164,0.417,0.0214755
486.1818,397.168,0.424,0.02180231
495.507,399.172,0.429,0.0223136
504.8928,401.176,0.432,0.0214917
514.3518,403.18,0.432,0.0213023
523.878,405.184,0.431,0.0214812
533.4852,407.188,0.43,0.02356508
543.1758,409.192,0.426,0.0208947
552.9522,411.196,0.422,0.018834
562.8174,413.2,0.418,0.0177787
572.7702,415.204,0.418,0.0178584
582.8208,417.208,0.416,0.0186034
592.9626,419.212,0.414,0.0188994
603.207,421.216,0.412,0.0192456
613.5594,423.22,0.41,0.018861
624.0096,425.224,0.408,0.0194275
634.5558,427.228,0.407,0.0196176
645.2154,429.232,0.406,0.0198461
655.9764,431.236,0.405,0.0206139
666.843,433.24,0.407,0.02316245
677.8272,435.244,0.406,0.0216844
688.9068,437.248,0.407,0.0199509
700.0884,439.252,0.408,0.02027831
711.3768,441.256,0.41,0.0199004
722.7594,443.26,0.414,0.0198761
734.2356,445.264,0.418,0.0199618
745.8126,447.268,0.422,0.01987
757.485,449.272,0.426,0.0199763
769.2432,451.276,0.431,0.0198661
781.0836,453.28,0.435,0.0202444
792.9996,455.284,0.438,0.02038362
804.9966,457.288,0.439,0.0206793
817.0512,459.292,0.438,0.0209918
829.1718,461.296,0.435,0.021384
841.3362,463.3,0.428,0.0217249
853.548,465.304,0.419,0.0217935
865.7976,467.308,0.409,0.0219691
878.0886,469.312,0.398,0.0217619
890.4078,471.316,0.389,0.0215075
902.7558,473.32,0.383,0.02101923
915.1116,475.324,0.378,0.0205909
927.4836,477.328,0.376,0.0203125
939.8652,479.332,0.376,0.0198594
952.2408,481.336,0.377,0.0195028
964.6164,483.34,0.378,0.0194633
976.9836,485.344,0.38,0.0193089
989.334,487.348,0.383,0.01921893
1001.67,489.352,0.385,0.0193515
1014,491.356,0.387,0.0186509
1026.29,493.36,0.389,0.0188225
1038.56,495.364,0.391,0.018702
1050.81,497.368,0.392,0.0186018
1063.05,499.372,0.393,0.0184978
1075.24,501.376,0.394,0.0187124
1087.41,503.38,0.395,0.0187187
1099.56,505.384,0.395,0.0189135
1111.67,507.388,0.396,0.0190888
1123.74,509.392,0.397,0.0193411
1135.794,511.396,0.399,0.019273
1147.818,513.4,0.4,0.0194247
1159.81,515.404,0.403,0.0196092
1171.76,517.408,0.405,0.0196546
1183.7,519.412,0.407,0.0195363
1195.59,521.416,0.41,0.019466
1207.47,523.42,0.413,0.0192989
1219.32,525.424,0.416,0.0189899
1231.146,527.428,0.42,0.0190268
1242.95,529.432,0.424,0.0185103
1254.74,531.436,0.428,0.0189183
1266.49,533.44,0.431,0.019476
1278.24,535.444,0.435,0.0196494
1289.97,537.448,0.439,0.01957966
1301.67,539.452,0.443,0.0191388
1313.36,541.456,0.447,0.0186263
1325.04,543.46,0.452,0.0185325
1336.71,545.464,0.457,0.0184603
1348.37,547.468,0.463,0.0179704
1360.02,549.472,0.47,0.018171
1371.66,551.476,0.477,0.0180164
1383.276,553.48,0.485,0.0179438
1394.9,555.484,0.493,0.0179441
1406.526,557.488,0.502,0.0179121
1418.14,559.492,0.511,0.0179096
1429.758,561.496,0.52,0.018125
1441.38,563.5,0.529,0.0183257
1452.999,565.504,0.538,0.0185596
1464.63,567.508,0.547,0.0186578
1476.28,569.512,0.555,0.0192781
1487.9,571.516,0.561,0.0196938
1499.53,573.52,0.568,0.0201419
1511.18,575.524,0.573,0.0200107
1522.82,577.528,0.578,0.0205358
1534.467,579.532,0.584,0.0206436
1546.12,581.536,0.591,0.0202281
1557.78,583.54,0.6,0.0201621
1569.43,585.544,0.613,0.0203933
1581.087,587.548,0.63,0.0210902
1592.77,589.552,0.653,0.0217436
1604.45,591.556,0.68,0.0223518
1616.12,593.56,0.714,0.0237312
1627.78,595.564,0.753,0.0252505
1639.48,597.568,0.799,0.0268947
1651.17,599.572,0.853,0.0288575
1662.87,601.576,0.914,0.0310824
1674.58,603.58,0.984,0.033821
1686.3,605.584,1.06,0.0366553
1698.02,607.588,1.15,0.0398833
1709.754,609.592,1.25,0.0433609
1721.49,611.596,1.35,0.0468359
1733.226,613.6,1.46,0.0498555
1744.97,615.604,1.58,0.0529964
1756.71,617.608,1.7,0.0559981
1768.49,619.612,1.82,0.0582589
1780.25,621.616,1.94,0.0607873
1792.02,623.62,2.06,0.062496
1803.79,625.624,2.17,0.064707
1815.56,627.628,2.29,0.0662352
1827.34,629.632,2.39,0.0688187
1839.12,631.636,2.5,0.0708448
1850.91,633.64,2.6,0.07203715
1862.7,635.644,2.69,0.0676649
1874.48,637.648,2.75,0.059337
1886.26,639.652,2.77,0.050243
1898.046,641.656,2.75,0.0278017
1909.83,643.66,2.68,0.0441789
1921.6,645.664,2.57,0.0632581
1933.38,647.668,2.47,0.0761885
1945.14,649.672,2.41,0.0934463
1956.888,651.676,2.36,0.0748333
1968.63,653.68,2.29,0.0323626
1980.35,655.684,2.2,0.0576923
1992.06,657.688,2.06,0.10352
2003.75,659.692,1.87,0.14122
2015.427,661.696,1.68,0.142565
2027.09,663.7,1.49,0.146397
2038.752,665.704,1.28,0.149653
2050.42,667.708,1.08,0.149488
2062.08,669.712,0.903,0.128146
2073.756,671.716,0.747,0.1019
2085.44,673.72,0.613,0.0911142
2097.147,675.724,0.491,0.0772424
2108.89,677.728,0.386,0.06399911
2120.66,679.732,0.296,0.0521547
2132.48,681.736,0.223,0.0423503
2144.31,683.74,0.164,0.0350825
2156.2,685.744,0.118,0.0304247
2168.12,687.748,0.081,0.0267104
2180.09,689.752,0.0533,0.0246106
2192.1,691.756,0.032,0.0237561
2204.14,693.76,0.0155,0.0223365
2216.22,695.764,0.0033,0.0219525
2228.35,697.768,-0.00574,0.0216031
2240.51,699.772,-0.0125,0.02140587
2252.688,701.776,-0.017,0.0218122
2264.91,703.78,-0.0192,0.02084979
2277.17,705.784,-0.0179,0.0216039
2289.45,707.788,-0.0122,0.0227085
2301.78,709.792,-0.0114,0.0252266
2314.11,711.796,-0.0179,0.0228787
2326.47,713.8,-0.0297,0.0197022
2338.88,715.804,-0.0348,0.0174208
2351.29,717.808,-0.0398,0.0177865
2363.72,719.812,-0.0417,0.0182326
2376.17,721.816,-0.0429,0.0199298
2388.65,723.82,-0.0445,0.0202727
2401.15,725.824,-0.0445,0.0204905
2413.64,727.828,-0.0445,0.0199238
2426.16,729.832,-0.0459,0.0197574
2438.71,731.836,-0.0459,0.0200574
2451.26,733.84,-0.0459,0.0202363
2463.83,735.844,-0.0467,0.0199008
2476.41,737.848,-0.0473,0.01978
2488.968,739.852,-0.048,0.01904206
2501.55,741.856,-0.0472,0.0193409
2514.13,743.86,-0.0476,0.0202763
2526.71,745.864,-0.0485,0.02109689
2539.296,747.868,-0.048,0.0210978
2551.86,749.872,-0.0486,0.0210735
2564.43,751.876,-0.0492,0.0212949
2577.01,753.88,-0.0496,0.0206049
2589.57,755.884,-0.0504,0.0200474
2602.13,757.888,-0.0502,0.0206016
2614.68,759.892,-0.0505,0.0208918
2627.22,761.896,-0.0508,0.0204376
2639.75,763.9,-0.0516,0.0202636
2652.28,765.904,-0.0526,0.0204221
2664.8,767.908,-0.0522,0.0200803
2677.31,769.912,-0.0535,0.0197857
2689.8,771.916,-0.0539,0.0204456
2702.3,773.92,-0.054,0.0198801
2714.787,775.924,-0.0551,0.0197049
2727.27,777.928,-0.0543,0.01946167
2739.74,779.932,-0.0554,0.0200952
2752.19,781.936,-0.0561,0.0195175
2764.65,783.94,-0.0559,0.0194157
2777.07,785.944,-0.0569,0.0200283
2789.5,787.948,-0.0571,0.020161
2801.92,789.952,-0.0578,0.0199251
2814.321,791.956,-0.0584,0.0199893
2826.73,793.96,-0.0579,0.0204943
2839.12,795.964,-0.0579,0.0206703
2851.49,797.968,-0.0591,0.0205721
2863.866,799.972,-0.0594,0.0205205
2876.232,801.976,-0.0599,0.0214252
2888.59,803.98,-0.0595,0.0213263
2900.94,805.984,-0.0601,0.02149543
2913.28,807.988,-0.0603,0.0216847
2925.618,809.992,-0.0614,0.0211964
2937.95,811.996,-0.0611,0.02162403
2950.27,814,-0.0611,0.0221199
2962.57,816.004,-0.0618,0.0218896
2974.88,818.008,-0.0621,0.0221645
2987.18,820.012,-0.0632,0.0219132
2999.48,822.016,-0.0628,0.0221423
3011.763,824.02,-0.0635,0.0225577
3024.042,826.024,-0.0638,0.02247228
3036.32,828.028,-0.0637,0.023058
3048.585,830.032,-0.0643,0.02337
3060.86,832.036,-0.0653,0.022949
3073.12,834.04,-0.0655,0.023607
3085.38,836.044,-0.0661,0.02388066
3097.64,838.048,-0.0662,0.02417564
3109.87,840.052,-0.0673,0.0243417
3122.11,842.056,-0.0676,0.0250651
3134.35,844.06,-0.0684,0.0242949
3146.61,846.064,-0.0679,0.02518
3158.85,848.068,-0.0689,0.0249308
3171.08,850.072,-0.0698,0.025156
3183.32,852.076,-0.0701,0.0246906
3195.54,854.08,-0.0711,0.0251317
3207.77,856.084,-0.0709,0.02609527
3220.01,858.088,-0.072,0.0272369
3232.24,860.092,-0.0721,0.0265825
3244.48,862.096,-0.0731,0.0267973
3256.72,864.1,-0.0733,0.0258761
3268.95,866.104,-0.0738,0.02740066
3281.2,868.108,-0.0742,0.0278053
3287.31,869.11,-0.0747,0.027643

File: UMD_MCC.csv
Time (s),Temperature (K),HRR (W/g),HRR error (W/g)
0,349.619,2.22045E-16,4.44089E-16
2,350.138,-0.0286044,0.23816
4,350.737,0.0617858,0.102023
6,351.419,0.157928,0.156786
8.001,352.13,0.245331,0.160805
10.001,352.906,0.30498,0.215998
12.001,353.724,0.306623,0.275144
14.001,354.627,0.346021,0.327499
16,355.537,0.426656,0.259623
18,356.53,0.38206,0.264059
20.002,357.577,0.519707,0.284336
22.001,358.647,0.5886,0.283263
24,359.777,0.674992,0.275715
26,360.954,0.671639,0.217632
28.001,362.203,0.726037,0.164635
30,363.433,0.800178,0.167319
32.001,364.738,0.896573,0.334457
34.001,366.115,0.941721,0.278254
36.001,367.509,0.899119,0.212691
38,368.926,0.819016,0.214902
40.001,370.422,0.918905,0.324396
42,371.959,0.965801,0.424392
44.001,373.499,0.977696,0.417997
46.002,375.098,0.883852,0.47137
48,376.746,0.956241,0.590675
50.001,378.429,0.970889,0.565272
52.001,380.115,1.02678,0.486557
54,381.884,1.12392,0.561982
56.001,383.689,1.12907,0.568172
58.001,385.48,1.11072,0.649537
60,387.326,1.30787,0.617573
62.001,389.239,1.36751,0.516833
64,391.16,1.52616,0.651857
66,393.042,1.60405,0.504678
68.001,395.029,1.72045,0.502235
70.001,397.055,2.08584,0.573411
72.001,399.018,2.29374,0.668006
74.002,401.024,2.62889,0.605328
76,403.119,2.85302,0.63219
78.001,405.17,3.10893,0.658997
80.002,407.211,3.38907,0.768444
82.001,409.349,3.60346,0.812423
84,411.517,3.79611,0.793478
86,413.597,4.07126,0.869172
88.001,415.75,4.3979,0.951095
90,417.936,4.70329,0.952111
92,420.097,4.95445,0.912066
94.001,422.235,5.38735,0.994601
96.001,424.427,5.97598,1.17996
98.001,426.65,6.57688,1.34319
100.001,428.799,7.04228,1.27546
102.001,430.985,7.52317,1.23343
104.001,433.189,7.95832,1.29451
106.001,435.378,8.59097,1.22924
108.001,437.501,9.23586,1.22668
110.001,439.731,9.80076,1.1631
112.001,441.927,10.2714,1.07638
114.001,444.058,10.6408,0.859874
116.001,446.236,11.0214,0.621184
118.001,448.428,11.3256,0.427458
120.001,450.594,11.4835,0.301505
122.001,452.7,11.5301,0.217944
124.001,454.899,11.5005,0.439075
126.001,457.07,11.3327,0.714548
128,459.178,11.0338,0.785644
130.001,461.305,10.7417,0.981291
132,463.499,10.2589,1.13145
134.001,465.614,9.6255,1.28486
136,467.713,8.9244,1.54876
138,469.882,8.10029,1.55865
140,472.029,7.31719,1.67214
142.001,474.105,6.55909,1.56468
144.001,476.168,5.63523,1.48171
146.001,478.293,5.02263,1.43891
148,480.349,4.57652,1.26358
150.001,482.356,4.11892,1.20264
152.001,484.455,3.76557,0.987145
154.001,486.533,3.31621,0.720265
156.001,488.54,3.00335,0.650396
158.001,490.572,2.91,0.590803
160,492.65,2.84639,0.500333
162.001,494.667,2.87304,0.446183
164.001,496.642,2.88269,0.471283
166.001,498.693,3.03258,0.371813
168,500.729,3.09773,0.408343
170,502.695,3.16262,0.441306
172,504.712,3.23927,0.316474
174.001,506.755,3.33266,0.311967
176,508.754,3.41831,0.380836
178,510.709,3.57545,0.469813
180.001,512.742,3.57661,0.462169
182.001,514.769,3.65275,0.42251
184,516.72,3.77864,0.363974
186,518.687,3.93653,0.419755
188,520.729,4.17443,0.443701
190.001,522.71,4.35083,0.447565
192.001,524.649,4.48347,0.548328
194.001,526.656,4.74112,0.629615
196,528.698,4.97701,0.686492
198.001,530.627,5.18191,0.86219
200.001,532.615,5.52256,0.898747
202,534.607,5.87545,0.984177
204.001,536.583,6.11285,1.08684
206.001,538.513,6.58749,1.11016
208.001,540.537,7.21814,1.24713
210.001,542.538,7.76754,1.3255
212.001,544.493,8.46443,1.43669
214.001,546.47,9.14808,1.58859
216.001,548.477,9.96672,1.61571
218.001,550.447,10.7226,1.78924
220.001,552.406,11.6943,1.9082
222.001,554.444,12.7487,2.16247
224.001,556.465,13.9291,2.43163
226.001,558.402,15.1964,2.68407
228.001,560.416,16.6221,3.07518
230.001,562.428,18.132,3.46331
232.001,564.44,19.8546,3.91188
234.001,566.412,21.7823,4.3502
236.001,568.444,23.7852,4.93956
238.001,570.494,26.1276,5.6219
240.001,572.451,28.7692,6.3421
242.001,574.443,31.6201,7.00856
244.001,576.488,34.8718,7.92491
246.001,578.508,38.3124,8.85901
248.001,580.483,42.1418,9.89285
250.001,582.531,46.5544,11.0999
252.001,584.571,51.4826,12.2464
254.001,586.537,56.889,13.4971
256.001,588.542,62.9176,14.7457
258.001,590.602,69.4028,15.8404
260.001,592.609,76.4942,16.9871
262.001,594.572,84.4661,17.9422
264.001,596.6,92.9167,19.0827
266.001,598.645,101.945,20.1059
268.001,600.597,111.617,20.7453
270.001,602.58,121.825,21.3736
272.001,604.603,132.624,21.8716
274.001,606.612,143.862,22.3829
276.001,608.568,155.617,22.7965
278.001,610.6,167.712,23.1876
280.001,612.628,180.092,23.4136
282.001,614.583,192.655,23.3787
284.001,616.568,205.309,23.3947
286.001,618.596,217.424,23.0462
288.001,620.577,229.341,22.3988
290.001,622.529,240.753,21.3436
292.001,624.544,251.635,19.7544
294.001,626.573,261.506,17.8715
296.001,628.519,270.173,15.3136
298.001,630.505,277.881,13.0735
300.001,632.517,283.951,10.768
302.001,634.479,288.295,7.82562
304.001,636.411,291.517,6.04796
306.001,638.416,293.307,5.80964
308.001,640.42,295.46,5.38296
310.001,642.358,295.432,7.10953
312.001,644.337,295.183,6.55164
314.001,646.34,292.581,8.39169
316.001,648.314,292.607,9.20496
318.001,650.251,293.069,7.49025
320.001,652.252,293.58,7.69479
322.001,654.276,292.469,9.05312
324.001,656.186,288.724,9.18074
326.001,658.169,286.34,10.8046
328.001,660.177,284.921,8.01844
330.001,662.143,284.201,8.68028
332.001,664.096,279.466,11.5504
334.001,666.127,270.525,15.6372
336.001,668.143,259.343,20.6934
338.001,670.1,245.58,23.2076
340.001,672.115,231.104,24.3788
342.001,674.159,216.397,25.5074
344.001,676.185,200.26,26.8154
346.001,678.179,183.05,29.1107
348.001,680.247,165.579,30.3905
350.001,682.329,148.885,29.8989
352.001,684.365,131.677,28.866
354.001,686.409,114.401,28.9986
356.001,688.506,98.4892,29.4847
358.001,690.559,83.8758,29.0134
360.001,692.601,70.3959,26.9201
362.001,694.733,58.0721,24.0244
364.001,696.865,47.248,20.9654
366.001,698.88,38.0296,17.7723
368.001,700.984,30.194,14.884
370.001,703.072,23.9012,12.2553
372.001,705.152,18.6798,9.83731
374.001,707.172,14.3322,7.78692
376.001,709.276,11.0406,6.14622
378.001,711.367,8.50226,4.69722
380.002,713.372,6.47841,3.39918
382.001,715.398,5.0343,2.40691
384.001,717.481,3.80445,1.86686
386.001,719.482,2.86609,1.34794
388.001,721.478,2.18449,1.06494
390.001,723.504,1.64389,0.82274
392.001,725.552,1.18803,0.644228
394.001,727.51,0.845674,0.466119
396.001,729.494,0.45482,0.363002
398.001,731.52,0.135465,0.155272
400.001,733.51,0.046361,0.215139
402.001,735.416,-0.0799934,0.0890467
404.001,737.445,-0.113598,0.07719308
406.001,739.424,-0.157202,0.144877
408.001,741.346,-0.132055,0.228075
410.001,743.304,-0.0749112,0.212617
412.001,745.306,-0.0982656,0.235842
414.001,747.261,-0.06512008,0.329561
416.001,749.186,-0.113475,0.291162
418.001,751.185,-0.088329,0.321547
420.001,753.148,-0.0599334,0.335261
422.001,755.099,-0.102788,0.353081
424.001,757.047,-0.0776423,0.417014
426.001,759.036,-0.176997,0.390848
428.001,761.009,-0.195349,0.341838
430.001,762.943,-0.164956,0.272073
432.001,764.935,-0.10206,0.343565
434.001,766.949,0.0148355,0.309615
436.001,768.872,0.0202331,0.423153
438.001,770.837,-0.0251234,0.327271
440.001,772.851,-0.0399779,0.30851
442.001,774.827,0.0201677,0.250153
444.001,776.782,0.0795653,0.238917
446.001,778.806,0.154711,0.2106334
448.001,780.809,0.0796043,0.127175
450.001,782.76,0.0542499,0.120136
452.001,784.76,0.0553955,0.267766
454.001,786.786,0.070041,0.258282
456.001,788.74,0.105687,0.13673
458.001,790.704,0.0845821,0.0574372
460.001,792.742,0.0502277,0.0583655