Folder: matl-db/Non-charring/PMMA/UMET

Note: Non-charring/PMMA/UMET/README.md
# University of Lille - ENSCL - Unité Matériaux et Transformations (UMET)

### Experimental Conditions, TGA

* Heating Rates: 1, 2, 5, 10, 20, 50, and 100 K/min
* Temperature program
  - Initial Temperature: 313.15 K
  - Initial Isotherm: None
  - Maximum Temperature: 1273.15 K
  - Final Isotherm: None
* Sample mass: 3.93 – 5.98 mg
* Sample geometry: powdered
* Calibration type: Temperature calibration was performed every 6 months using a set of 5 reference materials with melting temperatures between 156.6 - 660 C
* Crucible
  - Type: Al2O3
  - Volume: 85 µL
  - Diameter: None
  - Mass: None
  - Lid: None
  - Note: None
* Carrier Gas
  - Type: Nitrogen
  - Flow rate: 40 ml/min
  - Note: Nitrogen (Vacuuming and filling according to the desired atmosphere)
* Instrument
  - Type: Netzsch TG 209 Libra
  - Note: None


|Test Name | Heating Rate (K/min) | Initial Sample Mass (mg)|  
|----------|:------:|  :------:| 
|UMET\_TGA\_N2\_1 | 1 | 4.336 |
|UMET\_TGA\_N2\_2 | 2 | 4.845 |
|UMET\_TGA\_N2\_3 | 5 | 4.093 |
|UMET\_TGA\_N2\_4 | 10 | 5.339  |
|UMET\_TGA\_N2\_5 | 20 | 3.929  |
|UMET\_TGA\_N2\_6 | 50 | 5.980 |
|UMET\_TGA\_N2\_7 | 100 | 5.364 |

### Experimental Conditions, DSC

* Measurement of cp was made by comparison with sapphire and using modulation
* Heating Rates: 3, 10, 20 K/min
* Temperature program
  - Initial temperature 243.15 K
  - Maximum Temperature 433.15 K
* Sample mass: ~5 mg
* Sample geometry: powdered
* Calibration type: Cp, enthalpy, melting point; calibration was performed every 6 months using sapphire (Cp) and Indium (enthalpy, melting point)
* Crucible type: Aluminum
* Carrier Gas
  - Nitrogen 
  - Flow rate = 50 ml/min
* Instrument type: Discovery TA


|Test Name | Heating Rate (K/min) | 
|----------|:------:|  
|UMET\_DSC\_N2\_1 | 3 | 
|UMET\_DSC\_N2\_2 | 10 |
|UMET\_DSC\_N2\_3 | 10 |
|UMET\_DSC\_N2\_4 | 20 |
|UMET\_DSC\_N2\_5 | 20 |

### Diffusivity (LFA 467 Hyperflash- Netzsch):
* Laser flash analysis
* 3 flash for each temperature
* Square sample 25.4*25.4cm²
* Both sides of the sample coated with graphite paint

### Conductivity (TPS 2500S-Hot Disk):
* Transient Plane Source (TPS) method
* Kapton sensor (radius 2.0mm)
* Ambient temperature measurement
* 2 plates for measurement
* Isotropic material
* The material is considered as semi-infinite when using the appropriate size of the sensor.
* Energy pulse:
  - Power: 35 mW
  - Duration: 20 s

File: UMET_DSC_N2_1.csv
Time,Temp,Heat Flow
[s],[k],[mW/mg]
0,,
29.29998,27.211,-0.572764
58.60002,13.231,-0.477009
87.9,0.703,-0.414096
117.1998,-10.459,-0.369644
146.5002,-20.383,-0.329663
175.8,-29.194,-0.29256
205.0998,-37.013,-0.25878
234.4002,-43.949,-0.229027
263.7,-50.105,-0.202794
292.9998,-55.566,-0.179514
322.3002,-60.41,-0.158241
351.6,-64.707,-0.139351
380.8998,-68.52,-0.12264
410.2002,-71.902,-0.107567
439.5,-74.902,-0.0943434
468.7998,-77.586,-0.0823659
498.1002,-79.774,-0.0636202
527.4,-79.913,-0.00997103
556.6998,-79.945,-0.00281577
586.0002,-79.957,0.000589705
615.3,-79.961,0.00212752
644.598,-79.962,0.00317666
673.902,-79.964,0.00387316
703.2,-79.963,0.00412342
732.498,-79.963,0.00430845
761.802,-79.962,0.00462851
791.1,-79.963,0.00470687
820.398,-79.963,0.00475231
849.702,-79.963,0.00477956
879,-79.963,0.00478291
908.298,-79.963,0.00498867
937.602,-79.963,0.00499592
966.9,-79.963,0.00506461
996.198,-79.964,0.00522612
1025.502,-79.963,0.0051866
1054.8,-79.964,0.00536491
1084.098,-79.964,0.00532574
1113.402,-79.563,0.00283179
1142.7,-74.891,0.130357
1171.998,-70.047,0.137946
1201.302,-65.181,0.14267
1230.6,-60.302,0.146795
1259.898,-55.42,0.150812
1289.202,-50.535,0.153935
1318.5,-45.65,0.157116
1347.798,-40.766,0.160255
1377.102,-35.879,0.163228
1406.4,-30.993,0.166396
1435.698,-26.106,0.170695
1465.002,-21.221,0.174751
1494.3,-16.336,0.178231
1523.598,-11.452,0.182517
1552.902,-6.568,0.188628
1582.2,-1.684,0.19453
1611.498,3.2,0.201799
1640.802,8.086,0.210013
1670.1,12.97,0.218145
1699.398,17.852,0.226205
1728.702,22.737,0.234601
1758,27.621,0.241339
1787.298,32.504,0.24692
1816.602,37.391,0.248451
1845.9,42.277,0.248393
1875.198,47.166,0.248661
1904.502,52.053,0.24857
1933.8,56.939,0.248459
1963.098,61.827,0.248665
1992.402,66.712,0.24871
2021.7,71.597,0.249085
2050.998,76.484,0.249962
2080.302,81.371,0.251383
2109.6,86.256,0.252816
2138.898,91.142,0.254924
2168.202,96.028,0.25751
2197.5,100.913,0.260762
2226.798,105.802,0.265105
2256.102,110.685,0.270921
2285.4,115.569,0.279204
2314.698,120.453,0.291843
2344.002,125.334,0.309994
2373.3,130.218,0.327233
2402.598,135.104,0.32771
2431.902,139.99,0.328452
2461.2,144.875,0.330469
2490.498,149.758,0.332858
2519.802,154.646,0.335635
2549.1,159.501,0.338689
2578.398,160.011,0.0686391
2607.702,160.037,0.0633565
2637,160.046,0.0597816
2666.298,160.05,0.0574804
2695.602,160.048,0.0559653
2724.9,160.047,0.0551869
2754.198,160.047,0.054459
2783.502,160.046,0.0538927
2812.8,160.046,0.053098
2842.098,160.046,0.0526635
2871.402,160.046,0.052141
2900.7,160.045,0.0518029
2929.998,160.046,0.0516096
2959.302,160.047,0.0511611
2988.6,160.046,0.0507567
3017.898,160.046,0.0503272
3047.202,160.045,0.0501417
3076.5,160.046,0.050222
3105.798,160.046,0.0498421
3135.102,160.046,0.0497808
3164.4,158.044,-0.212303
3193.698,153.216,-0.222109
3223.002,148.354,-0.225139
3252.3,143.481,-0.226954
3281.598,138.603,-0.227332
3310.902,133.719,-0.227366
3340.2,128.837,-0.225277
3369.498,123.956,-0.21956
3398.802,119.073,-0.209745
3428.1,114.19,-0.199342
3457.398,109.309,-0.190952
3486.702,104.426,-0.184664
3516,99.544,-0.179153
3545.298,94.662,-0.175359
3574.602,89.782,-0.172723
3603.9,84.901,-0.170115
3633.198,80.02,-0.167805
3662.502,75.14,-0.165835
3691.8,70.26,-0.164336
3721.098,65.378,-0.164131
3750.402,60.497,-0.162185
3779.7,55.616,-0.161237
3808.998,50.735,-0.16081
3838.302,45.854,-0.160194
3867.6,40.972,-0.159949
3896.898,36.092,-0.159865
3926.202,31.213,-0.159275
3955.5,26.334,-0.157849
3984.798,21.453,-0.15655
4014.102,16.568,-0.155538
4043.4,11.686,-0.154498
4072.698,6.805,-0.153416
4102.002,1.925,-0.152063
4131.3,-2.957,-0.151125
4160.598,-7.839,-0.15051
4189.902,-12.722,-0.150005
4219.2,-17.604,-0.149992
4248.498,-22.487,-0.150139
4277.802,-27.371,-0.150311
4307.1,-32.254,-0.15033
4336.398,-37.136,-0.150313
4365.702,-42.022,-0.150604
4395,-46.909,-0.150843
4424.298,-51.794,-0.151067
4453.602,-56.679,-0.151422
4482.9,-61.38,-0.146459
4512.198,-65.546,-0.131761
4541.502,-69.24,-0.116263
4570.8,-72.516,-0.103359
4600.098,-75.425,-0.0909354
4629.402,-78.007,-0.079967
4658.7,-80.039,-0.0448345
4687.998,-79.983,-0.0061396
4717.302,-79.959,-0.00175004
4746.6,-79.954,0.000151951
4775.898,-79.953,0.00130635
4805.202,-79.953,0.00222964
4834.5,-79.954,0.00263214
4863.798,-79.955,0.00298406
4893.102,-79.955,0.00346941
4922.4,-79.956,0.00334006
4951.698,-79.956,0.00332661
4981.002,-79.955,0.0037852
5010.3,-79.956,0.00391065
5039.598,-79.956,0.00401991
5068.902,-79.955,0.00404527
5098.2,-79.956,0.00418278
5127.498,-79.956,0.00432241
5156.802,-79.956,0.00437725
5186.1,-79.957,0.00441686
5215.398,-79.956,0.00451109
5244.702,-79.953,0.00450973
5274,-75.872,0.12534
5303.298,-71.037,0.134297
5332.602,-66.176,0.139354
5361.9,-61.3,0.143453
5391.198,-56.42,0.147283
5420.502,-51.537,0.150207
5449.8,-46.652,0.152836
5479.098,-41.768,0.155557
5508.402,-36.882,0.15807
5537.7,-31.998,0.160686
5566.998,-27.112,0.163956
5596.302,-22.228,0.167305
5625.6,-17.343,0.170217
5654.898,-12.457,0.172905
5684.202,-7.572,0.175789
5713.5,-2.688,0.178949
5742.798,2.198,0.182431
5772.102,7.085,0.186228
5801.4,11.971,0.190088
5830.698,16.857,0.19374
5860.002,21.742,0.197281
5889.3,26.628,0.201057
5918.598,31.515,0.204553
5947.902,36.4,0.208266
5977.2,41.288,0.21162
6006.48,46.175,0.214934
6035.82,51.06,0.218144
6065.1,55.945,0.221306
6094.38,60.832,0.224576
6123.72,65.717,0.228048
6153,70.602,0.231519
6182.28,75.487,0.235147
6211.62,80.375,0.239279
6240.9,85.262,0.243272
6270.18,90.146,0.247534
6299.52,95.031,0.251696
6328.8,99.915,0.256106
6358.08,104.799,0.260987
6387.42,109.687,0.267618
6416.7,114.573,0.275705
6445.98,119.457,0.286786
6475.32,124.336,0.302697
6504.6,129.22,0.320964
6533.88,134.107,0.326799
6563.22,138.99,0.328125
6592.5,143.876,0.33061
6621.78,148.758,0.332876
6651.12,153.645,0.335352
6680.4,158.53,0.337673
6709.68,160.006,0.0702476
6739.02,160.033,0.064292
6768.3,160.045,0.0609085
6797.58,160.048,0.0589312
6826.92,160.048,0.057705
6856.2,160.046,0.0567767
6885.48,160.047,0.0561879
6914.82,160.048,0.0552977
6944.1,160.047,0.0548663
6973.38,160.047,0.0541739
7002.72,160.046,0.0537688
7032,160.046,0.0534783
7061.28,160.045,0.052913
7090.62,160.046,0.0525187
7119.9,160.047,0.0522954
7149.18,160.046,0.0519625
7178.52,160.046,0.0521116
7207.8,160.046,0.0518444
7237.08,160.045,0.0516986
7266.42,160.046,0.0515336
7295.7,159.006,-0.179014
7324.98,154.208,-0.219043
7354.32,149.351,-0.222618
7383.6,144.478,-0.224279
7412.88,139.599,-0.224682
7442.22,134.72,-0.224352
7471.5,129.839,-0.223261
7500.78,124.957,-0.218449
7530.12,120.072,-0.208703
7559.4,115.192,-0.19799
7588.68,110.311,-0.189481
7618.02,105.43,-0.18304
7647.3,100.546,-0.178349
7676.58,95.664,-0.17416
7705.92,90.783,-0.171301
7735.2,85.902,-0.168759
7764.48,81.021,-0.166676
7793.82,76.141,-0.165028
7823.1,71.26,-0.163902
7852.38,66.379,-0.163634
7881.72,61.498,-0.16277
7911,56.617,-0.161792
7940.28,51.734,-0.161456
7969.62,46.854,-0.161139
7998.9,41.974,-0.160779
8028.18,37.094,-0.160064
8057.52,32.216,-0.159051
8086.8,27.336,-0.157673
8116.08,22.454,-0.156294
8145.42,17.572,-0.154973
8174.7,12.691,-0.153821
8203.98,7.809,-0.152726
8233.32,2.924,-0.15156
8262.6,-1.956,-0.150339
8291.88,-6.839,-0.149686
8321.22,-11.721,-0.149241
8350.5,-16.603,-0.149
8379.78,-21.486,-0.148813
8409.12,-26.369,-0.148951
8438.4,-31.253,-0.148799
8467.68,-36.137,-0.148766
8497.02,-41.021,-0.14871
8526.3,-45.906,-0.149017
8555.58,-50.792,-0.149232
8584.92,-55.678,-0.149766
8614.2,-60.461,-0.147118
8643.48,-64.733,-0.132779
8672.82,-68.517,-0.117908
8702.1,-71.875,-0.104201
8731.38,-74.856,-0.091591
8760.72,-77.502,-0.0802228
8779.92,,

File: UMET_DSC_N2_1K_1.csv
Time,Temp,Heat Flow
[s],[k],[mW/mg]
0,273.15,0
75,279.189,-0.43273
150,251.653,-0.314221
225,231.327,-0.228212
300,216.365,-0.165016
375,205.551,-0.113586
450,198.531,-0.0692334
525,194.135,-0.0398791
600,192.908,0.0127725
675,193.173,0.00739126
750,193.185,0.00692929
825,193.187,0.00754765
900,193.177,0.00769269
975,193.183,0.00780264
1050,193.184,0.00793483
1125,193.185,0.00805025
1200,193.185,0.00804802
1275,195.655,0.0443832
1350,199.397,0.0483002
1425,203.148,0.0500196
1500,206.898,0.0512021
1575,210.65,0.0522614
1650,214.401,0.0528769
1725,218.151,0.0535868
1800,221.903,0.0545823
1875,225.656,0.0553666
1950,229.403,0.0558975
2025,233.147,0.0564309
2100,236.897,0.0582207
2175,240.654,0.0594112
2250,244.406,0.0606827
2325,248.157,0.0615998
2400,251.909,0.0629586
2475,255.66,0.0642608
2550,259.41,0.0664456
2625,263.159,0.0694841
2700,266.908,0.073785
2775,270.659,0.0783455
2850,274.408,0.0827084
2925,278.159,0.0858262
3000,281.909,0.089003
3075,285.659,0.0903193
3150,289.41,0.0919563
3225,293.16,0.0918329
3300,296.912,0.0910489
3375,300.663,0.0905639
3450,304.415,0.0907377
3525,308.166,0.0903568
3600,311.918,0.0902936
3675,315.668,0.0899742
3750,319.419,0.0901239
3825,323.168,0.089853
3900,326.919,0.0899314
3975,330.67,0.090375
4050,334.421,0.0909161
4125,338.173,0.0916096
4200,341.924,0.0923195
4275,345.675,0.0934951
4350,349.426,0.0946194
4425,353.175,0.0955476
4500,356.927,0.0964624
4575,360.677,0.0976218
4650,364.428,0.0997544
4725,368.178,0.101004
4800,371.928,0.102965
4875,375.677,0.104981
4950,379.427,0.107169
5025,383.177,0.108141
5100,386.93,0.1139
5175,390.678,0.118861
5250,394.427,0.123535
5325,398.177,0.128101
5400,401.927,0.130671
5475,405.679,0.131626
5550,409.43,0.132975
5625,413.179,0.134729
5700,416.927,0.135819
5775,420.676,0.136602
5850,424.424,0.137695
5925,428.176,0.138834
6000,431.927,0.135311
6075,433.195,0.0544246
6150,433.196,0.0515973
6225,433.197,0.0506541
6300,433.196,0.0502082
6375,433.197,0.0499302
6450,433.199,0.0496134
6525,433.198,0.0491545
6600,433.196,0.0490635
6675,430.755,-0.0320105
6750,427.013,-0.0340421
6825,423.263,-0.034543
6900,419.515,-0.0350889
6975,415.768,-0.0352831
7050,412.016,-0.0356961
7125,408.267,-0.0353382
7200,404.517,-0.0349935
7275,400.77,-0.0342582
7350,397.02,-0.0329094
7425,393.274,-0.0305897
7500,389.52,-0.0268773
7575,385.773,-0.0248968
7650,382.026,-0.0234653
7725,378.277,-0.0220556
7800,374.529,-0.0216341
7875,370.774,-0.0203809
7950,367.026,-0.0196391
8025,363.276,-0.0188124
8100,359.527,-0.0187469
8175,355.779,-0.019801
8250,352.029,-0.0206849
8325,348.28,-0.0213444
8400,344.532,-0.0221161
8475,340.785,-0.0229042
8550,337.037,-0.0234158
8625,333.288,-0.0237107
8700,329.539,-0.0242861
8775,325.788,-0.0243663
8850,322.037,-0.0247782
8925,318.288,-0.0245341
9000,314.538,-0.0248984
9075,310.79,-0.025055
9150,307.041,-0.0257563
9225,303.29,-0.0257344
9300,299.536,-0.0259843
9375,295.787,-0.0258399
9450,292.039,-0.0258235
9525,288.288,-0.0260965
9600,284.539,-0.0261402
9675,280.79,-0.0265533
9750,277.039,-0.0267387
9825,273.289,-0.0268205
9900,269.539,-0.027383
9975,265.789,-0.0272583
10050,262.039,-0.0276912
10125,258.29,-0.0279563
10200,254.539,-0.0285008
10275,250.788,-0.0288851
10350,247.038,-0.0290174
10425,243.288,-0.0294817
10500,239.537,-0.0297471
10575,235.787,-0.0301613
10650,232.036,-0.0306263
10725,228.285,-0.0309916
10800,224.535,-0.0313775
10875,220.783,-0.0317339
10950,217.032,-0.032334
11025,213.282,-0.0327038
11100,209.531,-0.0326164
11175,205.78,-0.033135
11250,202.029,-0.0331087
11325,198.278,-0.03314
11400,194.53,-0.0323205
11475,193.209,0.00455533
11550,193.194,0.00849836
11625,193.192,0.00918172
11700,193.192,0.00939466
11775,193.191,0.00921591
11850,193.191,0.00967511
11925,193.191,0.00969917
12000,193.191,0.00980775
12075,195.607,0.0460696
12150,199.346,0.0501884
12225,203.095,0.0519159
12300,206.847,0.0535494
12375,210.597,0.0547927
12450,214.348,0.0554365
12525,218.098,0.056329
12600,221.848,0.057266
12675,225.6,0.0578707
12750,229.349,0.0586133
12825,233.101,0.05948
12900,236.851,0.0605574
12975,240.602,0.0615264
13050,244.353,0.0624854
13125,248.103,0.0635108
13200,251.853,0.0645065
13275,255.603,0.0653824
13350,259.355,0.0663892
13425,263.104,0.0677105
13500,266.854,0.0687631
13575,270.606,0.0702851
13650,274.357,0.0714655
13725,278.109,0.0727672
13800,281.859,0.0739556
13875,285.611,0.0752754
13950,289.362,0.0765724
14025,293.112,0.0779311
14100,296.862,0.0791457
14175,300.614,0.080345
14250,304.364,0.0814788
14325,308.116,0.0828769
14400,311.866,0.0839726
14475,315.617,0.0850858
14550,319.367,0.0863792
14625,323.119,0.087407
14700,326.869,0.0887159
14775,330.62,0.0896923
14850,334.37,0.091105
14925,338.121,0.0923228
15000,341.871,0.0933723
15075,345.621,0.0946893
15150,349.372,0.0962627
15225,353.123,0.0972636
15300,356.874,0.0985921
15375,360.626,0.100208
15450,364.375,0.102472
15525,368.125,0.10393
15600,371.875,0.106015
15675,375.626,0.107828
15750,379.376,0.109809
15825,383.127,0.112668
15900,386.878,0.116104
15975,390.629,0.120699
16050,394.378,0.126102
16125,398.127,0.131261
16200,401.876,0.133843
16275,405.625,0.134271
16350,409.378,0.134108
16425,413.127,0.133898
16500,416.875,0.134306
16575,420.624,0.134446
16650,424.374,0.134973
16725,428.123,0.135132
16800,431.874,0.135501
16875,433.194,0.0545278
16950,433.197,0.0514898
17025,433.196,0.0508614
17100,433.196,0.0504103
17175,433.195,0.0498501
17250,433.196,0.0497915
17325,433.198,0.0497178
17400,433.197,0.0492022
17475,430.808,-0.0319945
17550,427.064,-0.0339827
17625,423.317,-0.034485
17700,419.568,-0.0352696
17775,415.815,-0.0343099
17850,412.067,-0.0339166
17925,408.325,-0.0338732
18000,404.573,-0.0349018
18075,400.82,-0.0334053
18150,397.073,-0.0315744
18225,393.323,-0.0291159
18300,389.575,-0.0263301
18375,385.828,-0.0246207
18450,382.077,-0.0228775
18525,378.324,-0.0211696
18600,374.578,-0.020392
18675,370.828,-0.0195109
18750,367.083,-0.0200653
18825,363.331,-0.0198941
18900,359.583,-0.0202174
18975,355.827,-0.020134
19050,352.082,-0.0212983
19125,348.333,-0.0227092
19200,344.585,-0.0232866
19275,340.836,-0.0243039
19350,337.086,-0.0251012
19425,333.334,-0.0259729
19500,329.587,-0.0265117
19575,325.839,-0.0266908
19650,322.089,-0.0265106
19725,318.339,-0.0268155
19800,314.591,-0.0267534
19875,310.84,-0.0272915
19950,307.091,-0.027441
20025,303.34,-0.0274135
20100,299.592,-0.0276303
20175,295.842,-0.0279119
20250,292.09,-0.0281302
20325,288.34,-0.0277884
20400,284.591,-0.0279631
20475,280.841,-0.0281257
20550,277.092,-0.028425
20625,273.341,-0.0289733
20700,269.59,-0.0288097
20775,265.84,-0.0288833
20850,262.091,-0.0289817
20925,258.341,-0.0293703
21000,254.591,-0.0298472
21075,250.84,-0.0300943
21150,247.09,-0.0302562
21225,243.339,-0.0305374
21300,239.589,-0.0312339
21375,235.838,-0.0313672
21450,232.088,-0.0320311
21525,228.337,-0.032342
21600,224.586,-0.0326786
21675,220.833,-0.033047
21750,217.086,-0.0331579
21825,213.334,-0.0335727
21900,209.583,-0.0339559
21975,205.832,-0.03408
22050,202.081,-0.034412
22125,198.33,-0.0340195
22200,194.582,-0.0334246
22215,193.835,-0.0333037