Folder: matl-db/Non-charring/PMMA/UMET (part 3)

File: UMET_DSC_N2_20K_1.csv
[s],[k],[mW/mg]
0,273.15,0
21,304.624,-0.587286
42,294.159,-0.531149
63,284.434,-0.425888
84,275.466,-0.399291
105,267.207,-0.375787
126,259.611,-0.349059
147,252.63,-0.321804
168,246.221,-0.295459
189,240.338,-0.270322
210,234.937,-0.247674
231,229.981,-0.227019
252,225.431,-0.208158
273,221.256,-0.188698
294,217.424,-0.173279
315,213.907,-0.158257
336,210.68,-0.144199
357,207.718,-0.131475
378,204.999,-0.119768
399,202.504,-0.108668
420,200.215,-0.098914
441,198.115,-0.0896862
462,196.185,-0.0813238
483,194.357,-0.0752786
504,193.317,-0.0298905
525,193.25,-0.00891194
546,193.22,-0.00259748
567,193.207,0.000958547
588,193.2,0.00286657
609,193.196,0.00416931
630,193.195,0.00504908
651,193.194,0.00575085
672,193.193,0.00601781
693,193.192,0.00634017
714,193.192,0.00641584
735,193.192,0.00656458
756,193.193,0.00667839
777,193.192,0.00668874
798,193.192,0.00673886
819,193.192,0.00679162
840,193.192,0.00679383
861,193.193,0.00694232
882,193.193,0.0070062
903,193.191,0.00701747
924,193.192,0.00703886
945,193.192,0.00685232
966,193.192,0.00692048
987,193.192,0.00692853
1008,193.19,0.00685562
1029,193.189,0.00692555
1050,193.191,0.0069687
1071,193.192,0.0070125
1092,193.19,0.00710546
1113,193.856,-0.0351335
1134,200.422,0.249054
1155,207.33,0.256404
1176,214.276,0.262751
1197,221.253,0.270014
1218,228.241,0.278356
1239,235.241,0.287972
1260,242.244,0.298061
1281,249.249,0.309628
1302,256.254,0.322101
1323,263.259,0.33443
1344,270.264,0.348778
1365,277.269,0.363537
1386,284.272,0.380212
1407,291.277,0.39673
1428,298.283,0.413418
1449,305.287,0.429767
1470,312.292,0.445964
1491,319.3,0.45703
1512,326.309,0.465338
1533,333.315,0.472983
1554,340.323,0.479817
1575,347.33,0.48617
1596,354.338,0.492066
1617,361.35,0.497916
1638,368.36,0.503566
1659,375.368,0.510077
1680,382.369,0.519317
1701,389.374,0.537045
1722,396.377,0.577341
1743,403.374,0.621983
1764,410.385,0.626019
1785,417.39,0.626892
1806,424.396,0.631074
1827,431.397,0.636582
1848,433.092,0.0937682
1869,433.143,0.0799902
1890,433.176,0.0737614
1911,433.189,0.068827
1932,433.194,0.0658691
1953,433.197,0.0640953
1974,433.2,0.0620636
1995,433.195,0.0607597
2016,433.195,0.0602918
2037,433.196,0.0596125
2058,433.194,0.0588562
2079,433.192,0.0583097
2100,433.195,0.0579654
2121,433.195,0.0574546
2142,433.196,0.0569047
2163,433.194,0.0563869
2184,433.194,0.0563271
2205,433.196,0.0561001
2226,433.196,0.0556261
2247,433.198,0.0552694
2268,433.197,0.0545556
2289,433.196,0.054134
2310,433.195,0.0540554
2331,433.195,0.0537286
2352,433.194,0.0533374
2373,433.195,0.0531537
2394,433.193,0.0528498
2415,433.193,0.0529351
2436,431.857,-0.275048
2457,425.101,-0.503734
2478,418.166,-0.509499
2499,411.198,-0.513557
2520,404.215,-0.513271
2541,397.221,-0.503064
2562,390.222,-0.472357
2583,383.225,-0.445615
2604,376.23,-0.427154
2625,369.235,-0.412647
2646,362.242,-0.40205
2667,355.246,-0.393167
2688,348.251,-0.385617
2709,341.255,-0.378573
2730,334.259,-0.372424
2751,327.263,-0.365281
2772,320.267,-0.35955
2793,313.273,-0.353693
2814,306.278,-0.349253
2835,299.283,-0.344645
2856,292.286,-0.340044
2877,285.289,-0.335891
2898,278.293,-0.332178
2919,271.299,-0.328266
2940,264.305,-0.3245
2961,257.31,-0.321783
2982,250.529,-0.311861
3003,244.316,-0.284722
3024,238.624,-0.261081
3045,233.402,-0.240137
3066,228.606,-0.218521
3087,224.202,-0.201265
3108,220.16,-0.183997
3129,216.446,-0.168549
3150,213.035,-0.153948
3171,209.902,-0.140724
3192,207.028,-0.128372
3213,204.387,-0.11696
3234,201.961,-0.106497
3255,199.733,-0.0970019
3276,197.687,-0.0880596
3297,195.809,-0.0797943
3318,194.048,-0.0722771
3339,193.142,-0.0219633
3360,193.18,-0.00524661
3381,193.195,-0.00075877
3402,193.199,0.00154965
3423,193.2,0.00289292
3444,193.2,0.00380053
3465,193.199,0.00430455
3486,193.199,0.00492878
3507,193.199,0.00531202
3528,193.199,0.00562361
3549,193.198,0.00584693
3570,193.197,0.00612237
3591,193.197,0.00615691
3612,193.197,0.00639127
3633,193.197,0.00659586
3654,193.198,0.00664278
3675,193.197,0.00660312
3696,193.197,0.00679223
3717,193.196,0.00691658
3738,193.196,0.00689082
3759,193.196,0.00687523
3780,193.196,0.00689182
3801,193.195,0.0070759
3822,193.195,0.00724799
3843,193.195,0.00733855
3864,193.195,0.00738753
3885,193.194,0.00754946
3906,193.195,0.00745082
3927,196.199,0.19696
3948,203.046,0.250415
3969,209.936,0.256518
3990,216.928,0.262528
4011,223.907,0.269397
4032,230.899,0.277312
4053,237.9,0.286017
4074,244.869,0.295188
4095,251.908,0.305695
4116,258.914,0.315649
4137,265.921,0.325316
4158,272.93,0.335161
4179,279.936,0.344952
4200,286.941,0.355891
4221,293.95,0.366911
4242,300.958,0.377539
4263,307.965,0.387435
4284,314.974,0.397269
4305,321.98,0.407056
4326,328.988,0.416788
4347,335.994,0.426161
4368,343.001,0.43592
4389,350.007,0.446013
4410,357.013,0.456272
4431,364.019,0.467156
4452,371.025,0.47796
4473,378.033,0.490565
4494,385.04,0.507296
4515,392.045,0.538186
4536,399.043,0.589956
4557,406.042,0.620177
4578,413.051,0.623844
4599,420.058,0.628202
4620,427.069,0.634146
4641,432.945,0.448744
4662,433.115,0.0835605
4683,433.161,0.0774508
4704,433.185,0.0718788
4725,433.194,0.0677518
4746,433.198,0.0650869
4767,433.198,0.0631094
4788,433.197,0.0618778
4809,433.199,0.0610753
4830,433.199,0.0599677
4851,433.199,0.0590056
4872,433.196,0.0584866
4893,433.196,0.0580706
4914,433.196,0.057592
4935,433.196,0.0571515
4956,433.195,0.0566143
4977,433.195,0.056328
4998,433.194,0.0562222
5019,433.194,0.0559626
5040,433.194,0.0556719
5061,433.194,0.0554757
5082,433.193,0.0553818
5103,433.195,0.0553697
5124,433.193,0.0550708
5145,433.192,0.0549158
5166,433.194,0.0549512
5187,433.193,0.0548102
5208,433.193,0.0547303
5229,433.194,0.0547993
5250,429.36,-0.478758
5271,422.457,-0.504462
5292,415.507,-0.5098
5313,408.531,-0.512385
5334,401.544,-0.509747
5355,394.55,-0.489836
5376,387.551,-0.45984
5397,380.554,-0.436669
5418,373.557,-0.419601
5439,366.562,-0.406769
5460,359.567,-0.396842
5481,352.571,-0.388368
5502,345.575,-0.380961
5523,338.582,-0.37508
5544,331.585,-0.368443
5565,324.589,-0.361957
5586,317.595,-0.356816
5607,310.6,-0.352377
5628,303.605,-0.348295
5649,296.61,-0.344146
5670,289.615,-0.339632
5691,282.621,-0.334993
5712,275.629,-0.330335
5733,268.636,-0.325791
5754,261.638,-0.322639
5775,254.658,-0.319865
5796,248.091,-0.300108
5817,242.085,-0.274908
5838,236.576,-0.252433
5859,231.522,-0.231543
5880,226.88,-0.211984
5901,222.617,-0.193463
5922,218.703,-0.17765
5943,215.109,-0.162226
5964,211.807,-0.148356
5985,208.776,-0.135426
6006,205.992,-0.123656
6027,203.435,-0.112501
6048,201.087,-0.102446
6069,198.93,-0.0930891
6090,196.95,-0.0847418
6111,195.133,-0.0766674
6114;194.883;-0.0755312,,

File: UMET_TGA_N2_1.csv
Time,Temperature,Mass
[s],[K],[mg]
0,313.115,4.3361
2,315.115,4.3361
4,317.115,4.33303
6,319.115,4.3314
8,321.115,4.33031
10,323.115,4.3293
12,325.115,4.3287
14,327.115,4.32827
16,329.115,4.32928
18,331.115,4.32682
20,333.115,4.32668
22,335.115,4.32451
24,337.115,4.32389
26,339.115,4.32187
28,341.115,4.32127
30,343.115,4.32228
32,345.115,4.32216
34,347.115,4.32071
36,349.115,4.32191
38,351.115,4.3218
40,353.115,4.32089
42,355.115,4.32161
44,357.115,4.32009
46,359.115,4.32002
48,361.115,4.31991
50,363.115,4.32171
52,365.115,4.32051
54,367.115,4.32046
56,369.115,4.32059
58,371.115,4.31986
60,373.115,4.31948
62,375.115,4.31827
64,377.115,4.31716
66,379.115,4.31468
68,381.115,4.31661
70,383.115,4.31602
72,385.115,4.31771
74,387.115,4.3163
76,389.115,4.3168
78,391.115,4.31499
80,393.115,4.31506
82,395.115,4.31483
84,397.115,4.31485
86,399.115,4.31379
88,401.115,4.31368
90,403.115,4.31417
92,405.115,4.31291
94,407.115,4.31521
96,409.115,4.3121
98,411.115,4.31171
100,413.115,4.31126
102,415.115,4.31049
104,417.115,4.30947
106,419.115,4.31037
108,421.115,4.30719
110,423.115,4.30527
112,425.115,4.3044
114,427.115,4.3029
116,429.115,4.30091
118,431.115,4.29993
120,433.115,4.29592
122,435.115,4.29211
124,437.115,4.2863
126,439.115,4.28183
128,441.115,4.27679
130,443.115,4.27278
132,445.115,4.26833
134,447.115,4.26267
136,449.115,4.2547
138,451.115,4.25029
140,453.115,4.2459
142,455.115,4.2426
144,457.115,4.23953
146,459.115,4.2384
148,461.115,4.23581
150,463.115,4.23217
152,465.115,4.22976
154,467.115,4.22807
156,469.115,4.22637
158,471.115,4.22641
160,473.115,4.22497
162,475.115,4.22396
164,477.115,4.2226
166,479.115,4.22406
168,481.115,4.22469
170,483.115,4.22484
172,485.115,4.22402
174,487.115,4.22249
176,489.115,4.22024
178,491.115,4.2193
180,493.115,4.22079
182,495.115,4.21906
184,497.115,4.21889
186,499.115,4.21782
188,501.115,4.2164
190,503.115,4.2167
192,505.115,4.21621
194,507.115,4.21426
196,509.115,4.21366
198,511.115,4.21199
200,513.115,4.20813
202,515.115,4.2049
204,517.115,4.20237
206,519.115,4.20031
208,521.115,4.19628
210,523.115,4.19157
212,525.115,4.18902
214,527.115,4.18108
216,529.115,4.17734
218,531.115,4.16967
220,533.115,4.16556
222,535.115,4.1569
224,537.115,4.1498
226,539.115,4.1415
228,541.115,4.13132
230,543.115,4.12277
232,545.115,4.11342
234,547.115,4.1047
236,549.115,4.09219
238,551.115,4.08053
240,553.115,4.06598
242,555.115,4.05318
244,557.115,4.03656
246,559.115,4.02057
248,561.115,4.00006
250,563.115,3.97607
252,565.115,3.95212
254,567.115,3.92563
256,569.115,3.89374
258,571.115,3.85566
260,573.115,3.81468
262,575.115,3.76668
264,577.115,3.71644
266,579.115,3.65632
268,581.115,3.59034
270,583.115,3.51102
272,585.115,3.42663
274,587.115,3.33088
276,589.115,3.2265
278,591.115,3.1135
280,593.115,2.98813
282,595.115,2.85223
284,597.115,2.7071
286,599.115,2.55404
288,601.115,2.39434
290,603.115,2.2319
292,605.115,2.0703
294,607.115,1.906
296,609.115,1.7444
298,611.115,1.58534
300,613.115,1.42675
302,615.115,1.26905
304,617.115,1.11497
306,619.115,0.968797
308,621.115,0.834969
310,623.115,0.714415
312,625.115,0.605875
314,627.115,0.509511
316,629.115,0.426788
318,631.115,0.356714
320,633.115,0.296297
322,635.115,0.244338
324,637.115,0.198866
326,639.115,0.162834
328,641.115,0.131007
330,643.115,0.105049
332,645.115,0.0847764
334,647.115,0.06914822
336,649.115,0.0557731
338,651.115,0.0462922
340,653.115,0.0369288
342,655.115,0.02951193
344,657.115,0.0250804
346,659.115,0.02230143
348,661.115,0.0201325
350,663.115,0.0195216
352,665.115,0.018555
354,667.115,0.0180967
356,669.115,0.0169442
358,671.115,0.015407
360,673.115,0.0132737
362,675.115,0.0136466
364,677.115,0.0162066
366,679.115,0.0174489
368,681.115,0.0177039
370,683.115,0.0187584
372,685.115,0.018686
374,687.115,0.0187588
376,689.115,0.0183842
378,691.115,0.01888545
380,693.115,0.018598
382,695.115,0.0177459
384,697.115,0.0202006
386,699.115,0.0199912
388,701.115,0.0196074
390,703.115,0.0191664
392,705.115,0.019636
394,707.115,0.0207964
396,709.115,0.0214156
398,711.115,0.02168527
400,713.115,0.0214988
402,715.115,0.0207955
404,717.115,0.0209941
406,719.115,0.0210305
408,721.115,0.0213783
410,723.115,0.0217
412,725.115,0
414,727.115,0
416,729.115,0
418,731.115,0
420,733.115,0
422,735.115,0
424,737.115,0
426,739.115,0
428,741.115,0
430,743.115,0
432,745.115,0
434,747.115,0
436,749.115,0
438,751.115,0
440,753.115,0
442,755.115,0
444,757.115,0
446,759.115,0
448,761.115,0
450,763.115,0
452,765.115,0
454,767.115,0
456,769.115,0
458,771.115,0
460,773.115,0
460.5,773.615,0

File: UMET_TGA_N2_2.csv
Time,Temperature,Mass
[s],[K],[mg]
0,313.115,4.8446
1,315.115,4.8446
2,317.115,4.8446
3,319.115,4.8446
4,321.115,4.8446
5,323.115,4.8446
6,325.115,4.8446
7,327.115,4.8446
8,329.115,4.8446
9,331.115,4.8446
10,333.115,4.8446
11,335.115,4.8446
12,337.115,4.8446
13,339.115,4.8446
14,341.115,4.8446
15,343.115,4.8446
16,345.115,4.8446
17,347.115,4.8446
18,349.115,4.8446
19,351.115,4.8446
20,353.115,4.8446
21,355.115,4.8446
22,357.115,4.8446
23,359.115,4.8446
24,361.115,4.8446
25,363.115,4.8446
26,365.115,4.8446
27,367.115,4.8446
28,369.115,4.8446
29,371.115,4.8446
30,373.115,4.8446
31,375.115,4.8446
32,377.115,4.8446
33,379.115,4.8446
34,381.115,4.8446
35,383.115,4.8446
36,385.115,4.8446
37,387.115,4.8446
38,389.115,4.8446
39,391.115,4.8446
40,393.115,4.8446
41,395.115,4.8438
42,397.115,4.8433
43,399.115,4.84238
44,401.115,4.84212
45,403.115,4.84161
46,405.115,4.84138
47,407.115,4.8417
48,409.115,4.8417
49,411.115,4.8419
50,413.115,4.8402
51,415.115,4.83999
52,417.115,4.83836
53,419.115,4.8372
54,421.115,4.8363
55,423.115,4.83656
56,425.115,4.8353
57,427.115,4.83329
58,429.115,4.83172
59,431.115,4.82993
60,433.115,4.82833
61,435.115,4.8256
62,437.115,4.82134
63,439.115,4.81644
64,441.115,4.8099
65,443.115,4.8041
66,445.115,4.7989
67,447.115,4.79257
68,449.115,4.78519
69,451.115,4.77969
70,453.115,4.77331
71,455.115,4.7677
72,457.115,4.76069
73,459.115,4.75569
74,461.115,4.75115
75,463.115,4.7457
76,465.115,4.74154
77,467.115,4.73809
78,469.115,4.73386
79,471.115,4.7285
80,473.115,4.72653
81,475.115,4.72601
82,477.115,4.72391
83,479.115,4.72191
84,481.115,4.7224
85,483.115,4.7235
86,485.115,4.7221
87,487.115,4.7209
88,489.115,4.71841
89,491.115,4.7175
90,493.115,4.71671
91,495.115,4.71687
92,497.115,4.7144
93,499.115,4.7146
94,501.115,4.71356
95,503.115,4.7132
96,505.115,4.71171
97,507.115,4.71191
98,509.115,4.70954
99,511.115,4.70918
100,513.115,4.70746
101,515.115,4.70401
102,517.115,4.70278
103,519.115,4.69999
104,521.115,4.69529
105,523.115,4.69041
106,525.115,4.6878
107,527.115,4.68489
108,529.115,4.6813
109,531.115,4.6764
110,533.115,4.6724
111,535.115,4.66699
112,537.115,4.66005
113,539.115,4.6545
114,541.115,4.64681
115,543.115,4.63958
116,545.115,4.63006
117,547.115,4.6202
118,549.115,4.61005
119,551.115,4.60028
120,553.115,4.58917
121,555.115,4.57733
122,557.115,4.56533
123,559.115,4.55181
124,561.115,4.53779
125,563.115,4.52231
126,565.115,4.50553
127,567.115,4.48577
128,569.115,4.4639
129,571.115,4.43926
130,573.115,4.41187
131,575.115,4.37878
132,577.115,4.34169
133,579.115,4.30259
134,581.115,4.25662
135,583.115,4.20382
136,585.115,4.14596
137,587.115,4.07808
138,589.115,4.00071
139,591.115,3.91656
140,593.115,3.82299
141,595.115,3.71844
142,597.115,3.6019
143,599.115,3.47549
144,601.115,3.33551
145,603.115,3.18639
146,605.115,3.02877
147,607.115,2.86082
148,609.115,2.68374
149,611.115,2.50092
150,613.115,2.31898
151,615.115,2.13977
152,617.115,1.96433
153,619.115,1.7928
154,621.115,1.62689
155,623.115,1.45566
156,625.115,1.29063
157,627.115,1.13562
158,629.115,0.986564
159,631.115,0.848419
160,633.115,0.724266
161,635.115,0.614098
162,637.115,0.516564
163,639.115,0.432993
164,641.115,0.361512
165,643.115,0.298664
166,645.115,0.247381
167,647.115,0.204067
168,649.115,0.169178
169,651.115,0.140887
170,653.115,0.117169
171,655.115,0.09815741
172,657.115,0.08295893
173,659.115,0.069397
174,661.115,0.0614087
175,663.115,0.0529607
176,665.115,0.045298
177,667.115,0.0406016
178,669.115,0.03799862
179,671.115,0.0338051
180,673.115,0.0308005
181,675.115,0.0289135
182,677.115,0.0296964
183,679.115,0.0298994
184,681.115,0.02989312
185,683.115,0.0294745
186,685.115,0.0298951
187,687.115,0.0286955
188,689.115,0.028104
189,691.115,0.0283942
190,693.115,0.0282067
191,695.115,0.0278928
192,697.115,0.0276055
193,699.115,0.0268769
194,701.115,0.0275498
195,703.115,0.0285957
196,705.115,0.0284722
197,707.115,0.0279456
198,709.115,0.0279926
199,711.115,0.0306203
200,713.115,0.0288259
201,715.115,0.0287978
202,717.115,0.0287018
203,719.115,0.0268982
204,721.115,0.02749795
205,723.115,0.0270963
206,725.115,0
207,727.115,0
208,729.115,0
209,731.115,0
210,733.115,0
211,735.115,0
212,737.115,0
213,739.115,0
214,741.115,0
215,743.115,0
216,745.115,0
217,747.115,0
218,749.115,0
219,751.115,0
220,753.115,0
221,755.115,0
222,757.115,0
223,759.115,0
224,761.115,0
225,763.115,0
226,765.115,0
227,767.115,0
228,769.115,0
229,771.115,0
230,773.115,0
230.25,773.615,0

File: UMET_TGA_N2_3.csv
Time,Temperature,Mass
[s],[K],[mg]
0,313.115,4.0931
0.4,315.115,4.0931
0.8,317.115,4.0931
1.2,319.115,4.0931
1.6,321.115,4.0931
2,323.115,4.0931
2.4,325.115,4.0931
2.8,327.115,4.0931
3.2,329.115,4.0931
3.6,331.115,4.0931
4,333.115,4.0931
4.4,335.115,4.0931
4.8,337.115,4.0931
5.2,339.115,4.0931
5.6,341.115,4.0931
6,343.115,4.0931
6.4,345.115,4.0931
6.8,347.115,4.0931
7.2,349.115,4.0931
7.6,351.115,4.0931
8,353.115,4.0931
8.4,355.115,4.0931
8.8,357.115,4.0931
9.2,359.115,4.0931
9.6,361.115,4.0931
10,363.115,4.0931
10.4,365.115,4.0931
10.8,367.115,4.0931
11.2,369.115,4.0931
11.6,371.115,4.0931
12,373.115,4.0931
12.4,375.115,4.0931
12.8,377.115,4.0931
13.2,379.115,4.0931
13.6,381.115,4.0931
14,383.115,4.0931
14.4,385.115,4.0931
14.8,387.115,4.0931
15.2,389.115,4.0931
15.6,391.115,4.0931
16,393.115,4.0931
16.4,395.115,4.0931
16.8,397.115,4.0931
17.2,399.115,4.0931
17.6,401.115,4.0931
18,403.115,4.0931
18.4,405.115,4.0931
18.8,407.115,4.0931
19.2,409.115,4.0931
19.6,411.115,4.0931
20,413.115,4.0931
20.4,415.115,4.0931
20.8,417.115,4.0931
21.2,419.115,4.0931
21.6,421.115,4.0931
22,423.115,4.0931
22.4,425.115,4.0931
22.8,427.115,4.0931
23.2,429.115,4.0931
23.6,431.115,4.0931
24,433.115,4.0931
24.4,435.115,4.0931
24.8,437.115,4.0931
25.2,439.115,4.0931
25.6,441.115,4.0901
26,443.115,4.08849
26.4,445.115,4.08404
26.8,447.115,4.08106
27.2,449.115,4.07397
27.6,451.115,4.0713
28,453.115,4.06526
28.4,455.115,4.05929
28.8,457.115,4.0536
29.2,459.115,4.04767
29.6,461.115,4.04337
30,463.115,4.0382
30.4,465.115,4.0343
30.8,467.115,4.031
31.2,469.115,4.0259
31.6,471.115,4.02266
32,473.115,4.01804
32.4,475.115,4.01516
32.8,477.115,4.01208
33.2,479.115,4.0097
33.6,481.115,4.00704
34,483.115,4.00438
34.4,485.115,4.00429
34.8,487.115,4.00038
35.2,489.115,3.9995
35.6,491.115,3.99791
36,493.115,3.9974
36.4,495.115,3.9952
36.8,497.115,3.99379
37.2,499.115,3.9928
37.6,501.115,3.99201
38,503.115,3.9913
38.4,505.115,3.9925
38.8,507.115,3.98809
39.2,509.115,3.9886
39.6,511.115,3.98779
40,513.115,3.9878
40.4,515.115,3.9897
40.8,517.115,3.984
41.2,519.115,3.98531
41.6,521.115,3.98119
42,523.115,3.9803
42.4,525.115,3.97928
42.8,527.115,3.97854
43.2,529.115,3.9759
43.6,531.115,3.97521
44,533.115,3.9716
44.4,535.115,3.9702
44.8,537.115,3.96727
45.2,539.115,3.96382
45.6,541.115,3.9596
46,543.115,3.95779
46.4,545.115,3.9508
46.8,547.115,3.94712
47.2,549.115,3.9431
47.6,551.115,3.93529
48,553.115,3.93047
48.4,555.115,3.9228
48.8,557.115,3.91513
49.2,559.115,3.90779
49.6,561.115,3.89757
50,563.115,3.88714
50.4,565.115,3.88109
50.8,567.115,3.8713
51.2,569.115,3.86205
51.6,571.115,3.8498
52,573.115,3.8366
52.4,575.115,3.82446
52.8,577.115,3.80873
53.2,579.115,3.79288
53.6,581.115,3.77602
54,583.115,3.75798
54.4,585.115,3.73196
54.8,587.115,3.70497
55.2,589.115,3.67489
55.6,591.115,3.64084
56,593.115,3.59921
56.4,595.115,3.55364
56.8,597.115,3.49932
57.2,599.115,3.44137
57.6,601.115,3.3723
58,603.115,3.29826
58.4,605.115,3.21761
58.8,607.115,3.12137
59.2,609.115,3.01181
59.6,611.115,2.89825
60,613.115,2.77571
60.4,615.115,2.63763
60.8,617.115,2.50037
61.2,619.115,2.35029
61.6,621.115,2.19425
62,623.115,2.04072
62.4,625.115,1.88455
62.8,627.115,1.72673
63.2,629.115,1.57507
63.6,631.115,1.4269
64,633.115,1.28177
64.4,635.115,1.14738
64.8,637.115,1.01612
65.2,639.115,0.882354
65.6,641.115,0.769353
66,643.115,0.657141
66.4,645.115,0.544912
66.8,647.115,0.459505
67.2,649.115,0.381825
67.6,651.115,0.31185
68,653.115,0.250834
68.4,655.115,0.196868
68.8,657.115,0.153334
69.2,659.115,0.113574
69.6,661.115,0.0859842
70,663.115,0.0588543
70.4,665.115,0.0388513
70.8,667.115,0.0216533
71.2,669.115,0.0107816
71.6,671.115,0
72,673.115,0
72.4,675.115,0
72.8,677.115,0
73.2,679.115,0
73.6,681.115,0
74,683.115,0
74.4,685.115,0
74.8,687.115,0
75.2,689.115,0
75.6,691.115,0
76,693.115,0
76.4,695.115,0
76.8,697.115,0
77.2,699.115,0
77.6,701.115,0
78,703.115,0
78.4,705.115,0
78.8,707.115,0
79.2,709.115,0
79.6,711.115,0
80,713.115,0
80.4,715.115,0
80.8,717.115,0
81.2,719.115,0
81.6,721.115,0
82,723.115,0
82.4,725.115,0
82.8,727.115,0
83.2,729.115,0
83.6,731.115,0
84,733.115,0
84.4,735.115,0
84.8,737.115,0
85.2,739.115,0
85.6,741.115,0
86,743.115,0
86.4,745.115,0
86.8,747.115,0
87.2,749.115,0
87.6,751.115,0
88,753.115,0
88.4,755.115,0
88.8,757.115,0
89.2,759.115,0
89.6,761.115,0
90,763.115,0
90.4,765.115,0
90.8,767.115,0
91.2,769.115,0
91.6,771.115,0
92,773.115,0
92.1,773.615,0

File: UMET_TGA_N2_4.csv
Time,Temperature,Mass
[s],[K],[mg]
0,313.115,5.3388
0.2,315.115,5.3388
0.4,317.115,5.3388
0.6,319.115,5.32792
0.8,321.115,5.32772
1,323.115,5.32739
1.2,325.115,5.32704
1.4,327.115,5.3272
1.6,329.115,5.3268
1.8,331.115,5.3267
2,333.115,5.3261
2.2,335.115,5.32547
2.4,337.115,5.32563
2.6,339.115,5.3247
2.8,341.115,5.3246
3,343.115,5.3238
3.2,345.115,5.32351
3.4,347.115,5.32329
3.6,349.115,5.32307
3.8,351.115,5.32264
4,353.115,5.32241
4.2,355.115,5.3224
4.4,357.115,5.3224
4.6,359.115,5.3222
4.8,361.115,5.32232
5,363.115,5.32228
5.2,365.115,5.3222
5.4,367.115,5.32198
5.6,369.115,5.32206
5.8,371.115,5.3216
6,373.115,5.3213
6.2,375.115,5.3211
6.4,377.115,5.3209
6.6,379.115,5.32079
6.8,381.115,5.32079
7,383.115,5.3205
7.2,385.115,5.3199
7.4,387.115,5.3194
7.6,389.115,5.319
7.8,391.115,5.3185
8,393.115,5.31731
8.2,395.115,5.31671
8.4,397.115,5.3164
8.6,399.115,5.316
8.8,401.115,5.31571
9,403.115,5.31521
9.2,405.115,5.3145
9.4,407.115,5.31361
9.6,409.115,5.31288
9.8,411.115,5.31192
10,413.115,5.31121
10.2,415.115,5.3104
10.4,417.115,5.3084
10.6,419.115,5.30701
10.8,421.115,5.3062
11,423.115,5.3047
11.2,425.115,5.30341
11.4,427.115,5.3022
11.6,429.115,5.30142
11.8,431.115,5.3002
12,433.115,5.29876
12.2,435.115,5.29718
12.4,437.115,5.29501
12.6,439.115,5.2929
12.8,441.115,5.29141
13,443.115,5.28884
13.2,445.115,5.28583
13.4,447.115,5.28253
13.6,449.115,5.27897
13.8,451.115,5.27475
14,453.115,5.2696
14.2,455.115,5.26428
14.4,457.115,5.25826
14.6,459.115,5.25306
14.8,461.115,5.24446
15,463.115,5.23767
15.2,465.115,5.23158
15.4,467.115,5.22549
15.6,469.115,5.21929
15.8,471.115,5.21339
16,473.115,5.20798
16.2,475.115,5.20267
16.4,477.115,5.19775
16.6,479.115,5.19328
16.8,481.115,5.18899
17,483.115,5.18418
17.2,485.115,5.17999
17.4,487.115,5.17589
17.6,489.115,5.1725
17.8,491.115,5.16921
18,493.115,5.16602
18.2,495.115,5.1636
18.4,497.115,5.16118
18.6,499.115,5.15899
18.8,501.115,5.1573
19,503.115,5.155393
19.2,505.115,5.15419
19.4,507.115,5.15299
19.6,509.115,5.1515
19.8,511.115,5.1502
20,513.115,5.1489
20.2,515.115,5.1475
20.4,517.115,5.1464
20.6,519.115,5.1453
20.8,521.115,5.14378
21,523.115,5.1429
21.2,525.115,5.14178
21.4,527.115,5.14028
21.6,529.115,5.1384
21.8,531.115,5.13648
22,533.115,5.1347
22.2,535.115,5.1322
22.4,537.115,5.12969
22.6,539.115,5.1277
22.8,541.115,5.125
23,543.115,5.12249
23.2,545.115,5.1195
23.4,547.115,5.11588
23.6,549.115,5.11189
23.8,551.115,5.10728
24,553.115,5.10266
24.2,555.115,5.09735
24.4,557.115,5.09144
24.6,559.115,5.08456
24.8,561.115,5.07577
25,563.115,5.06767
25.2,565.115,5.05874
25.4,567.115,5.05006
25.6,569.115,5.04066
25.8,571.115,5.03058
26,573.115,5.01966
26.2,575.115,5.0082
26.4,577.115,4.99636
26.6,579.115,4.98348
26.8,581.115,4.96939
27,583.115,4.95455
27.2,585.115,4.93857
27.4,587.115,4.91922
27.6,589.115,4.89808
27.8,591.115,4.87361
28,593.115,4.84679
28.2,595.115,4.81496
28.4,597.115,4.77941
28.6,599.115,4.73762
28.8,601.115,4.68911
29,603.115,4.62835
29.2,605.115,4.55473
29.4,607.115,4.48124
29.6,609.115,4.39918
29.8,611.115,4.30744
30,613.115,4.20236
30.2,615.115,4.08914
30.4,617.115,3.96385
30.6,619.115,3.82708
30.8,621.115,3.67882
31,623.115,3.51991
31.2,625.115,3.34911
31.4,627.115,3.16642
31.6,629.115,2.978
31.8,631.115,2.78099
32,633.115,2.58022
32.2,635.115,2.38107
32.4,637.115,2.18335
32.6,639.115,1.98636
32.8,641.115,1.79708
33,643.115,1.61483
33.2,645.115,1.44205
33.4,647.115,1.27119
33.6,649.115,1.10768
33.8,651.115,0.956285
34,653.115,0.815484
34.2,655.115,0.687387
34.4,657.115,0.575135
34.6,659.115,0.477483
34.8,661.115,0.393192
35,663.115,0.325187
35.2,665.115,0.271436
35.4,667.115,0.218543
35.6,669.115,0.176826
35.8,671.115,0.139776
36,673.115,0.109007
36.2,675.115,0.084943
36.4,677.115,0.0652449
36.6,679.115,0.049842
36.8,681.115,0.0370614
37,683.115,0.0263705
37.2,685.115,0.01962009
37.4,687.115,0.0141526
37.6,689.115,0.008742285
37.8,691.115,0.004900166
38,693.115,0
38.2,695.115,0
38.4,697.115,0
38.6,699.115,0
38.8,701.115,0
39,703.115,0
39.2,705.115,0
39.4,707.115,0
39.6,709.115,0
39.8,711.115,0
40,713.115,0
40.2,715.115,0
40.4,717.115,0
40.6,719.115,0
40.8,721.115,0
41,723.115,0
41.2,725.115,0
41.4,727.115,0
41.6,729.115,0
41.8,731.115,0
42,733.115,0
42.2,735.115,0
42.4,737.115,0
42.6,739.115,0
42.8,741.115,0
43,743.115,0
43.2,745.115,0
43.4,747.115,0
43.6,749.115,0
43.8,751.115,0
44,753.115,0
44.2,755.115,0
44.4,757.115,0
44.6,759.115,0
44.8,761.115,0
45,763.115,0
45.2,765.115,0
45.4,767.115,0
45.6,769.115,0
45.8,771.115,0
46,773.115,0
46.05,773.615,0