Folder: matl-db/Non-charring/PMMA/UMET (part 4)

File: UMET_TGA_N2_5.csv
Time,Temperature,Mass
[s],[K],[mg]
0,313.115,3.9289
0.1,315.115,3.9289
0.2,317.115,3.9289
0.3,319.115,3.9289
0.4,321.115,3.9289
0.5,323.115,3.9289
0.6,325.115,3.9289
0.7,327.115,3.9289
0.8,329.115,3.9289
0.9,331.115,3.9289
1,333.115,3.9289
1.1,335.115,3.9289
1.2,337.115,3.9289
1.3,339.115,3.9289
1.4,341.115,3.9289
1.5,343.115,3.9289
1.6,345.115,3.9289
1.7,347.115,3.9289
1.8,349.115,3.9289
1.9,351.115,3.9289
2,353.115,3.9289
2.1,355.115,3.9289
2.2,357.115,3.9289
2.3,359.115,3.9289
2.4,361.115,3.9289
2.5,363.115,3.9289
2.6,365.115,3.9289
2.7,367.115,3.9289
2.8,369.115,3.9289
2.9,371.115,3.9289
3,373.115,3.9289
3.1,375.115,3.9289
3.2,377.115,3.9289
3.3,379.115,3.9289
3.4,381.115,3.9289
3.5,383.115,3.9289
3.6,385.115,3.9289
3.7,387.115,3.9289
3.8,389.115,3.9289
3.9,391.115,3.9289
4,393.115,3.9289
4.1,395.115,3.9289
4.2,397.115,3.9289
4.3,399.115,3.9289
4.4,401.115,3.9289
4.5,403.115,3.9289
4.6,405.115,3.9289
4.7,407.115,3.9289
4.8,409.115,3.9289
4.9,411.115,3.9289
5,413.115,3.9289
5.1,415.115,3.9289
5.2,417.115,3.9289
5.3,419.115,3.9289
5.4,421.115,3.9289
5.5,423.115,3.9289
5.6,425.115,3.9289
5.7,427.115,3.9289
5.8,429.115,3.9289
5.9,431.115,3.9289
6,433.115,3.9289
6.1,435.115,3.9289
6.2,437.115,3.92788
6.3,439.115,3.92719
6.4,441.115,3.92802
6.5,443.115,3.92454
6.6,445.115,3.92279
6.7,447.115,3.9233
6.8,449.115,3.9246
6.9,451.115,3.92269
7,453.115,3.91909
7.1,455.115,3.9137
7.2,457.115,3.90829
7.3,459.115,3.90833
7.4,461.115,3.90908
7.5,463.115,3.90109
7.6,465.115,3.89169
7.7,467.115,3.89021
7.8,469.115,3.8903
7.9,471.115,3.8858
8,473.115,3.882
8.1,475.115,3.8803
8.2,477.115,3.87475
8.3,479.115,3.86773
8.4,481.115,3.8644
8.5,483.115,3.8621
8.6,485.115,3.8617
8.7,487.115,3.85559
8.8,489.115,3.8538
8.9,491.115,3.8512
9,493.115,3.85
9.1,495.115,3.8477
9.2,497.115,3.84118
9.3,499.115,3.83809
9.4,501.115,3.8374
9.5,503.115,3.8366
9.6,505.115,3.83261
9.7,507.115,3.83248
9.8,509.115,3.83103
9.9,511.115,3.82471
10,513.115,3.82509
10.1,515.115,3.8282
10.2,517.115,3.82257
10.3,519.115,3.8213
10.4,521.115,3.82415
10.5,523.115,3.8233
10.6,525.115,3.82253
10.7,527.115,3.81768
10.8,529.115,3.81683
10.9,531.115,3.81863
11,533.115,3.81762
11.1,535.115,3.8142
11.2,537.115,3.81521
11.3,539.115,3.8227
11.4,541.115,3.8138
11.5,543.115,3.80158
11.6,545.115,3.8052
11.7,547.115,3.80412
11.8,549.115,3.79811
11.9,551.115,3.80445
12,553.115,3.80609
12.1,555.115,3.79883
12.2,557.115,3.79987
12.3,559.115,3.79217
12.4,561.115,3.7891
12.5,563.115,3.78368
12.6,565.115,3.78092
12.7,567.115,3.7752
12.8,569.115,3.76897
12.9,571.115,3.76068
13,573.115,3.75233
13.1,575.115,3.75021
13.2,577.115,3.74756
13.3,579.115,3.73601
13.4,581.115,3.72721
13.5,583.115,3.71709
13.6,585.115,3.70945
13.7,587.115,3.69963
13.8,589.115,3.69375
13.9,591.115,3.68375
14,593.115,3.66879
14.1,595.115,3.65285
14.2,597.115,3.63896
14.3,599.115,3.62055
14.4,601.115,3.60068
14.5,603.115,3.56738
14.6,605.115,3.54184
14.7,607.115,3.49995
14.8,609.115,3.46341
14.9,611.115,3.41947
15,613.115,3.3748
15.1,615.115,3.32838
15.2,617.115,3.26657
15.3,619.115,3.19807
15.4,621.115,3.12278
15.5,623.115,3.03937
15.6,625.115,2.95171
15.7,627.115,2.8532
15.8,629.115,2.74867
15.9,631.115,2.63146
16,633.115,2.5101
16.1,635.115,2.38492
16.2,637.115,2.25343
16.3,639.115,2.10547
16.4,641.115,1.96768
16.5,643.115,1.81708
16.6,645.115,1.67257
16.7,647.115,1.53402
16.8,649.115,1.39293
16.9,651.115,1.25908
17,653.115,1.12799
17.1,655.115,1.00387
17.2,657.115,0.884146
17.3,659.115,0.771094
17.4,661.115,0.662255
17.5,663.115,0.570937
17.6,665.115,0.486144
17.7,667.115,0.409202
17.8,669.115,0.344309
17.9,671.115,0.290049
18,673.115,0.242598
18.1,675.115,0.200121
18.2,677.115,0.179123
18.3,679.115,0.137723
18.4,681.115,0.130568
18.5,683.115,0.113828
18.6,685.115,0.0938378
18.7,687.115,0.07933392
18.8,689.115,0.0638324
18.9,691.115,0.052406
19,693.115,0.0474918
19.1,695.115,0.0438053
19.2,697.115,0.0468345
19.3,699.115,0.0445506
19.4,701.115,0.0395998
19.5,703.115,0.0367847
19.6,705.115,0.03373275
19.7,707.115,0.02782722
19.8,709.115,0.0282307
19.9,711.115,0.0252601
20,713.115,0.0286975
20.1,715.115,0.0302058
20.2,717.115,0.0290082
20.3,719.115,0.0263936
20.4,721.115,0.0275919
20.5,723.115,0.0265987
20.6,725.115,0
20.7,727.115,0
20.8,729.115,0
20.9,731.115,0
21,733.115,0
21.1,735.115,0
21.2,737.115,0
21.3,739.115,0
21.4,741.115,0
21.5,743.115,0
21.6,745.115,0
21.7,747.115,0
21.8,749.115,0
21.9,751.115,0
22,753.115,0
22.1,755.115,0
22.2,757.115,0
22.3,759.115,0
22.4,761.115,0
22.5,763.115,0
22.6,765.115,0
22.7,767.115,0
22.8,769.115,0
22.9,771.115,0
23,773.115,0
23.025,773.615,0

File: UMET_TGA_N2_6.csv
Time,Temperature,Mass
[s],[K],[mg]
0,313.115,5.9802
0.04,315.115,5.9802
0.08,317.115,5.9802
0.12,319.115,5.9802
0.16,321.115,5.9802
0.2,323.115,5.9802
0.24,325.115,5.9802
0.28,327.115,5.9802
0.32,329.115,5.9802
0.36,331.115,5.9802
0.4,333.115,5.9802
0.44,335.115,5.9802
0.48,337.115,5.9802
0.52,339.115,5.9802
0.56,341.115,5.9802
0.6,343.115,5.9802
0.64,345.115,5.9802
0.68,347.115,5.9802
0.72,349.115,5.9802
0.76,351.115,5.9802
0.8,353.115,5.9802
0.84,355.115,5.9802
0.88,357.115,5.9802
0.92,359.115,5.9802
0.96,361.115,5.9802
1,363.115,5.9802
1.04,365.115,5.9802
1.08,367.115,5.9802
1.12,369.115,5.9802
1.16,371.115,5.9802
1.2,373.115,5.9802
1.24,375.115,5.9802
1.28,377.115,5.9802
1.32,379.115,5.9802
1.36,381.115,5.9802
1.4,383.115,5.9802
1.44,385.115,5.9802
1.48,387.115,5.9802
1.52,389.115,5.9802
1.56,391.115,5.9802
1.6,393.115,5.9802
1.64,395.115,5.9802
1.68,397.115,5.9802
1.72,399.115,5.9802
1.76,401.115,5.9802
1.8,403.115,5.9802
1.84,405.115,5.9802
1.88,407.115,5.9802
1.92,409.115,5.9802
1.96,411.115,5.9802
2,413.115,5.9802
2.04,415.115,5.9802
2.08,417.115,5.9802
2.12,419.115,5.9802
2.16,421.115,5.9802
2.2,423.115,5.9802
2.24,425.115,5.9802
2.28,427.115,5.9802
2.32,429.115,5.9802
2.36,431.115,5.9802
2.4,433.115,5.9802
2.44,435.115,5.9802
2.48,437.115,5.9783
2.52,439.115,5.97699
2.56,441.115,5.97616
2.6,443.115,5.97552
2.64,445.115,5.97646
2.68,447.115,5.97792
2.72,449.115,5.97762
2.76,451.115,5.97503
2.8,453.115,5.97217
2.84,455.115,5.96944
2.88,457.115,5.96662
2.92,459.115,5.96407
2.96,461.115,5.96216
3,463.115,5.95985
3.04,465.115,5.95621
3.08,467.115,5.9518
3.12,469.115,5.94697
3.16,471.115,5.9426
3.2,473.115,5.93927
3.24,475.115,5.93612
3.28,477.115,5.93163
3.32,479.115,5.92706
3.36,481.115,5.92362
3.4,483.115,5.91912
3.44,485.115,5.91374
3.48,487.115,5.90918
3.52,489.115,5.90576
3.56,491.115,5.90168
3.6,493.115,5.89675
3.64,495.115,5.89134
3.68,497.115,5.8866
3.72,499.115,5.88323
3.76,501.115,5.87811
3.8,503.115,5.87305
3.84,505.115,5.87075
3.88,507.115,5.86867
3.92,509.115,5.86647
3.96,511.115,5.86452
4,513.115,5.86182
4.04,515.115,5.85878
4.08,517.115,5.8553
4.12,519.115,5.85123
4.16,521.115,5.84761
4.2,523.115,5.84546
4.24,525.115,5.84407
4.28,527.115,5.84248
4.32,529.115,5.83994
4.36,531.115,5.83612
4.4,533.115,5.83306
4.44,535.115,5.8312
4.48,537.115,5.831
4.52,539.115,5.83125
4.56,541.115,5.83129
4.6,543.115,5.83113
4.64,545.115,5.82923
4.68,547.115,5.8258
4.72,549.115,5.82194
4.76,551.115,5.81906
4.8,553.115,5.81783
4.84,555.115,5.81641
4.88,557.115,5.81466
4.92,559.115,5.81268
4.96,561.115,5.80988
5,563.115,5.80532
5.04,565.115,5.80046
5.08,567.115,5.79568
5.12,569.115,5.79061
5.16,571.115,5.78592
5.2,573.115,5.78305
5.24,575.115,5.77887
5.28,577.115,5.77172
5.32,579.115,5.76395
5.36,581.115,5.75667
5.4,583.115,5.74951
5.44,585.115,5.74103
5.48,587.115,5.73181
5.52,589.115,5.72209
5.56,591.115,5.69265
5.6,593.115,5.68152
5.64,595.115,5.67266
5.68,597.115,5.65424
5.72,599.115,5.63983
5.76,601.115,5.62378
5.8,603.115,5.60723
5.84,605.115,5.58984
5.88,607.115,5.56726
5.92,609.115,5.53967
5.96,611.115,5.50612
6,613.115,5.46692
6.04,615.115,5.42464
6.08,617.115,5.37961
6.12,619.115,5.32931
6.16,621.115,5.27031
6.2,623.115,5.20107
6.24,625.115,5.12552
6.28,627.115,5.04582
6.32,629.115,4.96042
6.36,631.115,4.86431
6.4,633.115,4.75021
6.44,635.115,4.62299
6.48,637.115,4.49028
6.52,639.115,4.24085
6.56,641.115,4.09689
6.6,643.115,3.92915
6.64,645.115,3.74723
6.68,647.115,3.54376
6.72,649.115,3.34012
6.76,651.115,3.12904
6.8,653.115,2.91005
6.84,655.115,2.69681
6.88,657.115,2.48991
6.92,659.115,2.27728
6.96,661.115,2.07139
7,663.115,1.87533
7.04,665.115,1.68858
7.08,667.115,1.50792
7.12,669.115,1.33334
7.16,671.115,1.16731
7.2,673.115,1.00946
7.24,675.115,0.86587
7.28,677.115,0.729504
7.32,679.115,0.606101
7.36,681.115,0.505338
7.4,683.115,0.422361
7.44,685.115,0.349832
7.48,687.115,0.28789
7.52,689.115,0.237035
7.56,691.115,0.197471
7.6,693.115,0.16083
7.64,695.115,0.132715
7.68,697.115,0.10988
7.72,699.115,0.0885315
7.76,701.115,0.0752166
7.8,703.115,0.066757
7.84,705.115,0.0610919
7.88,707.115,0.0563155
7.92,709.115,0.0533482
7.96,711.115,0.0473052
8,713.115,0.0399304
8.04,715.115,0.0382093
8.08,717.115,0.0387427
8.12,719.115,0.0387236
8.16,721.115,0.0372859
8.2,723.115,0.0354046
8.24,725.115,0
8.28,727.115,0
8.32,729.115,0
8.36,731.115,0
8.4,733.115,0
8.44,735.115,0
8.48,737.115,0
8.52,739.115,0
8.56,741.115,0
8.6,743.115,0
8.64,745.115,0
8.68,747.115,0
8.72,749.115,0
8.76,751.115,0
8.8,753.115,0
8.84,755.115,0
8.88,757.115,0
8.92,759.115,0
8.96,761.115,0
9,763.115,0
9.04,765.115,0
9.08,767.115,0
9.12,769.115,0
9.16,771.115,0
9.2,773.115,0
9.21,773.615,0

File: UMET_TGA_N2_7.csv
Time,Temperature,Mass
[s],[K],[mg]
0,313.115,5.3644
0.02,315.115,5.3535
0.04,317.115,5.354
0.06,319.115,5.3545
0.08,321.115,5.35452
0.1,323.115,5.3546
0.12,325.115,5.35472
0.14,327.115,5.3546
0.16,329.115,5.35456
0.18,331.115,5.3546
0.2,333.115,5.35458
0.22,335.115,5.3548
0.24,337.115,5.35466
0.26,339.115,5.35462
0.28,341.115,5.35484
0.3,343.115,5.355
0.32,345.115,5.35494
0.34,347.115,5.35473
0.36,349.115,5.35496
0.38,351.115,5.35495
0.4,353.115,5.35473
0.42,355.115,5.35466
0.44,357.115,5.35473
0.46,359.115,5.35473
0.48,361.115,5.3544
0.5,363.115,5.35442
0.52,365.115,5.35444
0.54,367.115,5.35423
0.56,369.115,5.35438
0.58,371.115,5.3544
0.6,373.115,5.35445
0.62,375.115,5.35422
0.64,377.115,5.3544
0.66,379.115,5.35428
0.68,381.115,5.3544
0.7,383.115,5.3544
0.72,385.115,5.3543
0.74,387.115,5.3543
0.76,389.115,5.3542
0.78,391.115,5.354
0.8,393.115,5.3541
0.82,395.115,5.3541
0.84,397.115,5.35411
0.86,399.115,5.35397
0.88,401.115,5.354
0.9,403.115,5.3539
0.92,405.115,5.35392
0.94,407.115,5.35379
0.96,409.115,5.35358
0.98,411.115,5.35368
1,413.115,5.3536
1.02,415.115,5.35378
1.04,417.115,5.3534
1.06,419.115,5.35339
1.08,421.115,5.35327
1.1,423.115,5.3532
1.12,425.115,5.3526
1.14,427.115,5.35251
1.16,429.115,5.35198
1.18,431.115,5.35181
1.2,433.115,5.3513
1.22,435.115,5.3504
1.24,437.115,5.34959
1.26,439.115,5.34875
1.28,441.115,5.348
1.3,443.115,5.34717
1.32,445.115,5.34601
1.34,447.115,5.345
1.36,449.115,5.34404
1.38,451.115,5.34301
1.4,453.115,5.34192
1.42,455.115,5.3405
1.44,457.115,5.339
1.46,459.115,5.33763
1.48,461.115,5.33581
1.5,463.115,5.33366
1.52,465.115,5.33175
1.54,467.115,5.32919
1.56,469.115,5.32649
1.58,471.115,5.32393
1.6,473.115,5.32133
1.62,475.115,5.31813
1.64,477.115,5.31477
1.66,479.115,5.31148
1.68,481.115,5.30802
1.7,483.115,5.30447
1.72,485.115,5.30114
1.74,487.115,5.29765
1.76,489.115,5.29401
1.78,491.115,5.29063
1.8,493.115,5.28635
1.82,495.115,5.28339
1.84,497.115,5.27976
1.86,499.115,5.27628
1.88,501.115,5.27282
1.9,503.115,5.26941
1.92,505.115,5.26589
1.94,507.115,5.26269
1.96,509.115,5.25932
1.98,511.115,5.25645
2,513.115,5.25305
2.02,515.115,5.25011
2.04,517.115,5.24724
2.06,519.115,5.24459
2.08,521.115,5.24206
2.1,523.115,5.23962
2.12,525.115,5.2375
2.14,527.115,5.23538
2.16,529.115,5.23349
2.18,531.115,5.23172
2.2,533.115,5.22971
2.22,535.115,5.22791
2.24,537.115,5.2262
2.26,539.115,5.22452
2.28,541.115,5.22281
2.3,543.115,5.2208
2.32,545.115,5.21929
2.34,547.115,5.21757
2.36,549.115,5.2159
2.38,551.115,5.21414
2.4,553.115,5.21234
2.42,555.115,5.21047
2.44,557.115,5.20855
2.46,559.115,5.20663
2.48,561.115,5.2045
2.5,563.115,5.20219
2.52,565.115,5.19963
2.54,567.115,5.19687
2.56,569.115,5.19387
2.58,571.115,5.1904
2.6,573.115,5.18674
2.62,575.115,5.18303
2.64,577.115,5.17868
2.66,579.115,5.17378
2.68,581.115,5.16644
2.7,583.115,5.14665
2.72,585.115,5.13892
2.74,587.115,5.13089
2.76,589.115,5.12246
2.78,591.115,5.11422
2.8,593.115,5.10536
2.82,595.115,5.09591
2.84,597.115,5.08558
2.86,599.115,5.0741
2.88,601.115,5.06137
2.9,603.115,5.04738
2.92,605.115,5.03171
2.94,607.115,5.01372
2.96,609.115,4.99376
2.98,611.115,4.97117
3,613.115,4.94542
3.02,615.115,4.91589
3.04,617.115,4.88304
3.06,619.115,4.84665
3.08,621.115,4.80636
3.1,623.115,4.76151
3.12,625.115,4.71269
3.14,627.115,4.65883
3.16,629.115,4.59905
3.18,631.115,4.53292
3.2,633.115,4.45101
3.22,635.115,4.25872
3.24,637.115,4.16633
3.26,639.115,4.06389
3.28,641.115,3.95306
3.3,643.115,3.83723
3.32,645.115,3.72063
3.34,647.115,3.60065
3.36,649.115,3.4753
3.38,651.115,3.33977
3.4,653.115,3.19462
3.42,655.115,3.04508
3.44,657.115,2.89586
3.46,659.115,2.74733
3.48,661.115,2.59423
3.5,663.115,2.43335
3.52,665.115,2.26764
3.54,667.115,2.10576
3.56,669.115,1.95128
3.58,671.115,1.8027
3.6,673.115,1.66139
3.62,675.115,1.52338
3.64,677.115,1.39459
3.66,679.115,1.27428
3.68,681.115,1.1581
3.7,683.115,1.04162
3.72,685.115,0.922431
3.74,687.115,0.799366
3.76,689.115,0.662335
3.78,691.115,0.525232
3.8,693.115,0.407616
3.82,695.115,0.31618
3.84,697.115,0.237288
3.86,699.115,0.174068
3.88,701.115,0.127295
3.9,703.115,0.0946956
3.92,705.115,0.0693241
3.94,707.115,0.050494
3.96,709.115,0.0366775
3.98,711.115,0.0275296
4,713.115,0.0219779
4.02,715.115,0.0157595
4.04,717.115,0.0127512
4.06,719.115,0.00998744
4.08,721.115,0.008248301
4.1,723.115,0.006459274
4.12,725.115,0
4.14,727.115,0
4.16,729.115,0
4.18,731.115,0
4.2,733.115,0
4.22,735.115,0
4.24,737.115,0
4.26,739.115,0
4.28,741.115,0
4.3,743.115,0
4.32,745.115,0
4.34,747.115,0
4.36,749.115,0
4.38,751.115,0
4.4,753.115,0
4.42,755.115,0
4.44,757.115,0
4.46,759.115,0
4.48,761.115,0
4.5,763.115,0
4.52,765.115,0
4.54,767.115,0
4.56,769.115,0
4.58,771.115,0
4.6,773.115,0
4.605,773.615,0