Folder: matl-db/Non-charring/PMMA/UMET (part 2)

File: UMET_DSC_N2_2K_1.csv
Time,Temp,Heat Flow
[s],[k],[mW/mg]
0,273.15,0
30,300.012,-0.5715
60,285.75,-0.470947
90,273.008,-0.410948
120,261.691,-0.36538
150,251.659,-0.325017
180,242.777,-0.28729
210,234.919,-0.252732
240,227.966,-0.223867
270,221.815,-0.197507
300,216.373,-0.174209
330,211.56,-0.152984
360,207.303,-0.134475
390,203.536,-0.117796
420,200.205,-0.102961
450,197.258,-0.0898267
480,194.586,-0.079857
510,193.282,-0.0184453
540,193.219,-0.00617771
570,193.198,-0.00104991
600,193.19,0.00134466
630,193.188,0.00271199
660,193.187,0.00357502
690,193.187,0.0040723
720,193.187,0.00425627
750,193.188,0.00459559
780,193.187,0.00459249
810,193.187,0.00462377
840,193.186,0.00474737
870,193.187,0.00482046
900,193.187,0.00499802
930,193.186,0.0049671
960,193.187,0.00503359
990,193.186,0.00520048
1020,193.187,0.00522923
1050,193.187,0.00538066
1080,193.186,0.00534409
1110,193.261,-0.00296571
1140,197.814,0.129319
1170,202.771,0.13756
1200,207.753,0.142499
1230,212.748,0.146696
1260,217.747,0.150817
1290,222.748,0.15406
1320,227.75,0.157255
1350,232.752,0.160397
1380,237.755,0.163531
1410,242.758,0.16686
1440,247.761,0.171272
1470,252.762,0.175453
1500,257.765,0.178703
1530,262.764,0.18418
1560,267.765,0.189807
1590,272.766,0.196396
1620,277.767,0.203979
1650,282.77,0.212633
1680,287.77,0.220812
1710,292.768,0.229366
1740,297.77,0.237359
1770,302.77,0.243547
1800,307.772,0.248003
1830,312.776,0.248486
1860,317.78,0.248456
1890,322.785,0.248599
1920,327.788,0.248475
1950,332.791,0.248533
1980,337.795,0.248663
2010,342.796,0.248835
2040,347.8,0.24969
2070,352.804,0.250713
2100,357.805,0.252211
2130,362.808,0.254242
2160,367.811,0.256746
2190,372.813,0.260031
2220,377.817,0.263927
2250,382.82,0.269605
2280,387.82,0.277348
2310,392.82,0.289419
2340,397.818,0.307313
2370,402.817,0.326151
2400,407.82,0.327744
2430,412.823,0.328319
2460,417.825,0.330431
2490,422.825,0.332842
2520,427.829,0.33566
2550,432.766,0.340962
2580,433.163,0.0682717
2610,433.189,0.0630539
2640,433.197,0.0595904
2670,433.2,0.0572735
2700,433.198,0.0557966
2730,433.196,0.0550965
2760,433.196,0.054257
2790,433.196,0.0537871
2820,433.196,0.0529125
2850,433.196,0.0525567
2880,433.196,0.0520409
2910,433.195,0.0518406
2940,433.197,0.0515604
2970,433.196,0.0509679
3000,433.196,0.0505331
3030,433.196,0.0503013
3060,433.195,0.050248
3090,433.196,0.05012
3120,433.195,0.0497016
3150,433.147,0.0533324
3180,428.63,-0.219752
3210,423.664,-0.224041
3240,418.678,-0.226273
3270,413.684,-0.227119
3300,408.686,-0.227598
3330,403.687,-0.22627
3360,398.688,-0.22203
3390,393.69,-0.212962
3420,388.691,-0.20209
3450,383.691,-0.192724
3480,378.693,-1.86E-01
3510,373.693,-0.180168
3540,368.696,-0.175957
3570,363.699,-0.173023
3600,358.7,-0.170423
3630,353.703,-0.167986
3660,348.707,-0.166049
3690,343.71,-0.164383
3720,338.711,-0.164223
3750,333.714,-0.162183
3780,328.716,-0.161203
3810,323.719,-0.160791
3840,318.72,-0.160238
3870,313.723,-0.159932
3900,308.726,-0.159874
3930,303.73,-0.159186
3960,298.735,-0.157686
3990,293.736,-0.156421
4020,288.736,-0.155269
4050,283.737,-0.154164
4080,278.74,-0.152999
4110,273.741,-0.151785
4140,268.743,-0.150927
4170,263.744,-0.150281
4200,258.745,-0.149899
4230,253.746,-0.150035
4260,248.746,-0.150129
4290,243.746,-0.150255
4320,238.746,-0.150167
4350,233.745,-0.150283
4380,228.743,-0.150745
4410,223.74,-0.15083
4440,218.739,-0.151171
4470,213.775,-0.151032
4500,209.276,-0.138002
4530,205.307,-0.121289
4560,201.798,-0.108013
4590,198.69,-0.0951077
4620,195.938,-0.0833713
4650,193.424,-0.0741
4680,193.152,-0.00841675
4710,193.188,-0.00246822
4740,193.195,-0.000223214
4770,193.197,0.00118538
4800,193.197,0.00208972
4830,193.196,0.00258715
4860,193.195,0.00286191
4890,193.196,0.00337806
4920,193.195,0.00334622
4950,193.195,0.00338708
4980,193.195,0.00380625
5010,193.194,0.00390023
5040,193.194,0.004037
5070,193.195,0.00410922
5100,193.194,0.00418684
5130,193.194,0.00430086
5160,193.194,0.00437758
5190,193.193,0.00444075
5220,193.193,0.00439456
5250,193.507,-0.0106766
5280,198.265,0.127436
5310,203.224,0.135766
5340,208.205,0.14039
5370,213.198,0.144545
5400,218.197,0.148112
5430,223.196,0.151156
5460,228.198,0.153824
5490,233.2,0.156604
5520,238.201,0.158758
5550,243.203,0.162201
5580,248.205,0.165507
5610,253.207,0.16889
5640,258.209,0.171515
5670,263.211,0.174336
5700,268.212,0.177576
5730,273.214,0.180803
5760,278.217,0.184607
5790,283.22,0.188525
5820,288.223,0.192437
5850,293.225,0.196039
5880,298.227,0.199935
5910,303.231,0.203581
5940,308.233,0.207194
5970,313.237,0.210777
6000,318.24,0.214186
6030,323.243,0.217502
6060,328.246,0.22078
6090,333.248,0.224127
6120,338.25,0.227598
6150,343.252,0.2311
6180,348.254,0.234835
6210,353.257,0.238991
6240,358.261,0.243101
6270,363.263,0.247513
6300,368.265,0.251836
6330,373.266,0.256276
6360,378.266,0.261351
6390,383.271,0.268341
6420,388.273,0.276779
6450,393.274,0.288544
6480,398.27,0.30569
6510,403.27,0.323171
6540,408.273,0.326983
6570,413.273,0.328614
6600,418.275,0.331
6630,423.277,0.333668
6660,428.28,0.336112
6690,432.998,0.307223
6720,433.167,0.067578
6750,433.189,0.0627576
6780,433.196,0.0598513
6810,433.198,0.0583882
6840,433.197,0.0571875
6870,433.197,0.0564898
6900,433.198,0.0558722
6930,433.197,0.0550432
6960,433.197,0.0544594
6990,433.196,0.0539006
7020,433.196,0.0535711
7050,433.196,0.0531202
7080,433.196,0.0527708
7110,433.197,0.0523907
7140,433.196,0.0520919
7170,433.195,0.0520279
7200,433.196,0.0520208
7230,433.195,0.0517253
7260,433.195,0.0515579
7290,432.949,0.0126713
7320,428.183,-0.218204
7350,423.215,-0.2223
7380,418.227,-0.224194
7410,413.232,-0.22458
7440,408.237,-0.224356
7470,403.239,-0.223357
7500,398.24,-0.218641
7530,393.239,-0.208734
7560,388.242,-0.197797
7590,383.244,-0.189096
7620,378.246,-0.182696
7650,373.246,-0.177863
7680,368.248,-0.173761
7710,363.25,-0.170836
7740,358.252,-0.168386
7770,353.255,-0.166526
7800,348.259,-0.164721
7830,343.261,-0.163628
7860,338.263,-0.163556
7890,333.265,-0.162472
7920,328.267,-0.161578
7950,323.27,-0.161195
7980,318.272,-0.160966
8010,313.275,-0.160447
8040,308.28,-0.159766
8070,303.284,-0.158453
8100,298.288,-0.156966
8130,293.288,-0.155641
8160,288.29,-0.154493
8190,283.292,-0.153127
8220,278.29,-0.152183
8250,273.293,-0.150758
8280,268.294,-0.150067
8310,263.296,-0.149266
8340,258.297,-0.148933
8370,253.296,-0.148802
8400,248.297,-0.148938
8430,243.298,-0.148881
8460,238.297,-0.148712
8490,233.295,-0.148756
8520,228.294,-0.148894
8550,223.292,-0.149155
8580,218.29,-0.149585
8610,213.346,-0.148538
8640,208.9,-0.134702
8670,204.975,-0.119192
8700,201.502,-0.105095
8730,198.428,-0.0921609
8760,195.707,-0.0805571
8772,194.703,-0.0762253
,,
,,
,,
,,
,,
,,
,,
,,
,,
,,
,,
,,
,,
,,
,,
,,
,,
,,
,,
,,
,,
,,
,,
,,
,,
,,
,,
,,
,,
,,
,,
,,
,,
,,
,,
,,
,,
,,
,,
,,
,,
,,
,,
,,
,,
,,
,,
,,
,,
,,
,,
,,
,,
,,
,,
,,
,,
,,
,,
,,
,,
,,
,,
,,
,,
,,
,,
,,
,,
,,
,,
,,
,,
,,
,,
,,
,,
,,
,,
,,
,,
,,
,,
,,
,,
,,
,,
,,
,,
,,
,,
,,
,,
,,
,,
,,
,,
,,
,,
,,
,,
,,
,,
,,
,,
,,
,,
,,
,,
,,
,,
,,
,,
,,
,,
,,
,,
,,
,,
,,
,,
,,
,,
,,
,,
,,
,,
,,
,,
,,
,,
,,
,,
,,
,,
,,
,,
,,
,,
,,
,,
,,
,,
,,
,,
,,
,,
,,
,,
,,
,,
,,
,,
,,
,,
,,
,,
,,
,,
,,
,,
,,
,,
,,
,,
,,
,,
,,
,,
,,
,,
,,
,,
,,
,,
,,
,,
,,
,,
,,
,,
,,
,,
,,
,,
,,
,,
,,
,,
,,
,,
,,
,,
,,
,,
,,
,,
,,
,,
,,
,,
,,
,,
,,
,,
,,
,,
,,
,,
,,
,,
,,
,,
,,
,,
,,
,,
,,
,,
,,
,,
,,
,,
,,
,,
,,
,,
,,
,,
,,
,,
,,
,,
,,
,,
[...]
,,
,,
,,
,,
,,
,,
,,
,,
,,
,,
,,
,,
,,
,,
,,
,,
,,
,,
,,
,,
,,
,,
,,
,,
,,
,,
,,
,,
,,
,,
,,
,,
,,
,,
,,
,,
,,
,,
,,
,,
,,
,,
,,
,,
,,
,,
,,
,,
,,
,,
,,
,,
,,
,,
,,
,,
,,
,,
,,
,,
,,
,,
,,
,,
,,
,,
,,
,,
,,
,,
,,
,,
,,
,,
,,
,,
,,
,,
,,
,,
,,
,,
,,
,,
,,
,,
,,
,,
,,
,,
,,
,,
,,
,,
,,
,,
,,
,,
,,
,,
,,
,,
,,
,,
,,
,,
,,
,,
,,
,,
,,
,,
,,
,,
,,
,,
,,
,,
,,
,,
,,
,,
,,
,,
,,
,,
,,
,,
,,
,,
,,
,,
,,
,,
,,
,,
,,
,,
,,
,,
,,
,,
,,
,,
,,
,,
,,
,,
,,
,,
,,
,,
,,
,,
,,
,,
,,
,,
,,
,,
,,
,,
,,
,,
,,
,,
,,
,,
,,
,,
,,
,,
,,
,,
,,
,,
,,
,,
,,
,,
,,
,,
,,
,,
,,
,,
,,
,,
,,
,,
,,
,,
,,
,,
,,
,,
,,
,,
,,
,,
,,
,,
,,
,,
,,
,,
,,
,,
,,
,,
,,
,,
,,
,,
,,
,,
,,
,,
,,
,,
,,
,,
,,
,,
,,
,,
,,
,,
,,
,,
,,
,,
,,
,,
,,
,,
,,
,,
,,
,,
,,
,,
,,
,,
,,
,,
,,
,,
,,
,,
,,
,,
,,
,,
,,
,,
,,
,,
,,
,,
,,
,,
,,
,,
,,
,,
,,
,,
,,
,,
,,
,,
,,
,,
,,
,,
,,
,,
,,
,,
,,
,,
,,
,,
,,
,,
,,
,,
,,
,,
,,
,,
,,
,,
,,
,,
,,
,,
,,
,,
,,
,,
,,
,,
,,
,,
,,
,,
,,
,,
,,
,,
,,
,,
,,
,,
,,
,,
,,
,,
,,
,,
,,
,,
,,
,,
,,
,,
,,
,,
,,
,,
,,
,,
,,
,,
,,
,,
,,
,,
,,
,,
,,
,,
,,
,,
,,
,,
,,
,,
,,
,,
,,
,,
,,
,,
,,
,,
,,
,,
,,
,,
,,
,,
,,
,,
,,
,,
,,
,,
,,
,,
,,
,,
,,
,,
,,
,,
,,
,,
,,
,,
,,
,,
,,
,,
,,
,,
,,
,,
,,
,,
,,
,,
,,
,,
,,
,,
,,
,,
,,
,,
,,
,,
,,
,,
,,
,,
,,
,,
,,
,,
,,
,,
,,
,,
,,
,,
,,
,,
,,
,,
,,
,,
,,
,,
,,
,,
,,
,,
,,
,,
,,
,,
,,
,,
,,
,,
,,
,,
,,
,,
,,
,,
,,
,,
,,
,,
,,
,,
,,
,,
,,
,,
,,
,,
,,
,,
,,
,,
,,
,,
,,
,,
,,
,,
,,
,,
,,
,,
,,
,,
,,
,,
,,
,,
,,
,,
,,
,,
,,
,,
,,
,,
,,
,,
,,
,,
,,
,,
,,
,,
,,
,,
,,
,,
,,
,,
,,
,,
,,
,,
,,
,,
,,
,,
,,
,,
,,
,,
,,
,,
,,
,,
,,
,,
,,
,,
,,
,,
,,
,,
,,
,,
,,
,,
,,
,,
,,
,,
,,
,,
,,
,,
,,
,,
,,
,,
,,
,,
,,
,,
,,
,,
,,
,,
,,
,,
,,
,,
,,
,,
,,
,,
,,
,,
,,
,,
,,
,,
,,
,,
,,
,,
,,
,,
,,
,,
,,
,,
,,
,,
,,
,,
,,
,,
,,
,,
,,
,,
,,
,,
,,
,,
,,
,,
,,
,,
,,
,,
,,
,,
,,
,,
,,
,,
,,
,,
,,
,,
,,
,,
,,
,,
,,
,,
,,
,,
,,
,,
,,
,,
,,
,,
,,
,,
,,
,,
,,
,,
,,
,,
,,
,,
,,
,,
,,
,,
,,
,,
,,
,,
,,
,,
,,
,,
,,
,,
,,
,,
,,
,,
,,
,,
,,
,,
,,
,,
,,
,,
,,
,,
,,
,,
,,
,,
,,
,,
,,
,,
,,
,,
,,
,,
,,
,,
,,
,,
,,
,,
,,
,,
,,
,,
,,
,,
,,
,,
,,
,,
,,
,,
,,
,,
,,
,,
,,
,,
,,
,,
,,
,,
,,
,,
,,
,,
,,
,,
,,
,,
,,
,,
,,
,,
,,
,,
,,
,,
,,
,,
,,
,,
,,
,,
,,
,,
,,
,,
,,
,,
,,
,,
,,
,,
,,
,,
,,
,,
,,
,,
,,
,,
,,
,,
,,
,,
,,
,,
,,
,,
,,
,,
,,
,,
,,
,,
,,
,,
,,
,,
,,
,,
,,
,,
,,
,,
,,
,,
,,
,,
,,
,,
,,
,,
,,
,,
,,
,,
,,
,,
,,
,,
,,
,,
,,
,,
,,
,,
,,
,,
,,
,,
,,
,,
,,
,,
,,
,,
,,
,,
,,
,,
,,
,,
,,
,,
,,
,,
,,
,,
,,
,,
,,
,,
,,
,,
,,
,,
,,
,,
,,
,,
,,
,,
,,
,,
,,
,,
,,
,,
,,
,,
,,
,,
,,
,,
,,
,,
,,
,,
,,
,,
,,
,,
,,
,,
,,
,,
,,
,,
,,
,,
,,
,,
,,
,,
,,
,,
,,
,,
,,
,,
,,
,,
,,
,,
,,
,,
,,
,,
,,
,,
,,
,,
,,
,,
,,
,,
,,
,,
,,
,,
,,
,,
,,
,,
,,
,,
,,
,,
,,
,,
,,
,,
,,
,,
,,
,,
,,
,,
,,
,,
,,
,,
,,
,,
,,
,,
,,
,,
,,
,,
,,
,,
,,
,,
,,
,,
,,
,,
,,
,,
,,
,,
,,
,,
,,
,,
,,
,,
,,
,,
,,
,,
,,
,,
,,
,,
,,
,,
,,
,,
,,
,,
,,
,,
,,
,,
,,
,,
,,
,,
,,
,,
,,
,,
,,
,,
,,
,,
,,
,,
,,
,,
,,
,,
,,
,,
,,
,,
,,
,,
,,
,,
,,
,,
,,
,,
,,
,,
,,
,,
,,
,,
,,
,,
,,
,,
,,
,,
,,
,,
,,
,,
,,
,,
,,
,,
,,
,,
,,
,,
,,
,,
,,
,,
,,
,,
,,
,,
,,
,,
,,
,,
,,
,,
,,
,,
,,
,,
,,
,,
,,
,,
,,
,,
,,
,,
,,
,,
,,
,,
,,
,,
,,
,,
,,
,,
,,
,,
,,
,,
,,
,,
,,
,,
,,
,,
,,
,,
,,
,,
,,
,,
,,
,,
,,
,,
,,
,,
,,
,,
,,
,,
,,
,,
,,
,,
,,
,,
,,
,,
,,
,,
,,
,,
,,
,,
,,
,,
,,
,,
,,
,,
,,
,,
,,
,,
,,
,,
,,
,,
,,
,,
,,
,,
,,
,,
,,
,,
,,
,,
,,
,,
,,
,,
,,
,,
,,
,,
,,
,,
,,
,,
,,
,,
,,
,,
,,
,,
,,
,,
,,
,,
,,
,,
,,
,,
,,
,,
,,
,,
,,
,,
,,
,,
,,
,,
,,
,,
,,
,,
,,
,,
,,
,,
,,
,,
,,
,,
,,
,,
,,
,,
,,
,,
,,
,,
,,
,,
,,
,,
,,
,,
,,
,,
,,
,,
,,
,,
,,
,,
,,
,,
,,
,,
,,
,,
,,
,,
,,
,,
,,
,,
,,
,,
,,
,,
,,
,,
,,
,,
,,
,,
,,
,,
,,
,,
,,
,,
,,
,,
,,
,,
,,
,,
,,
,,
,,
,,
,,
,,
,,
,,
,,
,,
,,
,,
,,
,,
,,
,,
,,
,,
,,
,,
,,
,,
,,
,,
,,
,,

File: UMET_DSC_N2_10K_1.csv
Time,Temperature,Heat Flow
[s],[k],[mW/mg]
0,273.15,0
30,300.012,-0.5715
60,285.75,-0.470947
90,273.008,-0.410948
120,261.691,-0.36538
150,251.659,-0.325017
180,242.777,-0.28729
210,234.919,-0.252732
240,227.966,-0.223867
270,221.815,-0.197507
300,216.373,-0.174209
330,211.56,-0.152984
360,207.303,-0.134475
390,203.536,-0.117796
420,200.205,-0.102961
450,197.258,-0.0898267
480,194.586,-0.079857
510,193.282,-0.0184453
540,193.219,-0.00617771
570,193.198,-0.00104991
600,193.19,0.00134466
630,193.188,0.00271199
660,193.187,0.00357502
690,193.187,0.0040723
720,193.187,0.00425627
750,193.188,0.00459559
780,193.187,0.00459249
810,193.187,0.00462377
840,193.186,0.00474737
870,193.187,0.00482046
900,193.187,0.00499802
930,193.186,0.0049671
960,193.187,0.00503359
990,193.186,0.00520048
1020,193.187,0.00522923
1050,193.187,0.00538066
1080,193.186,0.00534409
1110,193.261,-0.00296571
1140,197.814,0.129319
1170,202.771,0.13756
1200,207.753,0.142499
1230,212.748,0.146696
1260,217.747,0.150817
1290,222.748,0.15406
1320,227.75,0.157255
1350,232.752,0.160397
1380,237.755,0.163531
1410,242.758,0.16686
1440,247.761,0.171272
1470,252.762,0.175453
1500,257.765,0.178703
1530,262.764,0.18418
1560,267.765,0.189807
1590,272.766,0.196396
1620,277.767,0.203979
1650,282.77,0.212633
1680,287.77,0.220812
1710,292.768,0.229366
1740,297.77,0.237359
1770,302.77,0.243547
1800,307.772,0.248003
1830,312.776,0.248486
1860,317.78,0.248456
1890,322.785,0.248599
1920,327.788,0.248475
1950,332.791,0.248533
1980,337.795,0.248663
2010,342.796,0.248835
2040,347.8,0.24969
2070,352.804,0.250713
2100,357.805,0.252211
2130,362.808,0.254242
2160,367.811,0.256746
2190,372.813,0.260031
2220,377.817,0.263927
2250,382.82,0.269605
2280,387.82,0.277348
2310,392.82,0.289419
2340,397.818,0.307313
2370,402.817,0.326151
2400,407.82,0.327744
2430,412.823,0.328319
2460,417.825,0.330431
2490,422.825,0.332842
2520,427.829,0.33566
2550,432.766,0.340962
2580,433.163,0.0682717
2610,433.189,0.0630539
2640,433.197,0.0595904
2670,433.2,0.0572735
2700,433.198,0.0557966
2730,433.196,0.0550965
2760,433.196,0.054257
2790,433.196,0.0537871
2820,433.196,0.0529125
2850,433.196,0.0525567
2880,433.196,0.0520409
2910,433.195,0.0518406
2940,433.197,0.0515604
2970,433.196,0.0509679
3000,433.196,0.0505331
3030,433.196,0.0503013
3060,433.195,0.050248
3090,433.196,0.05012
3120,433.195,0.0497016
3150,433.147,0.0533324
3180,428.63,-0.219752
3210,423.664,-0.224041
3240,418.678,-0.226273
3270,413.684,-0.227119
3300,408.686,-0.227598
3330,403.687,-0.22627
3360,398.688,-0.22203
3390,393.69,-0.212962
3420,388.691,-0.20209
3450,383.691,-0.192724
3480,378.693,-1.86E-01
3510,373.693,-0.180168
3540,368.696,-0.175957
3570,363.699,-0.173023
3600,358.7,-0.170423
3630,353.703,-0.167986
3660,348.707,-0.166049
3690,343.71,-0.164383
3720,338.711,-0.164223
3750,333.714,-0.162183
3780,328.716,-0.161203
3810,323.719,-0.160791
3840,318.72,-0.160238
3870,313.723,-0.159932
3900,308.726,-0.159874
3930,303.73,-0.159186
3960,298.735,-0.157686
3990,293.736,-0.156421
4020,288.736,-0.155269
4050,283.737,-0.154164
4080,278.74,-0.152999
4110,273.741,-0.151785
4140,268.743,-0.150927
4170,263.744,-0.150281
4200,258.745,-0.149899
4230,253.746,-0.150035
4260,248.746,-0.150129
4290,243.746,-0.150255
4320,238.746,-0.150167
4350,233.745,-0.150283
4380,228.743,-0.150745
4410,223.74,-0.15083
4440,218.739,-0.151171
4470,213.775,-0.151032
4500,209.276,-0.138002
4530,205.307,-0.121289
4560,201.798,-0.108013
4590,198.69,-0.0951077
4620,195.938,-0.0833713
4650,193.424,-0.0741
4680,193.152,-0.00841675
4710,193.188,-0.00246822
4740,193.195,-0.000223214
4770,193.197,0.00118538
4800,193.197,0.00208972
4830,193.196,0.00258715
4860,193.195,0.00286191
4890,193.196,0.00337806
4920,193.195,0.00334622
4950,193.195,0.00338708
4980,193.195,0.00380625
5010,193.194,0.00390023
5040,193.194,0.004037
5070,193.195,0.00410922
5100,193.194,0.00418684
5130,193.194,0.00430086
5160,193.194,0.00437758
5190,193.193,0.00444075
5220,193.193,0.00439456
5250,193.507,-0.0106766
5280,198.265,0.127436
5310,203.224,0.135766
5340,208.205,0.14039
5370,213.198,0.144545
5400,218.197,0.148112
5430,223.196,0.151156
5460,228.198,0.153824
5490,233.2,0.156604
5520,238.201,0.158758
5550,243.203,0.162201
5580,248.205,0.165507
5610,253.207,0.16889
5640,258.209,0.171515
5670,263.211,0.174336
5700,268.212,0.177576
5730,273.214,0.180803
5760,278.217,0.184607
5790,283.22,0.188525
5820,288.223,0.192437
5850,293.225,0.196039
5880,298.227,0.199935
5910,303.231,0.203581
5940,308.233,0.207194
5970,313.237,0.210777
6000,318.24,0.214186
6030,323.243,0.217502
6060,328.246,0.22078
6090,333.248,0.224127
6120,338.25,0.227598
6150,343.252,0.2311
6180,348.254,0.234835
6210,353.257,0.238991
6240,358.261,0.243101
6270,363.263,0.247513
6300,368.265,0.251836
6330,373.266,0.256276
6360,378.266,0.261351
6390,383.271,0.268341
6420,388.273,0.276779
6450,393.274,0.288544
6480,398.27,0.30569
6510,403.27,0.323171
6540,408.273,0.326983
6570,413.273,0.328614
6600,418.275,0.331
6630,423.277,0.333668
6660,428.28,0.336112
6690,432.998,0.307223
6720,433.167,0.067578
6750,433.189,0.0627576
6780,433.196,0.0598513
6810,433.198,0.0583882
6840,433.197,0.0571875
6870,433.197,0.0564898
6900,433.198,0.0558722
6930,433.197,0.0550432
6960,433.197,0.0544594
6990,433.196,0.0539006
7020,433.196,0.0535711
7050,433.196,0.0531202
7080,433.196,0.0527708
7110,433.197,0.0523907
7140,433.196,0.0520919
7170,433.195,0.0520279
7200,433.196,0.0520208
7230,433.195,0.0517253
7260,433.195,0.0515579
7290,432.949,0.0126713
7320,428.183,-0.218204
7350,423.215,-0.2223
7380,418.227,-0.224194
7410,413.232,-0.22458
7440,408.237,-0.224356
7470,403.239,-0.223357
7500,398.24,-0.218641
7530,393.239,-0.208734
7560,388.242,-0.197797
7590,383.244,-0.189096
7620,378.246,-0.182696
7650,373.246,-0.177863
7680,368.248,-0.173761
7710,363.25,-0.170836
7740,358.252,-0.168386
7770,353.255,-0.166526
7800,348.259,-0.164721
7830,343.261,-0.163628
7860,338.263,-0.163556
7890,333.265,-0.162472
7920,328.267,-0.161578
7950,323.27,-0.161195
7980,318.272,-0.160966
8010,313.275,-0.160447
8040,308.28,-0.159766
8070,303.284,-0.158453
8100,298.288,-0.156966
8130,293.288,-0.155641
8160,288.29,-0.154493
8190,283.292,-0.153127
8220,278.29,-0.152183
8250,273.293,-0.150758
8280,268.294,-0.150067
8310,263.296,-0.149266
8340,258.297,-0.148933
8370,253.296,-0.148802
8400,248.297,-0.148938
8430,243.298,-0.148881
8460,238.297,-0.148712
8490,233.295,-0.148756
8520,228.294,-0.148894
8550,223.292,-0.149155
8580,218.29,-0.149585
8610,213.346,-0.148538
8640,208.9,-0.134702
8670,204.975,-0.119192
8700,201.502,-0.105095
8730,198.428,-0.0921609
8760,195.707,-0.0805571
8772,194.703,-0.0762253

File: UMET_DSC_N2_10K_2.csv
Time,Temperature,Heat Flow
[s],[k],[mW/mg]
0,273.15,0
30,300.042,-0.571932
60,285.765,-0.422661
90,273.025,-0.398133
120,261.707,-0.358691
150,251.674,-0.320191
180,242.792,-0.28316
210,234.933,-0.250529
240,227.98,-0.219616
270,221.828,-0.193823
300,216.386,-0.170711
330,211.572,-0.1498
360,207.313,-0.131275
390,203.547,-0.114754
420,200.214,-0.100292
450,197.267,-0.0875474
480,194.598,-0.0771752
510,193.287,-0.0177872
540,193.226,-0.00520048
570,193.204,0.000206863
600,193.196,0.00257146
630,193.193,0.00380606
660,193.192,0.00458555
690,193.192,0.00493258
720,193.192,0.00542751
750,193.191,0.005489
780,193.191,0.00562829
810,193.19,0.00548619
840,193.191,0.00580324
870,193.191,0.00583259
900,193.191,0.00589385
930,193.191,0.00606705
960,193.191,0.00614992
990,193.19,0.00612249
1020,193.191,0.00633721
1050,193.19,0.00614258
1080,193.19,0.00617324
1110,193.259,0.000674941
1140,197.798,0.127711
1170,202.751,0.136807
1200,207.732,0.142503
1230,212.727,0.146945
1260,217.725,0.150697
1290,222.725,0.154245
1320,227.726,0.157359
1350,232.727,0.160255
1380,237.73,0.163338
1410,242.732,0.167724
1440,247.733,0.171947
1470,252.734,0.176196
1500,257.736,0.180537
1530,262.737,0.184952
1560,267.738,0.190178
1590,272.739,0.196207
1620,277.742,0.202355
1650,282.745,0.20865
1680,287.747,0.21478
1710,292.747,0.221021
1740,297.748,0.227306
1770,302.75,0.231614
1800,307.751,0.235707
1830,312.754,0.239814
1860,317.758,0.243636
1890,322.758,0.247123
1920,327.76,0.250304
1950,332.766,0.253004
1980,337.77,0.255336
2010,342.772,0.257384
2040,347.775,0.259454
2070,352.777,0.261174
2100,357.782,0.263064
2130,362.784,0.265111
2160,367.786,0.267113
2190,372.79,0.26947
2220,377.796,0.27347
2250,382.795,0.279318
2280,387.796,0.288563
2310,392.796,0.302296
2340,397.794,0.320522
2370,402.794,0.336098
2400,407.798,0.337192
2430,412.801,0.337944
2460,417.801,0.340196
2490,422.801,0.342483
2520,427.804,0.345105
2550,432.745,0.351
2580,433.167,0.0701745
2610,433.19,0.0636737
2640,433.197,0.0603044
2670,433.199,0.0583677
2700,433.198,0.0569051
2730,433.196,0.0562403
2760,433.196,0.055521
2790,433.197,0.0549387
2820,433.197,0.054322
2850,433.196,0.0537322
2880,433.195,0.0533764
2910,433.196,0.0528753
2940,433.194,0.0523434
2970,433.194,0.052508
3000,433.195,0.0523109
3030,433.198,0.0520156
3060,433.197,0.0514102
3090,433.197,0.0510694
3120,433.198,0.0509078
3150,433.152,0.0537895
3180,428.656,-0.227092
3210,423.691,-0.232808
3240,418.704,-0.235265
3270,413.708,-0.236192
3300,408.712,-0.235829
3330,403.716,-0.234841
3360,398.716,-0.231318
3390,393.717,-0.222868
3420,388.716,-0.212019
3450,383.717,-0.201318
3480,378.717,-0.19269
3510,373.721,-0.186227
3540,368.722,-0.181642
3570,363.726,-0.1785
3600,358.726,-0.175685
3630,353.729,-0.172632
3660,348.731,-0.17027
3690,343.735,-0.168599
3720,338.736,-0.168043
3750,333.737,-0.166288
3780,328.74,-0.165402
3810,323.742,-0.164694
3840,318.746,-0.164073
3870,313.747,-0.163622
3900,308.749,-0.163036
3930,303.754,-0.161683
3960,298.76,-0.160106
3990,293.762,-0.158391
4020,288.762,-0.156894
4050,283.764,-0.15542
4080,278.765,-0.15399
4110,273.766,-0.152437
4140,268.768,-0.151376
4170,263.77,-0.15053
4200,258.77,-0.14989
4230,253.771,-0.149435
4260,248.77,-0.148722
4290,243.77,-0.148639
4320,238.77,-0.148303
4350,233.77,-0.147801
4380,228.767,-0.147791
4410,223.766,-0.148037
4440,218.763,-0.148148
4470,213.798,-0.147683
4500,209.297,-0.135118
4530,205.326,-0.11986
4560,201.813,-0.105441
4590,198.704,-0.0927075
4620,195.95,-0.0809989
4650,193.435,-0.0713643
4680,193.151,-0.00714592
4710,193.188,-0.00104158
4740,193.195,0.00111245
4770,193.196,0.00257829
4800,193.196,0.00337065
4830,193.195,0.00372563
4860,193.196,0.00408447
4890,193.195,0.00442936
4920,193.195,0.00463609
4950,193.195,0.00477553
4980,193.194,0.00476828
5010,193.194,0.00484822
5040,193.194,0.00498569
5070,193.194,0.00526354
5100,193.194,0.00536104
5130,193.194,0.00525513
5160,193.193,0.00524527
5190,193.194,0.00545897
5220,193.193,0.00540163
5250,193.496,-0.0118775
5280,198.244,0.127508
5310,203.2,0.136237
5340,208.179,0.141651
5370,213.176,0.14611
5400,218.176,0.149727
5430,223.176,0.152918
5460,228.176,0.155987
5490,233.177,0.158458
5520,238.179,0.161291
5550,243.18,0.164529
5580,248.182,0.1682
5610,253.185,0.171562
5640,258.187,0.174395
5670,263.189,0.177225
5700,268.19,0.180736
5730,273.191,0.184672
5760,278.194,0.188806
5790,283.197,0.192549
5820,288.2,0.19634
5850,293.203,0.200007
5880,298.205,0.20367
5910,303.209,0.207345
5940,308.211,0.211099
5970,313.213,0.214849
6000,318.214,0.218443
6030,323.216,0.222104
6060,328.221,0.226151
6090,333.223,0.229831
6120,338.226,0.233346
6150,343.227,0.236576
6180,348.23,0.24079
6210,353.234,0.244571
6240,358.238,0.248812
6270,363.238,0.25313
6300,368.24,0.257389
6330,373.244,0.262787
6360,378.245,0.268956
6390,383.25,0.276831
6420,388.246,0.286193
6450,393.245,0.300116
6480,398.244,0.317861
6510,403.248,0.332952
6540,408.249,0.33606
6570,413.252,0.3381
6600,418.255,0.340662
6630,423.253,0.342772
6660,428.253,0.34539
6690,432.983,0.329871
6720,433.166,0.0689246
6750,433.189,0.0633568
6780,433.195,0.0601925
6810,433.197,0.0581856
6840,433.197,0.0570377
6870,433.197,0.0563669
6900,433.196,0.0557665
6930,433.197,0.0551352
6960,433.197,0.0545606
6990,433.196,0.0540587
7020,433.195,0.0538806
7050,433.195,0.0540042
7080,433.196,0.0535629
7110,433.198,0.0533575
7140,433.198,0.0526905
7170,433.196,0.0521373
7200,433.196,0.052111
7230,433.196,0.0518794
7260,433.196,0.0517084
7290,432.958,0.023407
7320,428.207,-0.227124
7350,423.24,-0.232012
7380,418.251,-0.234208
7410,413.258,-0.234986
7440,408.261,-0.234959
7470,403.263,-0.23379
7500,398.265,-0.229617
7530,393.264,-0.220548
7560,388.264,-0.208916
7590,383.266,-0.19866
7620,378.268,-0.190919
7650,373.271,-0.184995
7680,368.274,-0.181008
7710,363.275,-0.177708
7740,358.277,-0.174883
7770,353.277,-0.172019
7800,348.28,-0.169614
7830,343.283,-0.167736
7860,338.284,-0.167001
7890,333.287,-0.165098
7920,328.288,-0.164336
7950,323.292,-0.163473
7980,318.294,-0.16314
8010,313.297,-0.162662
8040,308.299,-0.161761
8070,303.303,-0.160725
8100,298.307,-0.158957
8130,293.311,-0.157194
8160,288.311,-0.155411
8190,283.312,-0.15376
8220,278.311,-0.152448
8250,273.314,-0.150957
8280,268.316,-0.149692
8310,263.316,-0.148641
8340,258.317,-0.147838
8370,253.318,-0.147404
8400,248.319,-0.147053
8430,243.317,-0.146553
8460,238.317,-0.146047
8490,233.316,-0.145862
8520,228.315,-0.14578
8550,223.312,-0.145784
8580,218.31,-0.145478
8610,213.365,-0.144287
8640,208.917,-0.131157
8670,204.99,-0.115658
8700,201.515,-0.101789
8730,198.44,-0.0893531
8760,195.717,-0.0778921
8772,194.713,-0.0735415