Folder: matl-db/Non-charring/PMMA/UQ (part 3)

File: UQ_Cone_65kW_2.csv
Time,Mass,HRR,Back Surface Temperature 1,Back Surface Temperature 2,Back Surface Temperature 3
[s],[g],[kW/m2],[K],[K],[K]
0,70.44811,0.139231,308.8,307.1,307.1
3,70.10478,-0.133045,309.6,308,308.2
6,70.04514,-0.93145,310.7,309.3,309.5
9,70.11897,0.343975,312,310.7,311.1
12,70.45176,-0.0364234,313.6,312.4,313
15,70.01445,0.463102,315.5,314.1,315
18,70.10614,-1.78405,317.5,315.9,317.4
21,70.47358,6.41757,319.7,318,320
24,70.02793,63.2656,322.1,320.1,322.6
27,70.31726,139.598,324.6,322.3,325.5
30,70.34594,193.936,327.3,324.7,328.4
33,70.4757,234.676,330.1,327.1,331.4
36,70.3905,269.969,333,329.8,334.6
39,70.07662,312.999,336,332.8,337.6
42,69.9449,359.422,339,336,340.7
45,69.6186,414.034,342.1,339.5,343.7
48,69.2375,468.97,345.2,343.1,347
51,68.7847,531.875,348.2,346.8,350
54,68.412,578.726,351.3,350.4,352.9
57,67.9669,613.476,354.4,353.9,355.7
60,67.4708,637.258,357.4,357.4,358.5
63,66.96,677.777,360.4,361,361.4
66,66.4328,704.123,363.3,364.5,364
69,65.8639,706.597,365.8,368.1,366.4
72,65.3006,714.612,368.1,371.2,368.9
75,64.7342,719.3,370.5,374.2,371.2
78,64.2002,736.151,373.2,377.2,374
81,63.6229,738.889,376,380.3,377.1
84,63.0762,760.081,379.1,383.6,380.2
87,62.4881,800.17,382.2,387,383.8
90,61.7654,811.094,385.6,390.5,387.5
93,61.1571,810.954,389.1,394,391.2
96,60.4844,818.65,392.5,397.6,394.9
99,59.8637,814.767,396.1,401.1,398.7
102,59.166,805.569,399.6,404.8,402
105,58.5154,800.342,403.1,408.4,405.8
108,57.8059,799.569,406.8,412,409.6
111,57.0376,798.706,410.2,415.7,413.2
114,56.2992,794.18,413.7,419.3,417
117,55.5985,823.49,417.3,423,420.9
120,54.9331,839.659,421,426.7,425.2
123,54.1027,859.822,424.7,430.4,429.3
126,53.3716,875.438,428.4,434.2,433.5
129,52.63846,892.496,432.2,438.2,438.3
132,51.816,894.84,436.1,442.2,443.1
135,50.97921,903.474,440.1,446.3,447.8
138,50.1429,902.616,444.3,450.5,452.7
141,49.3693,908.529,448.4,454.8,457.7
144,48.5903,917.018,452.6,459.2,462.9
147,47.577,910.291,456.5,463.5,468.1
150,46.8087,910.914,460.5,467.9,473.1
153,46.0221,918.816,463.7,472.2,478.1
156,45.0136,944.099,467.1,476.6,482.5
159,44.0633,940.169,471.2,481.1,486.8
162,43.1032,940.84,475.2,485.8,491.7
165,42.2776,949.99,479.7,490.3,495.4
168,41.4051,945.08,484.4,495,499.6
171,40.4948,947.155,489,500.1,504.1
174,39.5697,952.595,493.9,505.4,508.9
177,38.5888,955.575,499.3,510.8,514.3
180,37.6677,960.506,504.6,516.6,521.1
183,36.8026,976.548,510.9,522.3,528.4
186,35.7705,973.699,517.7,528.5,536.7
189,34.6678,984.798,525.6,534.6,545.1
192,33.8259,994.326,534,540.7,553.8
195,32.70311,984.543,543.3,547.6,562.9
198,31.784,964.793,552.1,555.4,572.4
201,30.8149,953.921,560.7,563.9,582.9
204,29.86872,951.01,569.3,573.3,593.7
207,28.9727,971.279,578.4,583.7,605
210,27.9604,973.998,587.9,594.3,617.7
213,27.0538,962.613,598.4,604.6,632.9
216,26.0694,965.009,610,614.5,652.2
219,25.0504,980.67,622.5,625,684.8
222,23.9358,991.236,635.7,637.3,730.2
225,23.0773,993.4775,653.2,654.4,772
228,22.1067,1016.35,680.4,675.9,801.1
231,20.91298,1023.6,714,701.3,822.7
234,20.0031,1037.51,745.7,725.7,839.3
237,19.05091,1020.46,779.5,746.6,853.9
240,18.2656,962.912,801.7,767.2,867.2
243,17.4889,878.869,818.8,786.9,879.7
246,16.7234,795.71,834.5,806.2,891.4
249,15.9309,708.231,848.6,824.7,902
252,15.1357,637.139,861.1,843.6,911.7
255,14.5595,592.453,872,858.9,920.8
258,13.8755,557.072,881.8,873.1,928.1
261,13.45,523.462,890.5,883.3,936.6
264,12.8779,496.885,898.4,891.8,943.7
267,12.4292,481.274,905.6,900.1,949.3
270,11.9802,451.08,911.6,907.2,952.7
273,11.5725,425.319,916.6,912.6,957.4
276,10.9476,404.416,920.7,917.4,960.8
279,10.5092,394.795,924.4,921.8,963.8
282,10.1564,392.206,928.1,926.9,966.3
285,9.61755,372.826,931.4,931.3,970.3
288,9.239637,365.504,934.5,935.7,973
291,9.030062,359.628,937.3,939.2,975.8
294,8.63789,345.21,940.3,942.8,979.1
297,8.300324,322.585,943.3,946.4,981.7
300,8.060969,309.534,946.7,950.4,985.4
303,7.728726,290.983,949.7,954,989.2
306,7.488015,276.724,952.7,957,992.7
309,7.143187,263.483,955.4,959.4,996.7
312,6.936271,250.886,958.5,962.2,1000.7
315,6.785766,240.868,962.2,964.4,1003.3
318,6.535356,233.722,966.1,967.4,1006.5
321,6.274136,225.295,969.8,970.9,1011.5
324,5.930285,217.922,974.8,973.9,1015.2
327,5.518247,210.381,980.2,975.7,1019.7
330,5.575387,202.666,986.7,979.8,1024
333,5.397966,198.262,992.2,982.2,1026.7
336,5.221699,186.831,999.1,987,1031.6
339,5.053679,178.561,1005.8,992.6,1036.4
342,4.85341,172.932,1014.1,1007,1038.8
345,4.620872,165.991,1020.5,1008.3,1039.2
348,4.350666,158.822,1027.2,1005.3,1036.5
351,4.354179,152.509,1034.8,1021.2,1032.9
354,4.333371,146.882,1040.3,1044.7,1028.3
357,4.248268,131.722,1044.9,1054.9,1023.1
360,4.060605,122.039,1045.4,1066.8,1017.5
363,3.736575,113.271,1042.6,1074.7,1012.1
366,3.574286,106.915,1037.8,1078.3,1008.4
369,3.579416,102.485,1033.2,1081.4,1004.5
372,3.495667,96.7396,1028.7,1079.9,1001
375,3.417739,95.0313,1024.3,1083.3,998.3
378,3.325178,92.5255,1020.6,1085.6,996.8
381,3.114637,86.9773,1016.8,1073.6,994.1
384,3.076466,81.7758,1011.4,1079.1,991.2
387,2.814387,78.3386,1007.8,1072.4,988.4
390,2.87296,76.8062,1003.5,1050.8,986.3
393,2.759218,73.8982,999.8,1039.2,983.6
396,2.580542,69.8346,996.2,1048.6,981.1
399,2.439344,68.8375,993.9,1051.7,980.2
402,2.462006,64.4266,991.4,1032.1,978.2
405,2.370275,62.7153,989.1,1026.9,976.1
408,2.252726,60.8,986.5,1008.4,973.5
411,2.159926,59.3618,984.1,997.6,972.1
414,2.10386,56.7689,981.5,997.7,970.1
417,2.040099,56.7503,979,990.9,968.1
420,1.910932,54.5481,976.9,985.9,966.7
423,1.835255,51.706,975.1,983.5,965.9
426,1.683444,49.2907,973.5,981.9,964.1
429,1.610135,47.7967,971.3,979,962.2
432,1.552099,45.0986,969.4,973.4,961.1
435,1.489448,44.4483,967.8,970.8,960
438,1.535703,43.6217,965.9,968.1,958.7
441,1.403925,41.9792,964.2,968.1,956.9
444,1.351856,40.8945,962.8,964,955.6
447,1.240755,39.565,961.3,960.7,954.1
450,1.239146,37.7258,959.6,958.6,952.5
453,1.151867,37.1413,958.1,959.2,951.6
456,1.063343,36.6709,956.7,955.5,951.2
459,0.990696,34.861,955.6,953.6,950.2
462,0.894777,34.0027,954.2,955.9,949.3
465,0.824349,32.8431,953.2,952.3,948.3
468,0.748548,30.8387,952.7,952.4,948
471,0.72133,29.3053,951.6,951.7,947.6
474,0.712934,28.7542,950.5,951.1,947
477,0.639027,27.8193,949.8,949.1,946.2
480,0.517375,27.2666,949.1,949,944.8
483,0.43603,26.1857,948.4,948.4,944.5
486,0.418331,26.0133,947.5,946.2,944.4
489,0.437044,25.2603,947.5,944.5,943.9
492,0.441589,24.9372,947.2,941.7,943.1
495,0.414336,23.9226,946.4,941.3,942.9
498,0.321578,23.4299,945.3,942,942.3
501,0.205976,23.1104,944.8,940.4,941.7
504,0.166693,22.1892,944.9,941.6,942
507,0.135684,20.8382,944.9,943.7,941.9
510,0.112778,21.2977,944.8,944.3,942
513,0.070169,20.3326,944.6,941,941.7
516,0.054863,20.5769,944.2,942.2,941.4
519,0.059173,19.4716,943.7,942.3,941.7
522,0.065587,19.7861,943.6,942.4,941.2
525,0.057063,18.7691,943.7,939.9,940.8
528,0.055192,18.8813,943.3,940.4,940.3
531,0.062871,17.7548,942.9,938.6,939.9
534,0.060423,16.6837,942.8,939.6,939.8
537,0.073346,16.1615,942.7,942.2,939.8
540,0.056499,16.6342,942.4,941.7,939.9
543,0.059387,15.4423,942.2,939,939.8
546,0.059981,15.6505,942.3,939.2,939.5
549,0.065515,14.6679,942.3,937.9,939.2
552,0.054546,15.6049,942,938.3,939.5
555,0.060359,15.8566,942,938,939.2
558,0.070306,14.411,942.4,935.4,939.8
561,0.056296,14.2002,941.9,936.7,939.9
564,0.067256,13.4696,941.5,936,939.7
567,0.064397,13.473,941.4,933,939.7
570,0.059387,12.4472,941.5,933.1,939.6
573,0.064993,13.3196,941.8,934.6,939.6
576,0.054265,12.5428,942,934.8,939.4
579,0.054346,12.8919,942.2,938.5,939.4
582,0.058947,11.9789,942.3,936.6,939.6
584,0.063118,11.8801,942.1,937.5,940

File: UQ_TGA_Air_1.csv
Time,Temperature,Mass,,
[s],[K],[mg],,
0,316.009,5.0169,,
0.2,318.009,5.0183,,
0.4,320.009,5.0166,,
0.6,322.009,5.0181,,
0.8,324.009,5.0239,,
1,326.009,5.0326,,
1.2,328.009,5.0437,,
1.4,330.009,5.0541,,
1.6,332.009,5.0667,,
1.8,334.009,5.0774,,
2,336.009,5.0858,,
2.2,338.009,5.0920,,
2.4,340.009,5.0946,,
2.6,342.009,5.0944,,
2.8,344.009,5.0955,,
3,346.009,5.0986,,
3.2,348.009,5.0969,,
3.4,350.009,5.0945,,
3.6,352.009,5.0925,,
3.8,354.009,5.0908,,
4,356.009,5.0875,,
4.2,358.009,5.0883,,
4.4,360.009,5.0900,,
4.6,362.009,5.0862,,
4.8,364.009,5.0891,,
5,366.009,5.0891,,
5.2,368.009,5.0881,,
5.4,370.009,5.0861,,
5.6,372.009,5.0878,,
5.8,374.009,5.0904,,
6,376.009,5.0904,,
6.2,378.009,5.0942,,
6.4,380.009,5.0941,,
6.6,382.009,5.0936,,
6.8,384.009,5.0940,,
7,386.009,5.0953,,
7.2,388.009,5.0956,,
7.4,390.009,5.0994,,
7.6,392.009,5.0989,,
7.8,394.009,5.0960,,
8,396.009,5.0937,,
8.2,398.009,5.0937,,
8.4,400.009,5.0937,,
8.6,402.009,5.0922,,
8.8,404.009,5.0918,,
9,406.009,5.0911,,
9.2,408.009,5.0910,,
9.4,410.009,5.0927,,
9.6,412.009,5.0915,,
9.8,414.009,5.0933,,
10,416.009,5.0903,,
10.2,418.009,5.0919,,
10.4,420.009,5.0908,,
10.6,422.009,5.0909,,
10.8,424.009,5.0916,,
11,426.009,5.0924,,
11.2,428.009,5.0933,,
11.4,430.009,5.0915,,
11.6,432.009,5.0884,,
11.8,434.009,5.0866,,
12,436.009,5.0874,,
12.2,438.009,5.0891,,
12.4,440.009,5.0889,,
12.6,442.009,5.0881,,
12.8,444.009,5.0866,,
13,446.009,5.0846,,
13.2,448.009,5.0837,,
13.4,450.009,5.0854,,
13.6,452.009,5.0848,,
13.8,454.009,5.0850,,
14,456.009,5.0835,,
14.2,458.009,5.0835,,
14.4,460.009,5.0835,,
14.6,462.009,5.0828,,
14.8,464.009,5.0813,,
15,466.009,5.0830,,
15.2,468.009,5.0840,,
15.4,470.009,5.0809,,
15.6,472.009,5.0806,,
15.8,474.009,5.0806,,
16,476.009,5.0812,,
16.2,478.009,5.0815,,
16.4,480.009,5.0814,,
16.6,482.009,5.0824,,
16.8,484.009,5.0828,,
17,486.009,5.0830,,
17.2,488.009,5.0809,,
17.4,490.009,5.0775,,
17.6,492.009,5.0765,,
17.8,494.009,5.0762,,
18,496.009,5.0769,,
18.2,498.009,5.0775,,
18.4,500.009,5.0807,,
18.6,502.009,5.0812,,
18.8,504.009,5.0806,,
19,506.009,5.0806,,
19.2,508.009,5.0805,,
19.4,510.009,5.0825,,
19.6,512.009,5.0829,,
19.8,514.009,5.0826,,
20,516.009,5.0820,,
20.2,518.009,5.0813,,
20.4,520.009,5.0812,,
20.6,522.009,5.0812,,
20.8,524.009,5.0794,,
21,526.009,5.0774,,
21.2,528.009,5.0756,,
21.4,530.009,5.0734,,
21.6,532.009,5.0685,,
21.8,534.009,5.0622,,
22,536.009,5.0541,,
22.2,538.009,5.0472,,
22.4,540.009,5.0379,,
22.6,542.009,5.0276,,
22.8,544.009,5.0137,,
23,546.009,4.9982,,
23.2,548.009,4.9762,,
23.4,550.009,4.9598,,
23.6,552.009,4.9412,,
23.8,554.009,4.9218,,
24,556.009,4.9030,,
24.2,558.009,4.8830,,
24.4,560.009,4.8594,,
24.6,562.009,4.8322,,
24.8,564.009,4.8038,,
25,566.009,4.7652,,
25.2,568.009,4.7200,,
25.4,570.009,4.6675,,
25.6,572.009,4.6040,,
25.8,574.009,4.5122,,
26,576.009,4.4043,,
26.2,578.009,4.2712,,
26.4,580.009,4.1329,,
26.6,582.009,3.9954,,
26.8,584.009,3.8457,,
27,586.009,3.7022,,
27.2,588.009,3.5547,,
27.4,590.009,3.3949,,
27.6,592.009,3.2467,,
27.8,594.009,3.0716,,
28,596.009,2.9118,,
28.2,598.009,2.7296,,
28.4,600.009,2.5111,,
28.6,602.009,2.2768,,
28.8,604.009,2.0510,,
29,606.009,1.8375,,
29.2,608.009,1.6500,,
29.4,610.009,1.4832,,
29.6,612.009,1.3184,,
29.8,614.009,1.1679,,
30,616.009,1.0277,,
30.2,618.009,0.9198,,
30.4,620.009,0.8134,,
30.6,622.009,0.7326,,
30.8,624.009,0.6523,,
31,626.009,0.5938,,
31.2,628.009,0.5365,,
31.4,630.009,0.4822,,
31.6,632.009,0.4340,,
31.8,634.009,0.3925,,
32,636.009,0.3521,,
32.2,638.009,0.3213,,
32.4,640.009,0.2924,,
32.6,642.009,0.2640,,
32.8,644.009,0.2385,,
33,646.009,0.2157,,
33.2,648.009,0.1954,,
33.4,650.009,0.1759,,
33.6,652.009,0.1551,,
33.8,654.009,0.1384,,
34,656.009,0.1246,,
34.2,658.009,0.1103,,
34.4,660.009,0.0967,,
34.6,662.009,0.0841,,
34.8,664.009,0.0759,,
35,666.009,0.0632,,
35.2,668.009,0.0549,,
35.4,670.009,0.0464,,
35.6,672.009,0.0393,,
35.8,674.009,0.0277,,
36,676.009,0.0235,,
36.2,678.009,0.0193,,
36.4,680.009,0.0156,,
36.6,682.009,0.0089,,
36.8,684.009,0.0073,,
37,686.009,0.0088,,
37.2,688.009,0.0068,,
37.4,690.009,0.0062,,
37.6,692.009,0.0058,,
37.8,694.009,0.0043,,
38,696.009,0.0025,,
38.2,698.009,0.0025,,
38.4,700.009,0.0046,,
38.6,702.009,0.0055,,
38.8,704.009,0.0065,,
39,706.009,0.0065,,
39.2,708.009,0.0065,,
39.4,710.009,0.0065,,
39.6,712.009,0.0065,,
39.8,714.009,0.0065,,
40,716.009,0.0064,,
40.2,718.009,0.0061,,
40.4,720.009,0.0031,,
40.6,722.009,0.0003,,
40.8,724.009,0.0000,,
41,726.009,0.0018,,
41.2,728.009,0.0028,,
41.4,730.009,0.0036,,
41.6,732.009,0.0035,,
41.8,734.009,0.0035,,
42,736.009,0.0034,,
42.2,738.009,0.0033,,
42.4,740.009,0.0032,,
42.6,742.009,0.0011,,
42.8,744.009,0.0017,,
43,746.009,0.0049,,
43.2,748.009,0.0047,,
43.4,750.009,0.0042,,

File: UQ_TGA_Air_2.csv
Time,Temperature,Mass,,,,
[min],[K],[mg],,,,
0,316.497,5.1344,,,,
0.2,318.497,5.1326,,,,
0.4,320.497,5.1317,,,,
0.6,322.497,5.1321,,,,
0.8,324.497,5.1346,,,,
1,326.497,5.1423,,,,
1.2,328.497,5.1522,,,,
1.4,330.497,5.1609,,,,
1.6,332.497,5.1718,,,,
1.8,334.497,5.1796,,,,
2,336.497,5.1856,,,,
2.2,338.497,5.1913,,,,
2.4,340.497,5.1945,,,,
2.6,342.497,5.1984,,,,
2.8,344.497,5.1986,,,,
3,346.497,5.1991,,,,
3.2,348.497,5.1989,,,,
3.4,350.497,5.1955,,,,
3.6,352.497,5.1952,,,,
3.8,354.497,5.1923,,,,
4,356.497,5.1909,,,,
4.2,358.497,5.1918,,,,
4.4,360.497,5.1914,,,,
4.6,362.497,5.1889,,,,
4.8,364.497,5.1883,,,,
5,366.497,5.1902,,,,
5.2,368.497,5.1882,,,,
5.4,370.497,5.1878,,,,
5.6,372.497,5.1897,,,,
5.8,374.497,5.1902,,,,
6,376.497,5.1901,,,,
6.2,378.497,5.1912,,,,
6.4,380.497,5.195,,,,
6.6,382.497,5.1989,,,,
6.8,384.497,5.1938,,,,
7,386.497,5.1916,,,,
7.2,388.497,5.1924,,,,
7.4,390.497,5.1958,,,,
7.6,392.497,5.1981,,,,
7.8,394.497,5.1948,,,,
8,396.497,5.193,,,,
8.2,398.497,5.1918,,,,
8.4,400.497,5.191,,,,
8.6,402.497,5.1935,,,,
8.8,404.497,5.1937,,,,
9,406.497,5.1928,,,,
9.2,408.497,5.1923,,,,
9.4,410.497,5.1911,,,,
9.6,412.497,5.1905,,,,
9.8,414.497,5.1897,,,,
10,416.497,5.1896,,,,
10.2,418.497,5.1892,,,,
10.4,420.497,5.1881,,,,
10.6,422.497,5.1881,,,,
10.8,424.497,5.1881,,,,
11,426.497,5.1881,,,,
11.2,428.497,5.1917,,,,
11.4,430.497,5.1903,,,,
11.6,432.497,5.1869,,,,
11.8,434.497,5.1855,,,,
12,436.497,5.1853,,,,
12.2,438.497,5.1837,,,,
12.4,440.497,5.1838,,,,
12.6,442.497,5.186,,,,
12.8,444.497,5.1843,,,,
13,446.497,5.1821,,,,
13.2,448.497,5.18,,,,
13.4,450.497,5.1789,,,,
13.6,452.497,5.1771,,,,
13.8,454.497,5.1785,,,,
14,456.497,5.1773,,,,
14.2,458.497,5.1779,,,,
14.4,460.497,5.1782,,,,
14.6,462.497,5.177,,,,
14.8,464.497,5.1763,,,,
15,466.497,5.1762,,,,
15.2,468.497,5.1749,,,,
15.4,470.497,5.1734,,,,
15.6,472.497,5.1743,,,,
15.8,474.497,5.1757,,,,
16,476.497,5.1764,,,,
16.2,478.497,5.1764,,,,
16.4,480.497,5.1757,,,,
16.6,482.497,5.1763,,,,
16.8,484.497,5.1766,,,,
17,486.497,5.1763,,,,
17.2,488.497,5.1749,,,,
17.4,490.497,5.174,,,,
17.6,492.497,5.1743,,,,
17.8,494.497,5.1744,,,,
18,496.497,5.1741,,,,
18.2,498.497,5.1756,,,,
18.4,500.497,5.1771,,,,
18.6,502.497,5.1761,,,,
18.8,504.497,5.1763,,,,
19,506.497,5.1767,,,,
19.2,508.497,5.1767,,,,
19.4,510.497,5.1764,,,,
19.6,512.497,5.1755,,,,
19.8,514.497,5.1757,,,,
20,516.497,5.1739,,,,
20.2,518.497,5.1716,,,,
20.4,520.497,5.1716,,,,
20.6,522.497,5.1716,,,,
20.8,524.497,5.1698,,,,
21,526.497,5.1697,,,,
21.2,528.497,5.1675,,,,
21.4,530.497,5.1655,,,,
21.6,532.497,5.1611,,,,
21.8,534.497,5.1547,,,,
22,536.497,5.1492,,,,
22.2,538.497,5.1405,,,,
22.4,540.497,5.1305,,,,
22.6,542.497,5.1171,,,,
22.8,544.497,5.1035,,,,
23,546.497,5.0868,,,,
23.2,548.497,5.0656,,,,
23.4,550.497,5.0462,,,,
23.6,552.497,5.0301,,,,
23.8,554.497,5.0096,,,,
24,556.497,4.9892,,,,
24.2,558.497,4.9701,,,,
24.4,560.497,4.9467,,,,
24.6,562.497,4.9161,,,,
24.8,564.497,4.883,,,,
25,566.497,4.8519,,,,
25.2,568.497,4.805,,,,
25.4,570.497,4.7549,,,,
25.6,572.497,4.6816,,,,
25.8,574.497,4.6026,,,,
26,576.497,4.4985,,,,
26.2,578.497,4.3704,,,,
26.4,580.497,4.2322,,,,
26.6,582.497,4.0882,,,,
26.8,584.497,3.9428,,,,
27,586.497,3.7766,,,,
27.2,588.497,3.6165,,,,
27.4,590.497,3.4433,,,,
27.6,592.497,3.2787,,,,
27.8,594.497,3.1189,,,,
28,596.497,2.9181,,,,
28.2,598.497,2.6886,,,,
28.4,600.497,2.4545,,,,
28.6,602.497,2.2273,,,,
28.8,604.497,2.0028,,,,
29,606.497,1.7861,,,,
29.2,608.497,1.5896,,,,
29.4,610.497,1.4099,,,,
29.6,612.497,1.2606,,,,
29.8,614.497,1.1246,,,,
30,616.497,0.995,,,,
30.2,618.497,0.8819,,,,
30.4,620.497,0.7849,,,,
30.6,622.497,0.7007,,,,
30.8,624.497,0.627,,,,
31,626.497,0.5665,,,,
31.2,628.497,0.5128,,,,
31.4,630.497,0.4592,,,,
31.6,632.497,0.4195,,,,
31.8,634.497,0.3812,,,,
32,636.497,0.3413,,,,
32.2,638.497,0.3067,,,,
32.4,640.497,0.2755,,,,
32.6,642.497,0.2495,,,,
32.8,644.497,0.2224,,,,
33,646.497,0.2023,,,,
33.2,648.497,0.1829,,,,
33.4,650.497,0.1651,,,,
33.6,652.497,0.1477,,,,
33.8,654.497,0.1339,,,,
34,656.497,0.1214,,,,
34.2,658.497,0.1042,,,,
34.4,660.497,0.0919,,,,
34.6,662.497,0.0803,,,,
34.8,664.497,0.0718,,,,
35,666.497,0.0627,,,,
35.2,668.497,0.053,,,,
35.4,670.497,0.0455,,,,
35.6,672.497,0.0363,,,,
35.8,674.497,0.0282,,,,
36,676.497,0.0234,,,,
36.2,678.497,0.02,,,,
36.4,680.497,0.0177,,,,
36.6,682.497,0.0125,,,,
36.8,684.497,0.0128,,,,
37,686.497,0.0118,,,,
37.2,688.497,0.0101,,,,
37.4,690.497,0.0092,,,,
37.6,692.497,0.0085,,,,
37.8,694.497,0.0062,,,,
38,696.497,0.0057,,,,
38.2,698.497,0.0054,,,,
38.4,700.497,0.0071,,,,
38.6,702.497,0.0075,,,,
38.8,704.497,0.0069,,,,
39,706.497,0.0062,,,,
39.2,708.497,0.0045,,,,
39.4,710.497,0.0019,,,,
39.6,712.497,0.0069,,,,
39.8,714.497,0.0066,,,,
40,716.497,0.0053,,,,
40.2,718.497,0.0052,,,,
40.4,720.497,0.004,,,,
40.6,722.497,0.0037,,,,
40.8,724.497,0.0036,,,,
41,726.497,0.0035,,,,
41.2,728.497,0.0048,,,,
41.4,730.497,0.0031,,,,
41.6,732.497,0,,,,
41.8,734.497,0.0026,,,,
42,736.497,0.0054,,,,
42.2,738.497,0.0055,,,,
42.4,740.497,0.0041,,,,
42.6,742.497,0.0038,,,,
42.8,744.497,0.0038,,,,
43,746.497,0.0038,,,,
43.2,748.497,0.0036,,,,
43.4,750.497,0.0033,,,,

File: UQ_TGA_Air_3.csv
Time,Temperature,Mass,
[s],[K],[mg],
0,316.205,5.3138,
0.2,318.205,5.3165,
0.4,320.205,5.3201,
0.6,322.205,5.3212,
0.8,324.205,5.3258,
1,326.205,5.3342,
1.2,328.205,5.3451,
1.4,330.205,5.3573,
1.6,332.205,5.3698,
1.8,334.205,5.3794,
2,336.205,5.3867,
2.2,338.205,5.3924,
2.4,340.205,5.3949,
2.6,342.205,5.3949,
2.8,344.205,5.3964,
3,346.205,5.3997,
3.2,348.205,5.3969,
3.4,350.205,5.3922,
3.6,352.205,5.3937,
3.8,354.205,5.3917,
4,356.205,5.3886,
4.2,358.205,5.3884,
4.4,360.205,5.3897,
4.6,362.205,5.3878,
4.8,364.205,5.389,
5,366.205,5.3915,
5.2,368.205,5.3891,
5.4,370.205,5.3874,
5.6,372.205,5.3877,
5.8,374.205,5.3867,
6,376.205,5.391,
6.2,378.205,5.3926,
6.4,380.205,5.3943,
6.6,382.205,5.3995,
6.8,384.205,5.3983,
7,386.205,5.3949,
7.2,388.205,5.3933,
7.4,390.205,5.3986,
7.6,392.205,5.3973,
7.8,394.205,5.3952,
8,396.205,5.3946,
8.2,398.205,5.3945,
8.4,400.205,5.3947,
8.6,402.205,5.3934,
8.8,404.205,5.3934,
9,406.205,5.3951,
9.2,408.205,5.3955,
9.4,410.205,5.3943,
9.6,412.205,5.3928,
9.8,414.205,5.3922,
10,416.205,5.3903,
10.2,418.205,5.3907,
10.4,420.205,5.3894,
10.6,422.205,5.3898,
10.8,424.205,5.3901,
11,426.205,5.3901,
11.2,428.205,5.3903,
11.4,430.205,5.3913,
11.6,432.205,5.3892,
11.8,434.205,5.3874,
12,436.205,5.3888,
12.2,438.205,5.3897,
12.4,440.205,5.3883,
12.6,442.205,5.3874,
12.8,444.205,5.3855,
13,446.205,5.383,
13.2,448.205,5.3821,
13.4,450.205,5.3821,
13.6,452.205,5.3826,
13.8,454.205,5.3826,
14,456.205,5.3805,
14.2,458.205,5.3805,
14.4,460.205,5.3815,
14.6,462.205,5.3811,
14.8,464.205,5.3812,
15,466.205,5.3822,
15.2,468.205,5.382,
15.4,470.205,5.3796,
15.6,472.205,5.3801,
15.8,474.205,5.3793,
16,476.205,5.3789,
16.2,478.205,5.3786,
16.4,480.205,5.3781,
16.6,482.205,5.3791,
16.8,484.205,5.3792,
17,486.205,5.3791,
17.2,488.205,5.3777,
17.4,490.205,5.3764,
17.6,492.205,5.3762,
17.8,494.205,5.3767,
18,496.205,5.3769,
18.2,498.205,5.3768,
18.4,500.205,5.3776,
18.6,502.205,5.3771,
18.8,504.205,5.377,
19,506.205,5.3772,
19.2,508.205,5.3772,
19.4,510.205,5.3774,
19.6,512.205,5.3764,
19.8,514.205,5.3758,
20,516.205,5.3753,
20.2,518.205,5.3741,
20.4,520.205,5.3739,
20.6,522.205,5.3736,
20.8,524.205,5.3715,
21,526.205,5.371,
21.2,528.205,5.3693,
21.4,530.205,5.3661,
21.6,532.205,5.3597,
21.8,534.205,5.3541,
22,536.205,5.3473,
22.2,538.205,5.3385,
22.4,540.205,5.3293,
22.6,542.205,5.3116,
22.8,544.205,5.2992,
23,546.205,5.2858,
23.2,548.205,5.2644,
23.4,550.205,5.2411,
23.6,552.205,5.2233,
23.8,554.205,5.2057,
24,556.205,5.1845,
24.2,558.205,5.1638,
24.4,560.205,5.1403,
24.6,562.205,5.112,
24.8,564.205,5.0795,
25,566.205,5.0373,
25.2,568.205,4.9948,
25.4,570.205,4.9409,
25.6,572.205,4.8637,
25.8,574.205,4.7808,
26,576.205,4.6758,
26.2,578.205,4.5389,
26.4,580.205,4.3943,
26.6,582.205,4.2528,
26.8,584.205,4.0958,
27,586.205,3.929,
27.2,588.205,3.7527,
27.4,590.205,3.6021,
27.6,592.205,3.4478,
27.8,594.205,3.2716,
28,596.205,3.0951,
28.2,598.205,2.9105,
28.4,600.205,2.7012,
28.6,602.205,2.4669,
28.8,604.205,2.2287,
29,606.205,1.9968,
29.2,608.205,1.784,
29.4,610.205,1.585,
29.6,612.205,1.4119,
29.8,614.205,1.2538,
30,616.205,1.115,
30.2,618.205,0.9936,
30.4,620.205,0.8865,
30.6,622.205,0.7931,
30.8,624.205,0.7107,
31,626.205,0.6408,
31.2,628.205,0.5818,
31.4,630.205,0.522,
31.6,632.205,0.479,
31.8,634.205,0.4321,
32,636.205,0.39,
32.2,638.205,0.3531,
32.4,640.205,0.323,
32.6,642.205,0.2952,
32.8,644.205,0.2658,
33,646.205,0.2413,
33.2,648.205,0.2224,
33.4,650.205,0.2007,
33.6,652.205,0.1803,
33.8,654.205,0.1649,
34,656.205,0.1508,
34.2,658.205,0.1355,
34.4,660.205,0.12,
34.6,662.205,0.1066,
34.8,664.205,0.0967,
35,666.205,0.0872,
35.2,668.205,0.0778,
35.4,670.205,0.0704,
35.6,672.205,0.0594,
35.8,674.205,0.0498,
36,676.205,0.0467,
36.2,678.205,0.0419,
36.4,680.205,0.0384,
36.6,682.205,0.0318,
36.8,684.205,0.0316,
37,686.205,0.0325,
37.2,688.205,0.0305,
37.4,690.205,0.0291,
37.6,692.205,0.0276,
37.8,694.205,0.0258,
38,696.205,0.0219,
38.2,698.205,0.0219,
38.4,700.205,0.024,
38.6,702.205,0.0248,
38.8,704.205,0.0256,
39,706.205,0.0255,
39.2,708.205,0.0235,
39.4,710.205,0.0235,
39.6,712.205,0.0235,
39.8,714.205,0.0235,
40,716.205,0.0235,
40.2,718.205,0.0235,
40.4,720.205,0.0206,
40.6,722.205,0.0196,
40.8,724.205,0.0195,
41,726.205,0.0194,
41.2,728.205,0.0193,
41.4,730.205,0.0192,
41.6,732.205,0.0194,
41.8,734.205,0.0209,
42,736.205,0.0211,
42.2,738.205,0.0214,
42.4,740.205,0.0208,
42.6,742.205,0.0203,
42.8,744.205,0.02,
43,746.205,0.0196,
43.2,748.205,0.0193,
43.4,750.205,0.019,