Folder: matl-db/Non-charring/PMMA/UQ (part 2)

File: UQ_Cone_25kW_2.csv
Time,Mass,HRR,Back Surface Temperature 1,Back Surface Temperature 2,Back Surface Temperature 3
[s],[g],[kW/m2],[K],[K],[K]
0,73.4,4.07818,301.5,302,301.1
4,73.52662,2.34998,301.8,302.2,301.5
8,73.62296,4.06982,302.3,302.6,302.3
12,73.59758,4.89164,303,303.1,303.4
16,73.52498,4.50966,304,303.9,304.8
20,73.58048,2.72169,305.2,304.8,306.3
24,73.5606,2.02177,306.6,305.9,308.1
28,73.62141,1.82785,308.1,307.2,310.2
32,73.58219,1.72075,309.8,308.6,312.5
36,73.55481,1.12017,311.7,310.2,314.8
40,73.56108,1.00858,313.7,311.9,317.2
44,73.52854,1.77826,315.8,313.8,319.7
48,73.59804,2.05978,318,315.8,322.2
52,73.61449,2.25245,320.3,317.9,325
56,73.62213,2.86261,322.7,319.9,327.7
60,73.56372,3.08733,325,322.1,330.4
64,73.554,3.40011,327.4,324.3,333.1
68,73.58769,1.7978,329.7,326.6,335.9
72,73.60339,1.85804,331.8,328.9,338.6
76,73.52582,2.38813,334,331.2,341.3
80,73.57544,2.92579,336.3,333.6,344.2
84,73.58818,2.93328,338.6,335.9,346.5
88,73.54671,2.35708,340.9,338.2,349.2
92,73.59027,1.9581,343.1,340.5,351.9
96,73.60152,1.83023,345.4,342.8,354.4
100,73.60417,2.22096,347.7,344.9,356.9
104,73.52903,0.982276,350.1,347,359.3
108,73.54045,1.55759,353.3,349.1,361.5
112,73.5705,2.28093,355.7,351.1,363.7
116,73.56917,3.2843,357.9,353.1,365.9
120,73.57139,2.83682,360,355.1,367.9
124,73.58134,4.06326,362,356.9,369.6
128,73.60499,3.2808,364.1,358.7,371.2
132,73.61152,2.83435,366.3,360.6,372.9
136,73.53911,1.18293,368.7,362.7,374.3
140,73.57332,1.02225,371.1,364.9,376
144,73.60832,1.75053,373.2,367.1,377.8
148,73.53407,16.9563,375.2,369.1,379.8
152,73.53014,39.7678,377.4,371.2,381.9
156,73.53024,66.8265,379.6,373.3,384.2
160,73.52713,87.3981,381.7,375.4,386.7
164,73.57462,111.661,383.7,377.5,389.4
168,73.5496,132.554,385.8,379.7,392
172,73.55649,153.266,387.8,381.9,394.6
176,73.6234,179.407,389.9,384.1,397.2
180,73.60567,211.005,392.2,386.4,399.7
184,73.4889,242.283,394.5,388.8,402
188,73.0845,266.881,396.7,391.2,404.3
192,72.7091,279.26,399,393.7,406.6
196,72.3272,289.041,401.3,396.2,408.8
200,71.9324,308.929,403.6,398.6,411.1
204,71.4818,314.659,405.9,401,413.1
208,71.0292,323.42,408.3,403.4,415.3
212,70.6051,329.641,411.1,405.8,417.5
216,70.1658,332.677,413.6,408.4,419.5
220,69.6766,333.508,415.9,410.9,421.8
224,69.2525,341.245,418.2,413.3,424.4
228,68.7488,345.187,420.5,415.7,426.7
232,68.28794,344.272,422.7,418.1,428.8
236,67.8148,351.278,424.9,420.5,431
240,67.3263,355.91,427.1,422.9,433.2
244,66.8162,363.193,429.2,425.3,435.3
248,66.3275,364.935,431.4,427.6,437.6
252,65.83109,368.548,433.5,429.9,439.6
256,65.3434,370.504,435.7,432.2,441.7
260,64.8463,374.019,437.9,434.5,444
264,64.3403,373.355,440,436.7,446
268,63.82,382.114,442.1,439.1,448
272,63.2236,391.061,444.2,441.3,450.3
276,62.6865,387.123,446.3,443.4,452.3
280,62.1623,395.396,448.4,445.7,454.4
284,61.6553,394.181,450.4,448,456.4
288,61.123,393.355,452.5,450.2,458.6
292,60.6234,398.952,454.5,452.4,460.8
296,60.0569,397.818,456.5,454.6,463
300,59.53304,402.503,458.6,456.8,465.1
304,58.9933,402.439,460.6,458.9,467.1
308,58.4033,407.939,462.6,461,469.3
312,57.8841,413.355,464.6,463.1,471.3
316,57.3567,419.926,466.5,465.3,473.2
320,56.76481,417.641,468.4,467.4,475.3
324,56.2322,418.86,470.5,469.6,477.3
328,55.6896,419.792,472.5,471.6,479.3
332,55.0862,425.127,474.5,473.7,481.1
336,54.5157,425.588,476.4,475.9,483.1
340,53.9316,430.691,478.4,477.8,485.2
344,53.3623,432.623,480.4,479.8,487.1
348,52.7133,435.025,482.5,481.8,488.8
352,52.1368,438.202,484.4,483.9,490.5
356,51.5787,435.354,486.3,486,492.5
360,50.9624,441.147,488.3,488.1,494.4
364,50.3303,451.802,490.4,490.2,496.4
368,49.7663,451.341,492.4,492.3,498.7
372,49.1558,451.102,494.2,494.5,500.6
376,48.5187,450.285,496.2,496.6,502.7
380,47.9074,451.094,498.1,498.7,504.6
384,47.3061,458.071,500.1,500.7,506.8
388,46.6704,458.555,502,502.6,509.1
392,46.0373,464.234,503.9,504.7,510.9
396,45.3994,456.03,505.9,506.9,512.7
400,44.8136,467.638,507.9,508.9,515
404,44.1655,469.754,510,510.9,517.2
408,43.5481,467.967,512,512.9,519.6
412,42.9612,468.972,514.1,514.9,522.1
416,42.332,463.808,516.1,517,524.3
420,41.6645,473.286,518.1,519,526.7
424,41.0204,473.076,520,520.9,529
428,40.418,472.082,522.1,523,531.3
432,39.8047,468.849,524.4,525.1,533.6
436,39.1609,469.708,526.5,527.3,535.9
440,38.5135,464.913,528.5,529.4,538.3
444,37.9017,468.232,530.6,531.6,540.5
448,37.2518,473.738,533,534,542.7
452,36.628,476.31,535.5,536.2,544.9
456,36.0014,479.35,538.1,538.8,547.3
460,35.3239,479.963,540.8,541.3,549.7
464,34.6932,483.862,543.5,544,552.1
468,34.0517,491.961,546.4,546.7,554.5
472,33.40304,486.861,549.3,549.4,556.9
476,32.7827,488.613,552.2,552,559.2
480,32.1125,489.778,555.4,554.8,562.1
484,31.45463,490.461,558.4,557.5,564.8
488,30.79486,498.544,561.6,560.3,567.5
492,30.159,502.196,564.7,563.2,570.3
496,29.5059,499.767,567.9,566,573.3
500,28.8252,497.556,571.1,569,576.1
504,28.1788,501.438,574.2,572,579.3
508,27.5257,497.741,577.4,575,582.4
512,26.8563,494.646,580.6,578,585.5
516,26.1805,486.141,583.9,580.8,588.7
520,25.5905,487.147,587.1,583.8,591.9
524,24.9639,475.077,590.5,586.5,595.2
528,24.3072,466.073,593.9,589.3,598.5
532,23.72495,456.958,597.1,592.1,601.7
536,23.187,448.501,600.5,594.8,604.6
540,22.5742,442.48,603.6,597.5,607.5
544,22.029,437.364,606.8,600.1,610.6
548,21.521,437.77,609.9,602.8,613.5
552,20.8435,428.291,613.1,605.6,616.9
556,20.2946,430.166,616.3,608.5,620.4
560,19.729,425.461,619.6,611.3,624.2
564,19.2334,421.158,622.9,614.1,628.5
568,18.6777,415.679,626.6,616.8,633.3
572,18.1266,420.766,630.4,619.8,638.6
576,17.5495,424.198,634.5,623.1,645
580,17.02773,419.2,639,626.9,652.3
584,16.4396,414.894,643.2,631.3,660.2
588,15.9092,415.46,647.4,636.5,669.4
592,15.3684,408.321,653,642.8,681.2
596,14.8223,406.63,659.5,650.6,696.3
600,14.2931,406.477,666.8,660.3,713
604,13.7827,402.473,674.6,673.6,732.2
608,13.23127,394.645,683.5,687.9,746.7
612,12.75322,384.242,692.9,699.3,756.5
616,12.2492,378.676,700.9,707.5,765
620,11.7667,378.625,711.1,713.7,772.9
624,11.20502,376.958,721.9,719.6,780.5
628,10.774,365.924,730.4,724.1,786.3
632,10.3075,355.681,739.6,729.7,795.3
636,9.868928,349.169,747.3,734.7,806.1
640,9.490142,329.401,754.5,739.4,810.8
644,9.071924,316.736,761.7,744,815.1
648,8.659055,307.077,769,749.3,845
652,8.28159,298.058,775.8,755.1,857.2
656,7.913515,274.485,786.3,761.7,872.3
660,7.567536,265.984,801.2,770.4,874.9
664,7.266598,252.172,824.3,777.8,869.2
668,6.988703,225.851,842.2,786.2,885.7
672,6.719044,208.88,853.3,797.3,885.1
676,6.4515,195.545,868.2,805.1,898.1
680,6.196163,177.417,868.8,816.3,901.6
684,6.04081,163.997,873.7,826.7,905.7
688,5.826956,149.538,880.1,835.9,910.1
692,5.684793,131.596,877.6,844.9,907.5
696,5.570865,122.854,882.6,850.2,914.2
700,5.446937,116.188,880.4,854.8,918.6
704,5.322679,108.958,883.1,863,920.5
708,5.221817,100.893,885.6,866,928.3
712,5.102054,97.2656,890.6,870.9,938.2
716,5.017694,93.494,894.2,876.9,938.4
720,4.901411,92.4786,894.8,878.5,944.4
724,4.732604,88.953,898.4,884.3,943.6
728,4.679206,85.7763,901.4,883.8,916.7
732,4.605965,84.07,904.1,887.7,900.4
736,4.536497,81.1416,908.2,886.9,886.5
740,4.45891,79.6179,906.8,888.4,864.6
744,4.402755,77.6533,897,889.7,839.7
748,4.328659,77.3876,882.3,891.9,826.3
752,4.26441,76.7281,865.8,892.8,818
756,4.201586,74.7101,852.7,892.3,811.4
760,4.13208,73.6626,843.2,893.6,801.8
764,4.064078,72.2855,834.8,891,798.7
768,3.99701,68.8428,825.7,881.3,794.8
772,3.926924,66.4024,819.7,873,788
776,3.835445,65.3697,813.3,865.6,785.9
780,3.770525,63.1639,808.4,857.7,781.4
784,3.733272,62.926,803.7,849.1,776.7
788,3.684,59.1247,796.8,841.1,775.1
792,3.636749,57.8832,792.4,833.7,774.2
796,3.583948,57.2285,787.1,826,771
800,3.533715,55.816,784,819,768.4
804,3.458764,54.2231,779.8,812.9,768.7
808,3.406974,53.6848,777.7,807.9,767.5
812,3.350303,53.1193,775.3,802.8,762.6
816,3.309393,51.8616,771.7,798,763.9
820,3.265547,51.8636,768.8,794.2,762.3
824,3.221619,51.1219,767,790.5,763.2
828,3.173485,50.4505,764.1,786.8,760.5
832,3.142607,49.8642,762.3,783.5,758.4
836,3.072573,49.041,759.3,780,755.5
840,3.012933,49.217,756.9,777.2,751.8
844,2.966036,47.8415,754.6,774.4,750.9
848,2.953578,46.8167,752.5,771.6,751.8
852,2.915044,47.3628,751.7,770,751.9
856,2.853237,46.9063,750.5,767.9,749.9
860,2.788904,46.8886,749.6,765.8,748.1
864,2.725194,47.2241,748.7,763.7,747.4
868,2.716749,47.1595,748.8,762.8,747.8
872,2.692408,45.4212,749.1,761.4,746.5
876,2.607446,44.859,747.2,759.6,744.1
880,2.604802,45.8842,746.7,758.3,741.7
884,2.574,44.9009,745.9,756.9,739.5
888,2.540936,44.6259,744.8,755.4,742.9
892,2.485678,45.0626,744.1,754.5,743.1
896,2.435062,45.0757,744.2,753.5,743.3
900,2.396856,44.1247,742.4,752.6,743.6
904,2.378386,44.6136,741.4,751.5,741.7
908,2.344,43.3772,740.6,750.8,741.9
912,2.29443,42.3309,739.4,750,741.2
916,2.260017,42.8753,739,749,741.9
920,2.232562,42.5924,740.1,748,739.4
924,2.183048,41.8117,739.6,747.6,739.1
928,2.131707,41.9851,738.5,746.7,740.2
932,2.065712,42.0113,737.2,746.1,737.4
936,2.029146,41.9459,736,745.6,739.5
940,1.990497,41.3628,736.8,744.9,738.1
944,1.941121,40.5976,736.3,744.6,736.1
948,1.915895,39.9366,736,744.1,736.3
952,1.857627,40.4643,736.8,743.6,737.3
956,1.810219,40.6257,735.5,742.6,735.7
960,1.79039,41.4879,734.8,742.1,734.1
964,1.762411,34.0787,735.1,741.8,733
968,1.733335,32.5335,734.5,741.4,734.6
972,1.704876,36.5628,733.5,741.1,734.4
976,1.638398,38.6947,734,740.7,733.1
980,1.583422,40.1328,733.6,740.1,734.3
984,1.564,42.8521,733.1,739.7,732.6
988,1.554,42.0482,733.3,739,731.7
992,1.513152,41.5111,733.9,738.7,733.3
996,1.475251,38.5231,732.5,738.8,733.2
1000,1.47086,33.7306,731.8,738.6,731.9
,,,,,
,,,,,
,,,,,
,,,,,
,,,,,
,,,,,
,,,,,
,,,,,
,,,,,
,,,,,
,,,,,
,,,,,
,,,,,
,,,,,
,,,,,
,,,,,
,,,,,
,,,,,
,,,,,
,,,,,
,,,,,
,,,,,
,,,,,
,,,,,
,,,,,
,,,,,
,,,,,
,,,,,
,,,,,
,,,,,
,,,,,
,,,,,
,,,,,
,,,,,
,,,,,
,,,,,
,,,,,
,,,,,
,,,,,
,,,,,
,,,,,
,,,,,
,,,,,
,,,,,
,,,,,
,,,,,
,,,,,
,,,,,
,,,,,
,,,,,
,,,,,
,,,,,
,,,,,
,,,,,
,,,,,
,,,,,
,,,,,
,,,,,
,,,,,
,,,,,
,,,,,
,,,,,
,,,,,
,,,,,
,,,,,
,,,,,
,,,,,
,,,,,
,,,,,
,,,,,
,,,,,
,,,,,
,,,,,
,,,,,
,,,,,
,,,,,
,,,,,
,,,,,
,,,,,
,,,,,
,,,,,
,,,,,
,,,,,
,,,,,
,,,,,
,,,,,
,,,,,
,,,,,
,,,,,
,,,,,
,,,,,
,,,,,
,,,,,
,,,,,
,,,,,
,,,,,
,,,,,
,,,,,
,,,,,
,,,,,
,,,,,
,,,,,
,,,,,
,,,,,
,,,,,
,,,,,
,,,,,
,,,,,
,,,,,
,,,,,
,,,,,
,,,,,
,,,,,
,,,,,
,,,,,
,,,,,
,,,,,
,,,,,
,,,,,
,,,,,
,,,,,
,,,,,
,,,,,
,,,,,
,,,,,
,,,,,
,,,,,
,,,,,
,,,,,
,,,,,
,,,,,
,,,,,
,,,,,
,,,,,
,,,,,
,,,,,
,,,,,
,,,,,
,,,,,
,,,,,
,,,,,
,,,,,
,,,,,
,,,,,
,,,,,
,,,,,
,,,,,
,,,,,
,,,,,
,,,,,
,,,,,
,,,,,
,,,,,
,,,,,
,,,,,
,,,,,
,,,,,
,,,,,
,,,,,
,,,,,
,,,,,
,,,,,
,,,,,
,,,,,
,,,,,
,,,,,
,,,,,
,,,,,
,,,,,
,,,,,
,,,,,
,,,,,
,,,,,
,,,,,
,,,,,
,,,,,
,,,,,
,,,,,
,,,,,
,,,,,
,,,,,
,,,,,
,,,,,
,,,,,
,,,,,
,,,,,

File: UQ_Cone_65kW_1.csv
Time,Mass,HRR,Back Surface Temperature 1,Back Surface Temperature 2,Back Surface Temperature 3
[s],[g],[kW/m2],[K],[K],[K]
0,71.4,-2.98255,307.8,306.1,306.8
3,71.45519,-3.03434,308,306.6,307.8
6,71.42298,-3.13021,308.5,307.4,309.1
9,71.46357,-2.05359,309.1,308.4,310.6
12,71.39713,-2.15091,310.1,309.7,312.4
15,71.35779,-0.970378,311.2,311.3,314.3
18,71.35435,-1.1889,312.6,313,316.7
21,71.42286,-2.96379,314.3,314.8,319.2
24,71.38344,2.70176,316.2,316.7,321.7
27,71.49017,50.6443,318.2,318.8,324.6
30,71.5007,111.457,320.5,320.9,327.5
33,71.2567,165.809,323,323.1,330.5
36,71.0929,220.81,325.6,325.5,333.6
39,70.7267,247.401,328.3,328,336.6
42,70.4274,290.778,331.1,330.8,339.7
45,70.108,329.527,334.1,333.8,342.9
48,69.728,375.243,337,337.2,346
51,69.2984,424.156,341,342.3,349.4
54,68.8297,470.471,345.2,345.4,352.7
57,68.2758,515.419,348.9,348.5,355.9
60,67.7438,551.025,352.7,351.7,359.1
63,67.2016,597.019,356.5,354.7,362.2
66,66.8447,631.617,360,357.7,365.2
69,65.8617,649.003,363.2,360.7,367.7
72,65.26051,659.047,366.2,363.6,370.4
75,64.5914,685.071,369,366.5,373.2
78,63.7702,708.249,371.8,369.4,376
81,62.7314,734.696,374.7,372.5,379
84,61.9305,770.898,378,375.7,382.3
87,61.1857,785.141,381.3,379,385.8
90,60.2731,787.686,384.7,382.5,389.4
93,60.0602,770.448,388.2,385.8,393.2
96,59.2842,757.527,391.6,389.3,397
99,58.653,757.265,395.1,392.8,400.8
102,57.788,744.282,398.5,396.2,404.6
105,57.1133,728.871,401.8,399.6,408.5
108,56.4107,732.544,405.3,403.1,412.3
111,55.7138,750.35,408.8,406.7,416.2
114,54.9433,766.033,412.4,410.3,420.2
117,54.1112,790.121,415.9,414,424.1
120,53.3341,796.003,419.6,417.8,428.1
123,52.5154,810.667,423.2,421.6,432.3
126,51.695,837.26,426.9,425.5,436.3
129,50.8163,837.026,430.7,429.4,440.5
132,50.0153,839.732,434.4,433.3,444.7
135,49.237,838.639,438.3,437.4,449
138,48.4809,835.842,442.5,441.5,453.4
141,47.64891,844.19,446.5,445.7,458.1
144,46.4578,847.677,450.6,449.8,463.1
147,45.5961,843.481,454.8,454.1,468.2
150,44.738,841.649,459.1,458.3,473.4
153,43.9094,858.769,463.5,462.7,478.4
156,43.0678,853.69,468,466.9,484.2
159,42.1879,853.527,472.6,471.4,489.8
162,41.3345,865.131,477.4,476.3,495.5
165,40.46426,866.162,482.8,481.1,501
168,39.6232,873.658,488,485.6,506.5
171,38.7512,880.066,493,490.2,511.8
174,37.8503,875.879,498.5,495.4,516.9
177,36.9408,875.311,504.2,500.1,521.9
180,36.0772,873.532,510.2,505.5,527.5
183,35.228,862.727,516.3,510.8,533.7
186,34.4133,867.333,522.8,516.2,540.1
189,33.5403,871.34,529.4,523.4,547.4
192,32.6264,888.557,536.3,531.3,555
195,31.7285,895.12,542.9,539.7,563.2
198,30.8735,894.529,550.6,548.8,571.8
201,29.9826,892.043,559.1,558,580.7
204,29.0708,907.709,567.8,567.7,591.6
207,28.1392,917.987,576.8,578.3,604
210,27.2418,933.534,585.8,591.7,618.4
213,26.3735,948.201,594.9,609,635.1
216,25.3893,942.562,604.6,641.5,655.2
219,24.4184,939.243,613.6,656.9,681.3
222,23.4816,937.303,622.5,668,708.7
225,22.5075,936.026,633.8,677.6,741.1
228,21.55998,930.644,648.6,688.1,768.8
231,20.6255,935.37,668.5,706.6,788.8
234,19.6899,924.166,696.8,733.9,808.7
237,18.8145,911.089,727,758.4,826.2
240,17.8808,910.695,754.5,777.3,841.2
243,16.9858,914.223,777.9,795.3,854.6
246,16.0364,921.544,798.6,811,867.7
249,15.1201,925.933,817.2,824.4,880.2
252,14.2316,905.228,834.1,836.8,893.9
255,13.4438,871.229,848.6,847.9,906.6
258,12.5629,839.868,860.5,858.4,915.8
261,11.7719,817.427,869.2,867.3,924
264,11.0632,764.197,876.5,875.8,934.9
267,10.3145,699.501,882,883.2,940.7
270,9.639533,630.966,887.4,890.3,946.3
273,9.084884,579.525,893.1,897.5,955.4
276,8.607116,508.671,898.3,903.3,961
279,8.157304,449.849,903.3,908.8,969.7
282,7.751077,401.225,906.2,914.5,969.8
285,7.35288,371.513,909.4,920.4,969.8
288,7.039764,341.042,913,925.7,975.7
291,6.654856,323.052,917.2,930.9,980.9
294,6.282645,310.169,920,935.7,985.7
297,5.973874,306.227,924.2,939.4,990.6
300,5.683426,295.887,929.6,944.4,998.7
303,5.351964,292.429,932.8,948.9,1003.5
306,4.995883,288.86,937.2,953,1011.1
309,4.653786,278.376,946.2,958.1,1013.8
312,4.470736,272.444,957.3,962.3,1022.8
315,4.115437,259.747,967.4,966.6,1032.2
318,3.899157,246.321,978.7,970.7,1041.4
321,3.647648,229.324,984.9,974.6,1046.9
324,3.502538,218.636,998.3,980.9,1046.7
327,3.23835,205.532,1005.3,984.8,1041
330,3.090688,197.31,1009.6,989.5,1031.8
333,2.908828,186.813,1012.8,995.4,1024
336,2.636816,179.195,1011.6,1000.1,1011.9
339,2.551458,169.299,999.4,1007.6,1009.4
342,2.266118,164.238,992.9,1013.1,1005.7
345,2.165329,156.216,988.2,1014.8,1003.5
348,2.003635,147.861,982.7,1022,997.7
351,1.876153,139.398,979.2,1025.1,992.5
354,1.741201,133.363,975,1027.2,988.1
357,1.621059,126.622,972.1,1025.6,985.6
360,1.507509,124.537,968.6,1018.3,981.5
363,1.362297,116.644,966.9,1016.1,976.7
366,1.281274,113.046,965.2,1015.1,976.7
369,1.138824,109.367,961.9,1009.2,974
372,0.998468,106.232,959.6,1001.8,972.2
375,0.914525,102.552,957.1,1003.7,971.9
378,0.809235,99.246,955.2,1001.2,970
381,0.748735,95.5869,953.8,1000.2,968.3
384,0.679127,94.4653,952.4,996.8,964.4
387,0.598327,93.0151,951.5,991.6,964.2
390,0.46014,91.5584,949.9,988.2,962.5
393,0.359692,90.2631,949,989.7,962.5
396,0.266996,90.0054,947,984.1,962.3
399,0.175734,86.8118,947,980.9,963.5
402,0.071747,85.6719,945.9,978.1,963.2
405,0.03796,85.8014,944.4,976.2,963.3
408,0.034553,86.1433,943.4,975.1,960.6
411,0.025035,85.2184,942.4,974,957.4
414,0.029489,81.1882,942.6,972.4,957.9
417,0.026119,80.6154,941.4,970.8,956.1
420,0.034324,79.8217,940,969.5,952
423,0.023267,81.7783,937.7,967.9,954.7
426,0.025363,82.0186,939,968.2,955.5
429,0.029602,78.8142,937.3,966.6,955.2
432,0.028899,73.8339,935.5,966.1,955.9
435,0.027223,68.6649,937.2,965.5,954.7
438,0.02841,66.3547,937,964.2,954.9
441,0.032918,64.3701,935.9,963.4,954.4
444,0.027422,63.6559,935.5,962.6,953.3
447,0.025759,62.4697,934.9,961.3,952.1
450,0.022895,61.7746,934.5,961.2,953.1
453,0.029701,64.953,934.2,959.5,949.5
456,0.03308,63.5786,931.6,958.2,948.9
459,0.030387,61.6648,932.1,957.9,948.3
462,0.029234,60.7407,932.1,956.7,950.5
465,0.032587,58.8385,930.4,955.7,947
468,0.034559,57.1726,930.8,954.2,946.2
471,0.029545,57.1463,930.7,953.2,945.3
474,0.031425,55.3567,929.8,952.7,946.2
477,0.027263,54.4492,930.5,952,944.2
480,0.02912,51.6494,929.8,951.5,945.3
483,0.02286,50.5486,929.1,950.8,944
486,0.029357,49.4442,928.6,950.9,942.3
489,0.024874,49.0883,929,950.5,943.1
492,0.027236,48.2344,928.3,949.7,945.9
495,0.02599,46.6376,928.7,949.2,946
498,0.031964,44.1117,928.1,947.6,945.1
501,0.028927,42.4203,927.6,947.4,943.5
504,0.029039,40.8691,926.5,946.7,944.5
507,0.030141,39.7135,926.9,945.9,942.7
510,0.028726,38.9432,928.1,945.3,942.1
513,0.021502,38.676,927.7,944.4,940.6
516,0.021461,37.7239,926.2,943.9,940.3
519,0.029403,37.0337,926.6,943.5,941.9
522,0.020713,35.7394,926.1,943.1,942.8
525,0.026189,35.3268,926.7,942.3,940.6
528,0.031495,34.2874,926.8,942,938.6
531,0.020748,32.4881,926.4,941.5,938.8
534,0.03104,31.9399,927.1,941,939
537,0.029713,32.0392,925.9,940.7,937.4
540,0.026861,31.0624,925,940.3,940.7
543,0.024362,29.172,925.6,940.1,938.3
546,0.027905,28.1956,925.9,939.5,938.8
549,0.02947,26.026,925.9,939,938.8
552,0.030764,24.323,925,938.2,937.9
555,0.034384,22.7427,925,937.2,939
558,0.031281,22.5193,924.8,936.8,938.9
561,0.023556,20.6296,925.4,937.4,937.2
564,0.02529,19.2628,926.7,937.7,936.6
567,0.022935,17.9328,927.1,937.6,937.6
570,0.025014,17.582,926.2,937.1,938.2
573,0.023833,17.1373,926.4,936.6,938.2
576,0.032294,17.7963,926.1,936.3,938.8
579,0.033047,16.4197,925.9,935.9,937.5
582,0.034536,16.0043,925.7,935.4,936
585,0.02037,16.5202,925.5,936.2,936
588,0.026169,17.1072,925.4,935.1,936.2
591,0.021449,15.8018,925.5,935.3,937.6
594,0.021711,15.3064,925.8,935,938.2
597,0.030753,13.399,925.8,934.5,938.9
600,0.031369,12.7362,926,935,937.4