Folder: matl-db/Non-charring/PMMA/UQ (part 4)

File: UQ_TGA_N2_1.csv
Time,Temperature,Mass
[s],[K],[mg]
0,316.651,5.2963
0.2,318.651,5.2951
0.4,320.651,5.2965
0.6,322.651,5.2976
0.8,324.651,5.2981
1,326.651,5.299
1.2,328.651,5.295
1.4,330.651,5.2983
1.6,332.651,5.2971
1.8,334.651,5.2972
2,336.651,5.2958
2.2,338.651,5.2936
2.4,340.651,5.2919
2.6,342.651,5.2916
2.8,344.651,5.2936
3,346.651,5.2931
3.2,348.651,5.2935
3.4,350.651,5.2919
3.6,352.651,5.2918
3.8,354.651,5.2944
4,356.651,5.2926
4.2,358.651,5.2925
4.4,360.651,5.2918
4.6,362.651,5.291
4.8,364.651,5.2917
5,366.651,5.2891
5.2,368.651,5.2896
5.4,370.651,5.2893
5.6,372.651,5.2897
5.8,374.651,5.2874
6,376.651,5.2871
6.2,378.651,5.2884
6.4,380.651,5.2873
6.6,382.651,5.2859
6.8,384.651,5.2852
7,386.651,5.2868
7.2,388.651,5.2861
7.4,390.651,5.2857
7.6,392.651,5.2863
7.8,394.651,5.2854
8,396.651,5.2843
8.2,398.651,5.2819
8.4,400.651,5.2813
8.6,402.651,5.28
8.8,404.651,5.279
9,406.651,5.2787
9.2,408.651,5.2766
9.4,410.651,5.2746
9.6,412.651,5.2743
9.8,414.651,5.2722
10,416.651,5.2712
10.2,418.651,5.2693
10.4,420.651,5.2683
10.6,422.651,5.2673
10.8,424.651,5.2672
11,426.651,5.2646
11.2,428.651,5.2619
11.4,430.651,5.2591
11.6,432.651,5.2553
11.8,434.651,5.2537
12,436.651,5.2506
12.2,438.651,5.2478
12.4,440.651,5.2424
12.6,442.651,5.2373
12.8,444.651,5.2335
13,446.651,5.2262
13.2,448.651,5.2202
13.4,450.651,5.2148
13.6,452.651,5.2091
13.8,454.651,5.2016
14,456.651,5.1949
14.2,458.651,5.1875
14.4,460.651,5.1814
14.6,462.651,5.1747
14.8,464.651,5.1706
15,466.651,5.1654
15.2,468.651,5.1585
15.4,470.651,5.1516
15.6,472.651,5.1451
15.8,474.651,5.1392
16,476.651,5.1339
16.2,478.651,5.1286
16.4,480.651,5.122
16.6,482.651,5.1168
16.8,484.651,5.1131
17,486.651,5.1069
17.2,488.651,5.1036
17.4,490.651,5.1023
17.6,492.651,5.0995
17.8,494.651,5.0974
18,496.651,5.0959
18.2,498.651,5.0939
18.4,500.651,5.0908
18.6,502.651,5.089
18.8,504.651,5.0869
19,506.651,5.0851
19.2,508.651,5.0851
19.4,510.651,5.0851
19.6,512.651,5.0847
19.8,514.651,5.0838
20,516.651,5.0805
20.2,518.651,5.0764
20.4,520.651,5.0747
20.6,522.651,5.0729
20.8,524.651,5.0716
21,526.651,5.0704
21.2,528.651,5.0674
21.4,530.651,5.0633
21.6,532.651,5.0613
21.8,534.651,5.0564
22,536.651,5.0515
22.2,538.651,5.047
22.4,540.651,5.042
22.6,542.651,5.0361
22.8,544.651,5.0297
23,546.651,5.0244
23.2,548.651,5.017
23.4,550.651,5.0078
23.6,552.651,4.998
23.8,554.651,4.9862
24,556.651,4.9767
24.2,558.651,4.9653
24.4,560.651,4.9538
24.6,562.651,4.941
24.8,564.651,4.9283
25,566.651,4.914
25.2,568.651,4.9008
25.4,570.651,4.8869
25.6,572.651,4.8727
25.8,574.651,4.8579
26,576.651,4.842
26.2,578.651,4.8243
26.4,580.651,4.8042
26.6,582.651,4.7826
26.8,584.651,4.7599
27,586.651,4.7331
27.2,588.651,4.7062
27.4,590.651,4.6772
27.6,592.651,4.6427
27.8,594.651,4.6018
28,596.651,4.56
28.2,598.651,4.515
28.4,600.651,4.4642
28.6,602.651,4.403
28.8,604.651,4.3334
29,606.651,4.256
29.2,608.651,4.1776
29.4,610.651,4.0888
29.6,612.651,3.9933
29.8,614.651,3.8872
30,616.651,3.7697
30.2,618.651,3.6437
30.4,620.651,3.509
30.6,622.651,3.3656
30.8,624.651,3.2168
31,626.651,3.0624
31.2,628.651,2.9005
31.4,630.651,2.7365
31.6,632.651,2.5691
31.8,634.651,2.3957
32,636.651,2.221
32.2,638.651,2.0445
32.4,640.651,1.8656
32.6,642.651,1.6918
32.8,644.651,1.5233
33,646.651,1.3604
33.2,648.651,1.2053
33.4,650.651,1.062
33.6,652.651,0.9259
33.8,654.651,0.802
34,656.651,0.695
34.2,658.651,0.5973
34.4,660.651,0.5121
34.6,662.651,0.4364
34.8,664.651,0.3766
35,666.651,0.3202
35.2,668.651,0.2721
35.4,670.651,0.2298
35.6,672.651,0.1942
35.8,674.651,0.1675
36,676.651,0.1432
36.2,678.651,0.1221
36.4,680.651,0.1059
36.6,682.651,0.0917
36.8,684.651,0.0791
37,686.651,0.0683
37.2,688.651,0.0598
37.4,690.651,0.0521
37.6,692.651,0.046
37.8,694.651,0.0389
38,696.651,0.0339
38.2,698.651,0.0286
38.4,700.651,0.0248
38.6,702.651,0.0228
38.8,704.651,0.0228
39,706.651,0.0228
39.2,708.651,0.0228
39.4,710.651,0.0228
39.6,712.651,0.0228
39.8,714.651,0.0226
40,716.651,0.0222
40.2,718.651,0.0219
40.4,720.651,0.0216
40.6,722.651,0.0212
40.8,724.651,0.0208
41,726.651,0.0207
41.2,728.651,0.0207
41.4,730.651,0.0207
41.6,732.651,0.0207
41.8,734.651,0.0207
42,736.651,0.0207
42.2,738.651,0.0207
42.4,740.651,0.0207
42.6,742.651,0.0207
42.8,744.651,0.0206
43,746.651,0.0204
43.2,748.651,0.0203
43.4,750.651,0.0202

File: UQ_TGA_N2_2.csv
Time,Temperature,Mass
[min],[K],[mg]
0,316.797,5.092
0.2,318.797,5.0921
0.4,320.797,5.0966
0.6,322.797,5.0985
0.8,324.797,5.0986
1,326.797,5.0983
1.2,328.797,5.0981
1.4,330.797,5.0975
1.6,332.797,5.097
1.8,334.797,5.0973
2,336.797,5.096
2.2,338.797,5.0945
2.4,340.797,5.0936
2.6,342.797,5.0943
2.8,344.797,5.0954
3,346.797,5.096
3.2,348.797,5.0962
3.4,350.797,5.094
3.6,352.797,5.0936
3.8,354.797,5.0938
4,356.797,5.0937
4.2,358.797,5.0942
4.4,360.797,5.0936
4.6,362.797,5.094
4.8,364.797,5.0948
5,366.797,5.0931
5.2,368.797,5.0944
5.4,370.797,5.0954
5.6,372.797,5.0963
5.8,374.797,5.094
6,376.797,5.0931
6.2,378.797,5.093
6.4,380.797,5.0915
6.6,382.797,5.0895
6.8,384.797,5.089
7,386.797,5.0889
7.2,388.797,5.0885
7.4,390.797,5.0868
7.6,392.797,5.0867
7.8,394.797,5.0856
8,396.797,5.0853
8.2,398.797,5.0863
8.4,400.797,5.0841
8.6,402.797,5.0822
8.8,404.797,5.0827
9,406.797,5.0835
9.2,408.797,5.0809
9.4,410.797,5.0781
9.6,412.797,5.0775
9.8,414.797,5.0752
10,416.797,5.0747
10.2,418.797,5.0733
10.4,420.797,5.0726
10.6,422.797,5.0718
10.8,424.797,5.0717
11,426.797,5.0689
11.2,428.797,5.068
11.4,430.797,5.0659
11.6,432.797,5.0617
11.8,434.797,5.0585
12,436.797,5.0558
12.2,438.797,5.0527
12.4,440.797,5.0479
12.6,442.797,5.0435
12.8,444.797,5.0376
13,446.797,5.0305
13.2,448.797,5.0251
13.4,450.797,5.0205
13.6,452.797,5.014
13.8,454.797,5.008
14,456.797,5.0023
14.2,458.797,4.9952
14.4,460.797,4.9881
14.6,462.797,4.9817
14.8,464.797,4.977
15,466.797,4.9719
15.2,468.797,4.9671
15.4,470.797,4.9606
15.6,472.797,4.9536
15.8,474.797,4.9479
16,476.797,4.942
16.2,478.797,4.9373
16.4,480.797,4.9324
16.6,482.797,4.9268
16.8,484.797,4.9229
17,486.797,4.9185
17.2,488.797,4.9154
17.4,490.797,4.9137
17.6,492.797,4.9118
17.8,494.797,4.9097
18,496.797,4.9074
18.2,498.797,4.9048
18.4,500.797,4.9025
18.6,502.797,4.9008
18.8,504.797,4.8983
19,506.797,4.8966
19.2,508.797,4.8966
19.4,510.797,4.8966
19.6,512.797,4.8964
19.8,514.797,4.8957
20,516.797,4.8928
20.2,518.797,4.8904
20.4,520.797,4.8889
20.6,522.797,4.8868
20.8,524.797,4.8851
21,526.797,4.8827
21.2,528.797,4.8797
21.4,530.797,4.8762
21.6,532.797,4.8738
21.8,534.797,4.8685
22,536.797,4.8653
22.2,538.797,4.861
22.4,540.797,4.8563
22.6,542.797,4.8507
22.8,544.797,4.8458
23,546.797,4.8404
23.2,548.797,4.8331
23.4,550.797,4.8229
23.6,552.797,4.814
23.8,554.797,4.8053
24,556.797,4.7949
24.2,558.797,4.7849
24.4,560.797,4.774
24.6,562.797,4.7624
24.8,564.797,4.7513
25,566.797,4.7386
25.2,568.797,4.7243
25.4,570.797,4.7102
25.6,572.797,4.6974
25.8,574.797,4.6829
26,576.797,4.6675
26.2,578.797,4.6517
26.4,580.797,4.6308
26.6,582.797,4.6123
26.8,584.797,4.591
27,586.797,4.5677
27.2,588.797,4.5403
27.4,590.797,4.5102
27.6,592.797,4.4782
27.8,594.797,4.4362
28,596.797,4.3943
28.2,598.797,4.3505
28.4,600.797,4.3014
28.6,602.797,4.2448
28.8,604.797,4.1664
29,606.797,4.0986
29.2,608.797,4.0134
29.4,610.797,3.9256
29.6,612.797,3.8291
29.8,614.797,3.7209
30,616.797,3.6039
30.2,618.797,3.4804
30.4,620.797,3.3459
30.6,622.797,3.2062
30.8,624.797,3.0569
31,626.797,2.9024
31.2,628.797,2.7467
31.4,630.797,2.5834
31.6,632.797,2.4197
31.8,634.797,2.2578
32,636.797,2.0869
32.2,638.797,1.9217
32.4,640.797,1.7554
32.6,642.797,1.5889
32.8,644.797,1.4293
33,646.797,1.273
33.2,648.797,1.1292
33.4,650.797,0.9943
33.6,652.797,0.8686
33.8,654.797,0.7561
34,656.797,0.653
34.2,658.797,0.5613
34.4,660.797,0.4808
34.6,662.797,0.4118
34.8,664.797,0.3496
35,666.797,0.2981
35.2,668.797,0.2515
35.4,670.797,0.2121
35.6,672.797,0.1811
35.8,674.797,0.1539
36,676.797,0.1308
36.2,678.797,0.1118
36.4,680.797,0.0973
36.6,682.797,0.0829
36.8,684.797,0.07
37,686.797,0.0617
37.2,688.797,0.0527
37.4,690.797,0.0472
37.6,692.797,0.0409
37.8,694.797,0.0342
38,696.797,0.0282
38.2,698.797,0.0243
38.4,700.797,0.0212
38.6,702.797,0.0202
38.8,704.797,0.019
39,706.797,0.019
39.2,708.797,0.019
39.4,710.797,0.019
39.6,712.797,0.019
39.8,714.797,0.019
40,716.797,0.019
40.2,718.797,0.019
40.4,720.797,0.019
40.6,722.797,0.019
40.8,724.797,0.019
41,726.797,0.019
41.2,728.797,0.019
41.4,730.797,0.019
41.6,732.797,0.019
41.8,734.797,0.019
42,736.797,0.019
42.2,738.797,0.0189
42.4,740.797,0.0188
42.6,742.797,0.0187
42.8,744.797,0.0186
43,746.797,0.0185
43.2,748.797,0.0184
43.4,750.797,0.0183

File: UQ_TGA_N2_3.csv
Time,Temperature,Mass
[s],[K],[mg]
0,316.816,5.5945
0.4,320.816,5.5967
0.8,324.816,5.5995
1.2,328.816,5.5993
1.6,332.816,5.5992
2,336.816,5.5973
2.4,340.816,5.5945
2.8,344.816,5.5968
3.2,348.816,5.5984
3.6,352.816,5.5957
4,356.816,5.5942
4.4,360.816,5.5951
4.8,364.816,5.5942
5.2,368.816,5.5922
5.6,372.816,5.594
6,376.816,5.5902
6.4,380.816,5.5906
6.8,384.816,5.5867
7.2,388.816,5.5882
7.6,392.816,5.5882
8,396.816,5.5864
8.4,400.816,5.5822
8.8,404.816,5.5807
9.2,408.816,5.5791
9.6,412.816,5.5764
10,416.816,5.5728
10.4,420.816,5.57
10.8,424.816,5.5669
11.2,428.816,5.5614
11.6,432.816,5.5577
12,436.816,5.5513
12.4,440.816,5.5415
12.8,444.816,5.5295
13.2,448.816,5.5136
13.6,452.816,5.501
14,456.816,5.4878
14.4,460.816,5.4732
14.8,464.816,5.4627
15.2,468.816,5.4503
15.6,472.816,5.438
16,476.816,5.4245
16.4,480.816,5.4151
16.8,484.816,5.4058
17.2,488.816,5.3991
17.6,492.816,5.3938
18,496.816,5.3896
18.4,500.816,5.3848
18.8,504.816,5.3789
19.2,508.816,5.3768
19.6,512.816,5.3751
20,516.816,5.3721
20.4,520.816,5.3683
20.8,524.816,5.3643
21.2,528.816,5.3598
21.6,532.816,5.3515
22,536.816,5.342
22.4,540.816,5.3324
22.8,544.816,5.321
23.2,548.816,5.3083
23.6,552.816,5.2888
24,556.816,5.2667
24.4,560.816,5.2448
24.8,564.816,5.219
25.2,568.816,5.1899
25.6,572.816,5.1609
26,576.816,5.1262
26.4,580.816,5.0868
26.8,584.816,5.0398
27.2,588.816,4.9861
27.6,592.816,4.915
28,596.816,4.8331
28.4,600.816,4.7319
28.8,604.816,4.5904
29.2,608.816,4.4291
29.6,612.816,4.2377
30,616.816,4.0056
30.4,620.816,3.739
30.8,624.816,3.4373
31.2,628.816,3.1145
31.6,632.816,2.7691
32,636.816,2.4077
32.4,640.816,2.0347
32.8,644.816,1.6608
33.2,648.816,1.314
33.6,652.816,0.9938
34,656.816,0.7342
34.4,660.816,0.5324
34.8,664.816,0.3823
35.2,668.816,0.278
35.6,672.816,0.1986
36,676.816,0.1445
36.4,680.816,0.1078
36.8,684.816,0.0814
37.2,688.816,0.0616
37.6,692.816,0.049
38,696.816,0.0383
38.4,700.816,0.0316
38.8,704.816,0.0292
39.2,708.816,0.0266
39.6,712.816,0.0266
40,716.816,0.0266
40.4,720.816,0.0266
40.8,724.816,0.0266
41.2,728.816,0.0262
41.6,732.816,0.0257
42,736.816,0.0265
42.4,740.816,0.0269
42.8,744.816,0.0271
43.2,748.816,0.0271
43.6,752.816,0.0271
44,756.816,0.0271
44.4,760.816,0.0271
44.8,764.816,0.027
45.2,768.816,0.0251
45.6,772.816,0.0247
46,776.816,0.0233
46.4,780.816,0.0228
46.8,784.816,0.0225
47.2,788.816,0.0228
47.6,792.816,0.0218
48,796.816,0.0204
48.4,800.816,0.0195
48.8,804.816,0.0186
49.2,808.816,0.0174
49.6,812.816,0.0174
50,816.816,0.0199
50.4,820.816,0.0185
50.8,824.816,0.0179
51.2,828.816,0.0194
51.6,832.816,0.0209
52,836.816,0.0187
52.4,840.816,0.0195
52.8,844.816,0.0207
53.2,848.816,0.0215
53.6,852.816,0.0215
54,856.816,0.022
54.4,860.816,0.0224
54.8,864.816,0.0209
55.2,868.816,0.0185
55.6,872.816,0.0183
56,876.816,0.0184
56.4,880.816,0.0184
56.8,884.816,0.0164
57.2,888.816,0.0171
57.6,892.816,0.0172
58,896.816,0.017
58.4,900.816,0.0163
58.8,904.816,0.0148
59.2,908.816,0.0152
59.6,912.816,0.0153
60,916.816,0.014
60.4,920.816,0.014
60.8,924.816,0.0151
61.2,928.816,0.0149
61.6,932.816,0.0139
62,936.816,0.0132
62.4,940.816,0.0127
62.8,944.816,0.0128
63.2,948.816,0.0117
63.6,952.816,0.0117
64,956.816,0.0117
64.4,960.816,0.0117
64.8,964.816,0.0113
65.2,968.816,0.0104
65.6,972.816,0.0089
66,976.816,0.0076
66.4,980.816,0.0065
66.8,984.816,0.0071
67.2,988.816,0.0082
67.6,992.816,0.007
68,996.816,0.0053
68.4,1000.816,0.0072
68.8,1004.816,0.0084
69.2,1008.816,0.0088
69.6,1012.816,0.0092
70,1016.816,0.0075
70.4,1020.816,0.007
70.8,1024.816,0.0068
71.2,1028.816,0.0073
71.6,1032.816,0.0057
72,1036.816,0.0059
72.4,1040.816,0.0057
72.8,1044.816,0.0062
73.2,1048.816,0.0067
73.6,1052.816,0.0068
74,1056.816,0.007
74.4,1060.816,0.0066
74.8,1064.816,0.0061
75.2,1068.816,0.0062
75.6,1072.816,0.0065
76,1076.816,0.0053
76.4,1080.816,0.0057
76.8,1084.816,0.0092
77.2,1088.816,0.0078
77.6,1092.816,0.0035
78,1096.816,0.0037
78.4,1100.816,0.0046
78.8,1104.816,0.0046
79.2,1108.816,0.0041
79.6,1112.816,0.0035
80,1116.816,0.003
80.4,1120.816,0.0025
80.8,1124.816,0.0025
81.2,1128.816,0.0037
81.6,1132.816,0.0037
82,1136.816,0.0033
82.4,1140.816,0.003
82.8,1144.816,0.0029
83.2,1148.816,0.0027
83.6,1152.816,0.003
84,1156.816,0.0019
84.4,1160.816,0.001
84.8,1164.816,0.0004
85.2,1168.816,0
85.6,1172.816,0.002
86,1176.816,0.0045
86.4,1180.816,0.0046
86.8,1184.816,0.0042
87.2,1188.816,0.004
87.6,1192.816,0.0025
88,1196.816,0.003
88.4,1200.816,0.0004
88.8,1204.816,0.001
89.2,1208.816,0.0003
89.6,1212.816,0.0019
90,1216.816,0.0027
90.4,1220.816,0.0041
90.5,1221.816,0.004

File: UQ_TGA_N2_10K_1.csv
Time,Temperature,Mass
[s],[K],[mg]
0,316.651,5.2963
12,318.651,5.2951
24,320.651,5.2965
36,322.651,5.2976
48,324.651,5.2981
60,326.651,5.299
72,328.651,5.295
84,330.651,5.2983
96,332.651,5.2971
108,334.651,5.2972
120,336.651,5.2958
132,338.651,5.2936
144,340.651,5.2919
156,342.651,5.2916
168,344.651,5.2936
180,346.651,5.2931
192,348.651,5.2935
204,350.651,5.2919
216,352.651,5.2918
228,354.651,5.2944
240,356.651,5.2926
252,358.651,5.2925
264,360.651,5.2918
276,362.651,5.291
288,364.651,5.2917
300,366.651,5.2891
312,368.651,5.2896
324,370.651,5.2893
336,372.651,5.2897
348,374.651,5.2874
360,376.651,5.2871
372,378.651,5.2884
384,380.651,5.2873
396,382.651,5.2859
408,384.651,5.2852
420,386.651,5.2868
432,388.651,5.2861
444,390.651,5.2857
456,392.651,5.2863
468,394.651,5.2854
480,396.651,5.2843
492,398.651,5.2819
504,400.651,5.2813
516,402.651,5.28
528,404.651,5.279
540,406.651,5.2787
552,408.651,5.2766
564,410.651,5.2746
576,412.651,5.2743
588,414.651,5.2722
600,416.651,5.2712
612,418.651,5.2693
624,420.651,5.2683
636,422.651,5.2673
648,424.651,5.2672
660,426.651,5.2646
672,428.651,5.2619
684,430.651,5.2591
696,432.651,5.2553
708,434.651,5.2537
720,436.651,5.2506
732,438.651,5.2478
744,440.651,5.2424
756,442.651,5.2373
768,444.651,5.2335
780,446.651,5.2262
792,448.651,5.2202
804,450.651,5.2148
816,452.651,5.2091
828,454.651,5.2016
840,456.651,5.1949
852,458.651,5.1875
864,460.651,5.1814
876,462.651,5.1747
888,464.651,5.1706
900,466.651,5.1654
912,468.651,5.1585
924,470.651,5.1516
936,472.651,5.1451
948,474.651,5.1392
960,476.651,5.1339
972,478.651,5.1286
984,480.651,5.122
996,482.651,5.1168
1008,484.651,5.1131
1020,486.651,5.1069
1032,488.651,5.1036
1044,490.651,5.1023
1056,492.651,5.0995
1068,494.651,5.0974
1080,496.651,5.0959
1092,498.651,5.0939
1104,500.651,5.0908
1116,502.651,5.089
1128,504.651,5.0869
1140,506.651,5.0851
1152,508.651,5.0851
1164,510.651,5.0851
1176,512.651,5.0847
1188,514.651,5.0838
1200,516.651,5.0805
1212,518.651,5.0764
1224,520.651,5.0747
1236,522.651,5.0729
1248,524.651,5.0716
1260,526.651,5.0704
1272,528.651,5.0674
1284,530.651,5.0633
1296,532.651,5.0613
1308,534.651,5.0564
1320,536.651,5.0515
1332,538.651,5.047
1344,540.651,5.042
1356,542.651,5.0361
1368,544.651,5.0297
1380,546.651,5.0244
1392,548.651,5.017
1404,550.651,5.0078
1416,552.651,4.998
1428,554.651,4.9862
1440,556.651,4.9767
1452,558.651,4.9653
1464,560.651,4.9538
1476,562.651,4.941
1488,564.651,4.9283
1500,566.651,4.914
1512,568.651,4.9008
1524,570.651,4.8869
1536,572.651,4.8727
1548,574.651,4.8579
1560,576.651,4.842
1572,578.651,4.8243
1584,580.651,4.8042
1596,582.651,4.7826
1608,584.651,4.7599
1620,586.651,4.7331
1632,588.651,4.7062
1644,590.651,4.6772
1656,592.651,4.6427
1668,594.651,4.6018
1680,596.651,4.56
1692,598.651,4.515
1704,600.651,4.4642
1716,602.651,4.403
1728,604.651,4.3334
1740,606.651,4.256
1752,608.651,4.1776
1764,610.651,4.0888
1776,612.651,3.9933
1788,614.651,3.8872
1800,616.651,3.7697
1812,618.651,3.6437
1824,620.651,3.509
1836,622.651,3.3656
1848,624.651,3.2168
1860,626.651,3.0624
1872,628.651,2.9005
1884,630.651,2.7365
1896,632.651,2.5691
1908,634.651,2.3957
1920,636.651,2.221
1932,638.651,2.0445
1944,640.651,1.8656
1956,642.651,1.6918
1968,644.651,1.5233
1980,646.651,1.3604
1992,648.651,1.2053
2004,650.651,1.062
2016,652.651,0.9259
2028,654.651,0.802
2040,656.651,0.695
2052,658.651,0.5973
2064,660.651,0.5121
2076,662.651,0.4364
2088,664.651,0.3766
2100,666.651,0.3202
2112,668.651,0.2721
2124,670.651,0.2298
2136,672.651,0.1942
2148,674.651,0.1675
2160,676.651,0.1432
2172,678.651,0.1221
2184,680.651,0.1059
2196,682.651,0.0917
2208,684.651,0.0791
2220,686.651,0.0683
2232,688.651,0.0598
2244,690.651,0.0521
2256,692.651,0.046
2268,694.651,0.0389
2280,696.651,0.0339
2292,698.651,0.0286
2304,700.651,0.0248
2316,702.651,0.0228
2328,704.651,0.0228
2340,706.651,0.0228
2352,708.651,0.0228
2364,710.651,0.0228
2376,712.651,0.0228
2388,714.651,0.0226
2400,716.651,0.0222
2412,718.651,0.0219
2424,720.651,0.0216
2436,722.651,0.0212
2448,724.651,0.0208
2460,726.651,0.0207
2472,728.651,0.0207
2484,730.651,0.0207
2496,732.651,0.0207
2508,734.651,0.0207
2520,736.651,0.0207
2532,738.651,0.0207
2544,740.651,0.0207
2556,742.651,0.0207
2568,744.651,0.0206
2580,746.651,0.0204
2592,748.651,0.0203
2604,750.651,0.0202

File: UQ_TGA_O2-21_10K_2.csv
Time,Temperature,Mass
[s],[K],[mg]
0,316.497,5.1344
12,318.497,5.1326
24,320.497,5.1317
36,322.497,5.1321
48,324.497,5.1346
60,326.497,5.1423
72,328.497,5.1522
84,330.497,5.1609
96,332.497,5.1718
108,334.497,5.1796
120,336.497,5.1856
132,338.497,5.1913
144,340.497,5.1945
156,342.497,5.1984
168,344.497,5.1986
180,346.497,5.1991
192,348.497,5.1989
204,350.497,5.1955
216,352.497,5.1952
228,354.497,5.1923
240,356.497,5.1909
252,358.497,5.1918
264,360.497,5.1914
276,362.497,5.1889
288,364.497,5.1883
300,366.497,5.1902
312,368.497,5.1882
324,370.497,5.1878
336,372.497,5.1897
348,374.497,5.1902
360,376.497,5.1901
372,378.497,5.1912
384,380.497,5.195
396,382.497,5.1989
408,384.497,5.1938
420,386.497,5.1916
432,388.497,5.1924
444,390.497,5.1958
456,392.497,5.1981
468,394.497,5.1948
480,396.497,5.193
492,398.497,5.1918
504,400.497,5.191
516,402.497,5.1935
528,404.497,5.1937
540,406.497,5.1928
552,408.497,5.1923
564,410.497,5.1911
576,412.497,5.1905
588,414.497,5.1897
600,416.497,5.1896
612,418.497,5.1892
624,420.497,5.1881
636,422.497,5.1881
648,424.497,5.1881
660,426.497,5.1881
672,428.497,5.1917
684,430.497,5.1903
696,432.497,5.1869
708,434.497,5.1855
720,436.497,5.1853
732,438.497,5.1837
744,440.497,5.1838
756,442.497,5.186
768,444.497,5.1843
780,446.497,5.1821
792,448.497,5.18
804,450.497,5.1789
816,452.497,5.1771
828,454.497,5.1785
840,456.497,5.1773
852,458.497,5.1779
864,460.497,5.1782
876,462.497,5.177
888,464.497,5.1763
900,466.497,5.1762
912,468.497,5.1749
924,470.497,5.1734
936,472.497,5.1743
948,474.497,5.1757
960,476.497,5.1764
972,478.497,5.1764
984,480.497,5.1757
996,482.497,5.1763
1008,484.497,5.1766
1020,486.497,5.1763
1032,488.497,5.1749
1044,490.497,5.174
1056,492.497,5.1743
1068,494.497,5.1744
1080,496.497,5.1741
1092,498.497,5.1756
1104,500.497,5.1771
1116,502.497,5.1761
1128,504.497,5.1763
1140,506.497,5.1767
1152,508.497,5.1767
1164,510.497,5.1764
1176,512.497,5.1755
1188,514.497,5.1757
1200,516.497,5.1739
1212,518.497,5.1716
1224,520.497,5.1716
1236,522.497,5.1716
1248,524.497,5.1698
1260,526.497,5.1697
1272,528.497,5.1675
1284,530.497,5.1655
1296,532.497,5.1611
1308,534.497,5.1547
1320,536.497,5.1492
1332,538.497,5.1405
1344,540.497,5.1305
1356,542.497,5.1171
1368,544.497,5.1035
1380,546.497,5.0868
1392,548.497,5.0656
1404,550.497,5.0462
1416,552.497,5.0301
1428,554.497,5.0096
1440,556.497,4.9892
1452,558.497,4.9701
1464,560.497,4.9467
1476,562.497,4.9161
1488,564.497,4.883
1500,566.497,4.8519
1512,568.497,4.805
1524,570.497,4.7549
1536,572.497,4.6816
1548,574.497,4.6026
1560,576.497,4.4985
1572,578.497,4.3704
1584,580.497,4.2322
1596,582.497,4.0882
1608,584.497,3.9428
1620,586.497,3.7766
1632,588.497,3.6165
1644,590.497,3.4433
1656,592.497,3.2787
1668,594.497,3.1189
1680,596.497,2.9181
1692,598.497,2.6886
1704,600.497,2.4545
1716,602.497,2.2273
1728,604.497,2.0028
1740,606.497,1.7861
1752,608.497,1.5896
1764,610.497,1.4099
1776,612.497,1.2606
1788,614.497,1.1246
1800,616.497,0.995
1812,618.497,0.8819
1824,620.497,0.7849
1836,622.497,0.7007
1848,624.497,0.627
1860,626.497,0.5665
1872,628.497,0.5128
1884,630.497,0.4592
1896,632.497,0.4195
1908,634.497,0.3812
1920,636.497,0.3413
1932,638.497,0.3067
1944,640.497,0.2755
1956,642.497,0.2495
1968,644.497,0.2224
1980,646.497,0.2023
1992,648.497,0.1829
2004,650.497,0.1651
2016,652.497,0.1477
2028,654.497,0.1339
2040,656.497,0.1214
2052,658.497,0.1042
2064,660.497,0.0919
2076,662.497,0.0803
2088,664.497,0.0718
2100,666.497,0.0627
2112,668.497,0.053
2124,670.497,0.0455
2136,672.497,0.0363
2148,674.497,0.0282
2160,676.497,0.0234
2172,678.497,0.02
2184,680.497,0.0177
2196,682.497,0.0125
2208,684.497,0.0128
2220,686.497,0.0118
2232,688.497,0.0101
2244,690.497,0.0092
2256,692.497,0.0085
2268,694.497,0.0062
2280,696.497,0.0057
2292,698.497,0.0054
2304,700.497,0.0071
2316,702.497,0.0075
2328,704.497,0.0069
2340,706.497,0.0062
2352,708.497,0.0045
2364,710.497,0.0019
2376,712.497,0.0069
2388,714.497,0.0066
2400,716.497,0.0053
2412,718.497,0.0052
2424,720.497,0.004
2436,722.497,0.0037
2448,724.497,0.0036
2460,726.497,0.0035
2472,728.497,0.0048
2484,730.497,0.0031
2496,732.497,0
2508,734.497,0.0026
2520,736.497,0.0054
2532,738.497,0.0055
2544,740.497,0.0041
2556,742.497,0.0038
2568,744.497,0.0038
2580,746.497,0.0038
2592,748.497,0.0036
2604,750.497,0.0033