Folder: matl-db/Wood/Material_Properties

Note: Wood/README.md
# Pine Wood

This folder holds measurement data, calibrated material property datasets, and results of numerical simulations related to the anaerobic pyrolysis of pine wood. 

Note: the identification of any commercial product or trade name does not imply endorsement or recommendation by the National Institute of Standards and Technology, NIST (or any other contributing institution).

|Folder Name| Description|
|---|---|
|Calibration_Data| Experimental measurements (e.g., TGA, DSC, Cone Calorimeter) used for pyrolysis model calibration (i.e., material property determination)|
|Calibration_Results|Results of numerical simulations demonstrating the ability of proposed material property sets to accurately *reproduce* relevant model calibration data|
|Computational_Results|Model predictions of sample decomposition in response to idealized zero- and one-dimensional heating scenarios (used for model to model comparison)|
|Material_Properties|Pyrolysis models (i.e., material property sets) organized in a standard .json format|
|Validation_Data|Experimental Measurements (sample mass loss and back surface temperature rise during anaerobic gasification of 'MaCFP-Wood' under external thermal radiation) for Pyrolysis Model Validation |
|Validation_Results|Results of numerical simulations demonstrating the ability of proposed material property sets to *predict* measured material decomposition behavior (used for model validation)|

File: Wood_INSTITUTE-X.json
{
    "Material": "MaCFP Wood",

    "Lab": "INSTITUTE X",

    "Calibration": [
        {
            "Model": "ThermaKin",
            "Method": "Hill Climbing Optimization",
            "Scope": "Kinetics",
            "Data": {
                "Type": "TGA",
                "Heating Rate": 10,
                "Source": "UMD"
            }
        },
        {
            "Model": "FACT",
            "Method": "FACT-dsc_fit",
            "Scope": [
                "Heat Capcity",
                "Heat of Pyrolysis"
            ],
            "Data": {
                "Type": "DSC",
                "Heating Rate": 10,
                "Source": "NIST"
            }
        },
        {
            "Model": "FDS",
            "Method": "Direct Analysis",
            "Scope": "Combustion",
            "Data": {
                "Type": "MCC",
                "Heating Rate": 60,
                "Source": "NIST"
            }
        },
        {
            "Method": "Direct Measurement",
            "Scope": "Density"
        },
        {
            "Method": "Literature",
            "Scope": [
                "Absorption",
                "Emissivity",
                "Conductivity"
            ]
        }
    ],

    "Composition": {
        "Number of Components": 3,
        "Initial Mass Fraction": [0.035, 0.955, 0.01]
    },

    "Kinetics": {
        "Reactants": [ [1], [2] ],
        "Products": [ [0], [0] ],
        "Pre-exponential": [5.81e5,4.05e11],
        "Activation Energy": [7.13e4,1.68e5],
        "Reaction Order": [1, 1],
        "Solid Yield": [0, 0]
    },

    "Thermodynamics": {
        "Heat Capacity": {
            "Form": "Table",
            "Temperatures": [308.15, 313.15, 373.15, 413.15],
            "Values": [1800, 1700, 1600, 1400]
        },
        "Heat of Pyrolysis": {
            "Form": "Reaction Specific",
            "Value": [1.74e6, 9.14e5]
        },
        "Density": {
            "Form": "Single Value",
            "Value": 1177
        }
    },

    "Combustion": {
        "Heat of Combustion": {
            "Form": "Reaction Specific",
            "Value": [3.82e7, 2.32e7]
        }
    },

    "Transport": {
        "Conductivity": {
            "Form": "Table",
            "Temperatures": [293.05, 298.05, 302.95,
                            307.85, 312.75, 317.75,
                            322.65, 327.55, 332.45,
                            337.35],
            "Values": [0.17331, 0.17384, 0.17402,
                      0.17448, 0.17609, 0.17784,
                      0.17862, 0.17821, 0.17775,
                      0.17770]
        },
        "Absorption": {
            "Form": "Single Value",
            "Value": 2620
        },
        "Emissivity": {
            "Form": "Single Value",
            "Value": 0.963
        }
    }

}