Folder: matl-db/PMMA/Validation_Results/DBI/csv_files_calibrated (part 2)

File: DBI-cal_Gasification_q50_MLR_R5.csv
Time,MLR
[s],[g/m2/s]
0,0
2,6.47992E-07
4.01,9.07189E-06
6.01,0.000107836
8.01,0.00071912
10.01,0.003284438
12.01,0.011465
14.01,0.0327229
16.01,0.0797007
18,0.171651
20,0.332545
22,0.590158
24,0.968294
26,1.48057
28,2.12418
30,2.87809
32,3.70714
34,4.57005
36,5.42867
38,6.255
40,7.03196
42,7.75137
44.01,8.40518
46.01,9.0007
48.01,9.5468
50.01,10.0537
52.01,10.5208
54.01,10.9491
56.01,11.3428
58.01,11.7044
60.01,12.0378
62.01,12.3503
64.01,12.6461
66.01,12.9224
68.01,13.1794
70.01,13.4173
72.01,13.6392
74,13.8594
76,14.0725
78,14.2708
80,14.4587
82,14.6389
84,14.8224
86,15.0086
88,15.1795
90,15.3343
92,15.4934
94,15.6614
96,15.8212
98,15.9688
100,16.1135
102,16.2599
104,16.4053
106,16.5493
108,16.6906
110,16.8283
112,16.9638
114,17.0945
116,17.2212
118,17.3499
120,17.4815
122,17.6234
124,17.7783
126,17.9245
128,18.0557
130,18.1854
132,18.3195
134,18.4554
136,18.5884
138,18.7207
140,18.8545
142,18.9883
144,19.1212
146,19.2543
148,19.3887
150,19.5244
152,19.6598
154,19.793
156,19.9207
158,20.0444
160.01,20.1746
162.01,20.3214
164.01,20.4713
166.01,20.617
168.01,20.7609
170.01,20.9007
172.01,21.0381
174.01,21.1734
176.01,21.3081
178.01,21.4474
180.01,21.5919
182.01,21.7401
184.01,21.8919
186.01,22.0388
188.01,22.1775
190.01,22.313
192.01,22.4505
194.01,22.5914
196.01,22.7341
198.01,22.878
200.01,23.0209
202.01,23.161
204.01,23.2964
206.01,23.4282
208.01,23.5676
210.01,23.7208
212.01,23.8765
214.01,24.0146
216.01,24.1392
218.01,24.2672
220.01,24.3989
222.01,24.5295
224.01,24.6603
226.01,24.7916
228.01,24.919
230.01,25.0442
232.01,25.1696
234.01,25.2865
236.01,25.3957
238.01,25.4974
240.01,25.5868
242.01,25.6834
244.01,25.795
246.01,25.909
248.01,26.0098
250.01,26.0942
252.01,26.1822
254.01,26.2713
256.01,26.3476
258.01,26.417
260.01,26.4863
262.01,26.5572
264.01,26.6306
266.01,26.7072
268.01,26.7868
270.01,26.8618
272.01,26.9218
274.01,26.9737
276.01,27.0276
278.01,27.076
280.01,27.1151
282.01,27.1551
284.01,27.1971
286.01,27.2457
288.01,27.309
290.01,27.3818
292.01,27.4587
294.01,27.556
296.01,27.7388
298.01,27.8796
300.01,27.9334
302.01,27.9801
304.01,27.9982
306.01,28.0258
308.01,28.0566
310.01,28.0713
312.01,28.0884
314.01,28.0978
316.01,28.0903
318.01,28.0747
320.01,28.0599
322.01,28.0505
324.01,28.0616
326.01,28.0571
328.01,28.0057
330.01,27.9597
332.01,27.9336
334.01,27.8803
336.01,27.8117
338.01,27.7524
340.01,27.6478
342.01,27.4988
344.01,27.3872
346.01,27.2323
348.01,27.0011
350.01,26.789
352.01,26.5253
354.01,26.2129
356.01,25.8413
358.01,25.3974
360.01,24.8097
362.01,24.1061
364.01,23.3608
366.01,22.2976
368.01,20.5799
370.01,17.6882
372.01,12.919
374.01,5.75585
376.01,0.764213
378.01,0
380.01,0
382.01,0
384.01,0
386.01,0
388.01,0
390.01,0
392.01,0
394.01,0
396.01,0
398.01,0
400.01,0
402.01,0
404.01,0
406.01,0
408.01,0
410.01,0
412.01,0
414.01,0
416.01,0
418.01,0
420.01,0
422.01,0
424.01,0
426.01,0
428.01,0
430.01,0
432.01,0
434.01,0
436.01,0
438.01,0
440.01,0
442.01,0
444.01,0
446.01,0
448.01,0
450.01,0
452.01,0
454.01,0
456.01,0
458.01,0
460.01,0
462.01,0
464.01,0
466.01,0
468.01,0
470.01,0
472.01,0
474.01,0
476.01,0
478.01,0
480.01,0
482.01,0
484.01,0
486.01,0
488.01,0
490.01,0
492.01,0
494.01,0
496.01,0
498.01,0
500,0

File: DBI-cal_Gasification_q50_Temp_R3.csv
Time,Temp
[s],[K]
0,298.15
2,298.15
4.01,298.15
6.01,298.15
8.01,298.15
10.01,298.151
12.01,298.153
14.01,298.163
16.01,298.19
18,298.248
20,298.356
22,298.534
24,298.804
26,299.184
28,299.692
30,300.344
32,301.15
34,302.12
36,303.261
38,304.576
40,306.068
42,307.739
44.01,309.606
46.01,311.67
48.01,313.895
50.01,316.241
52.01,318.696
54.01,321.252
56.01,323.899
58.01,326.632
60.01,329.444
62.01,332.331
64.01,335.286
66.01,338.298
68.01,341.361
70.01,344.466
72.01,347.608
74,350.765
76,353.962
78,357.18
80,360.413
82,363.658
84,366.91
86,370.168
88,373.427
90,376.686
92,379.941
94,383.191
96,386.434
98,389.669
100,392.893
102,396.107
104,399.307
106,402.495
108,405.671
110,408.833
112,411.98
114,415.112
116,418.227
118,421.326
120,424.407
122,427.47
124,430.516
126,433.543
128,436.552
130,439.543
132,442.515
134,445.469
136,448.403
138,451.318
140,454.214
142,457.09
144,459.947
146,462.784
148,465.601
150,468.398
152,471.174
154,473.93
156,476.665
158,479.379
160.01,482.077
162.01,484.753
164.01,487.401
166.01,490.027
168.01,492.629
170.01,495.208
172.01,497.765
174.01,500.298
176.01,502.807
178.01,505.291
180.01,507.751
182.01,510.185
184.01,512.593
186.01,514.975
188.01,517.331
190.01,519.658
192.01,521.959
194.01,524.231
196.01,526.474
198.01,528.689
200.01,530.875
202.01,533.031
204.01,535.157
206.01,537.253
208.01,539.318
210.01,541.353
212.01,543.356
214.01,545.331
216.01,547.273
218.01,549.186
220.01,551.068
222.01,552.921
224.01,554.744
226.01,556.538
228.01,558.305
230.01,560.044
232.01,561.757
234.01,563.444
236.01,565.108
238.01,566.748
240.01,568.366
242.01,569.964
244.01,571.542
246.01,573.103
248.01,574.648
250.01,576.18
252.01,577.7
254.01,579.21
256.01,580.711
258.01,582.207
260.01,583.698
262.01,585.185
264.01,586.673
266.01,588.161
268.01,589.655
270.01,591.154
272.01,592.661
274.01,594.177
276.01,595.703
278.01,597.243
280.01,598.798
282.01,600.37
284.01,601.962
286.01,603.57
288.01,605.201
290.01,606.856
292.01,608.542
294.01,610.262
296.01,612.01
298.01,613.787
300.01,615.599
302.01,617.449
304.01,619.344
306.01,621.277
308.01,623.256
310.01,625.29
312.01,627.374
314.01,629.513
316.01,631.717
318.01,633.986
320.01,636.328
322.01,638.759
324.01,641.322
326.01,643.981
328.01,646.745
330.01,649.544
332.01,652.447
334.01,655.448
336.01,658.574
338.01,661.779
340.01,665.139
342.01,668.624
344.01,672.25
346.01,675.985
348.01,679.928
350.01,683.987
352.01,688.216
354.01,692.776
356.01,697.438
358.01,702.677
360.01,708.175
362.01,714.52
364.01,721.383
366.01,730.19
368.01,743.277
370.01,765.033
372.01,807.627
374.01,844.855
376.01,853.122
378.01,857.757
380.01,860.948
382.01,863.323
384.01,865.207
386.01,866.742
388.01,868.122
390.01,869.404
392.01,870.325
394.01,871.194
396.01,872.097
398.01,872.963
400.01,873.668
402.01,874.261
404.01,874.718
406.01,875.357
408.01,875.983
410.01,876.487
412.01,876.907
414.01,877.276
416.01,877.734
418.01,878.188
420.01,878.576
422.01,878.824
424.01,879.152
426.01,879.511
428.01,879.861
430.01,880.133
432.01,880.459
434.01,880.793
436.01,881.044
438.01,881.278
440.01,881.559
442.01,881.773
444.01,881.924
446.01,882.183
448.01,882.374
450.01,882.613
452.01,882.87
454.01,883.162
456.01,883.32
458.01,883.49
460.01,883.839
462.01,883.91
464.01,884.137
466.01,884.429
468.01,884.624
470.01,884.774
472.01,885.017
474.01,885.112
476.01,885.282
478.01,885.468
480.01,885.563
482.01,885.82
484.01,886.093
486.01,886.213
488.01,886.358
490.01,886.503
492.01,886.669
494.01,886.887
496.01,886.951
498.01,887.139
500,887.376

File: DBI-cal_Gasification_q50_Temp_R4.csv
Time,Temp
[s],[K]
0,298.15
2,298.15
4.01,298.15
6.01,298.15
8.01,298.15
10.01,298.151
12.01,298.154
14.01,298.165
16.01,298.194
18,298.258
20,298.375
22,298.568
24,298.857
26,299.263
28,299.803
30,300.492
32,301.342
34,302.362
36,303.558
38,304.934
40,306.491
42,308.234
44.01,310.183
46.01,312.326
48.01,314.622
50.01,317.034
52.01,319.555
54.01,322.177
56.01,324.89
58.01,327.689
60.01,330.568
62.01,333.521
64.01,336.539
66.01,339.614
68.01,342.736
70.01,345.9
72.01,349.099
74,352.309
76,355.559
78,358.828
80,362.11
82,365.402
84,368.7
86,372.002
88,375.304
90,378.603
92,381.897
94,385.186
96,388.465
98,391.735
100,394.994
102,398.24
104,401.472
106,404.69
108,407.896
110,411.088
112,414.262
114,417.421
116,420.561
118,423.684
120,426.789
122,429.875
124,432.943
126,435.992
128,439.022
130,442.033
132,445.024
134,447.995
136,450.947
138,453.878
140,456.79
142,459.68
144,462.55
146,465.4
148,468.229
150,471.037
152,473.824
154,476.589
156,479.333
158,482.055
160.01,484.759
162.01,487.44
164.01,490.093
166.01,492.722
168.01,495.327
170.01,497.908
172.01,500.465
174.01,502.999
176.01,505.505
178.01,507.987
180.01,510.444
182.01,512.874
184.01,515.276
186.01,517.651
188.01,519.999
190.01,522.317
192.01,524.607
194.01,526.869
196.01,529.1
198.01,531.303
200.01,533.473
202.01,535.614
204.01,537.725
206.01,539.803
208.01,541.851
210.01,543.866
212.01,545.852
214.01,547.805
216.01,549.727
218.01,551.619
220.01,553.481
222.01,555.313
224.01,557.116
226.01,558.891
228.01,560.636
230.01,562.356
232.01,564.049
234.01,565.719
236.01,567.366
238.01,568.993
240.01,570.6
242.01,572.188
244.01,573.759
246.01,575.315
248.01,576.858
250.01,578.389
252.01,579.91
254.01,581.422
256.01,582.928
258.01,584.429
260.01,585.927
262.01,587.427
264.01,588.93
266.01,590.438
268.01,591.952
270.01,593.472
272.01,595.004
274.01,596.547
276.01,598.107
278.01,599.682
280.01,601.273
282.01,602.885
284.01,604.519
286.01,606.18
288.01,607.867
290.01,609.579
292.01,611.322
294.01,613.095
296.01,614.904
298.01,616.754
300.01,618.642
302.01,620.575
304.01,622.554
306.01,624.577
308.01,626.65
310.01,628.781
312.01,630.98
314.01,633.248
316.01,635.581
318.01,637.981
320.01,640.455
322.01,643.001
324.01,645.629
326.01,648.339
328.01,651.13
330.01,654.025
332.01,657.025
334.01,660.132
336.01,663.345
338.01,666.653
340.01,670.08
342.01,673.645
344.01,677.335
346.01,681.14
348.01,685.115
350.01,689.28
352.01,693.619
354.01,698.199
356.01,703.124
358.01,708.528
360.01,714.688
362.01,722.139
364.01,731.889
366.01,746.043
368.01,770.043
370.01,818.1
372.01,846.582
374.01,853.991
376.01,858.338
378.01,861.357
380.01,863.706
382.01,865.633
384.01,867.212
386.01,868.502
388.01,869.607
390.01,870.619
392.01,871.499
394.01,872.325
396.01,873.034
398.01,873.794
400.01,874.293
402.01,874.867
404.01,875.463
406.01,876
408.01,876.513
410.01,876.945
412.01,877.408
414.01,877.78
416.01,878.261
418.01,878.658
420.01,878.898
422.01,879.278
424.01,879.594
426.01,879.764
428.01,880.093
430.01,880.391
432.01,880.718
434.01,880.978
436.01,881.186
438.01,881.582
440.01,881.81
442.01,881.986
444.01,882.279
446.01,882.484
448.01,882.779
450.01,882.958
452.01,883.207
454.01,883.417
456.01,883.63
458.01,883.819
460.01,883.996
462.01,884.264
464.01,884.332
466.01,884.568
468.01,884.848
470.01,885.03
472.01,885.187
474.01,885.301
476.01,885.439
478.01,885.637
480.01,885.84
482.01,886.009
484.01,886.197
486.01,886.312
488.01,886.423
490.01,886.686
492.01,886.932
494.01,887.063
496.01,887.223
498.01,887.389
500,887.516

File: DBI_Gasification_q50_Mass_R4.csv
Time,Mass
[s],[g]
0,25.643
2,25.643
4.01,25.643
6.01,25.643
8.01,25.643
10.01,25.643
12.01,25.6429
14.01,25.6428
16.01,25.6424
18,25.6416
20,25.6398
22,25.6365
24,25.6308
26,25.6217
28,25.6081
30,25.5891
32,25.5639
34,25.5322
36,25.4937
38,25.4487
40,25.3976
42,25.3406
44.01,25.2781
46.01,25.211
48.01,25.1396
50.01,25.0641
52.01,24.9848
54.01,24.9021
56.01,24.8162
58.01,24.7273
60.01,24.6357
62.01,24.5415
64.01,24.445
66.01,24.3461
68.01,24.2452
70.01,24.1422
72.01,24.0373
74,23.9313
76,23.8228
78,23.7126
80,23.6008
82,23.4874
84,23.3725
86,23.256
88,23.1379
90,23.0184
92,22.8974
94,22.775
96,22.6512
98,22.526
100,22.3995
102,22.2716
104,22.1426
106,22.0121
108,21.8804
110,21.7473
112,21.6129
114,21.4773
116,21.3405
118,21.2022
120,21.0627
122,20.9219
124,20.7797
126,20.6362
128,20.4915
130,20.3457
132,20.1986
134,20.0502
136,19.9004
138,19.7493
140,19.5969
142,19.4431
144,19.2882
146,19.1319
148,18.9743
150,18.8155
152,18.6553
154,18.4938
156,18.3311
158,18.167
160.01,18.0009
162.01,17.8342
164.01,17.6662
166.01,17.4968
168.01,17.3262
170.01,17.1545
172.01,16.9815
174.01,16.8071
176.01,16.6315
178.01,16.4545
180.01,16.2763
182.01,16.097
184.01,15.9163
186.01,15.7345
188.01,15.5515
190.01,15.3676
192.01,15.1825
194.01,14.9962
196.01,14.8088
198.01,14.6201
200.01,14.4302
202.01,14.2393
204.01,14.0473
206.01,13.8543
208.01,13.6605
210.01,13.4656
212.01,13.2697
214.01,13.0727
216.01,12.8747
218.01,12.6759
220.01,12.4765
222.01,12.2764
224.01,12.0757
226.01,11.8741
228.01,11.6718
230.01,11.4688
232.01,11.2651
234.01,11.0609
236.01,10.8561
238.01,10.6509
240.01,10.4454
242.01,10.2394
244.01,10.0328
246.01,9.82565
248.01,9.61803
250.01,9.4101
252.01,9.20189
254.01,8.99324
256.01,8.78415
258.01,8.57477
260.01,8.36514
262.01,8.15523
264.01,7.94506
266.01,7.73455
268.01,7.52371
270.01,7.31261
272.01,7.10134
274.01,6.88999
276.01,6.67858
278.01,6.4671
280.01,6.25552
282.01,6.04385
284.01,5.83213
286.01,5.62037
288.01,5.40858
290.01,5.19682
292.01,4.98516
294.01,4.77366
296.01,4.56233
298.01,4.35119
300.01,4.14032
302.01,3.92984
304.01,3.71985
306.01,3.51044
308.01,3.30176
310.01,3.09401
312.01,2.8873
314.01,2.68173
316.01,2.47737
318.01,2.2744
320.01,2.07315
322.01,1.87413
324.01,1.6777
326.01,1.48418
328.01,1.29413
330.01,1.10809
332.01,0.92679
334.01,0.751199
336.01,0.582414
338.01,0.422262
340.01,0.273969
342.01,0.143255
344.01,0.0436171
346.01,0.004533194
348.01,0.004533194
350.01,0.004533194
352.01,0.004533194
354.01,0.004533194
356.01,0.004533194
358.01,0.004533194
360.01,0.004533194
362.01,0.004533194
364.01,0.004533194
366.01,0.004533194
368.01,0.004533194
370.01,0.004533194
372.01,0.004533194
374.01,0.004533194
376.01,0.004533194
378.01,0.004533194
380.01,0.004533194
382.01,0.004533194
384.01,0.004533194
386.01,0.004533194
388.01,0.004533194
390.01,0.004533194
392.01,0.004533194
394.01,0.004533194
396.01,0.004533194
398.01,0.004533194
400.01,0.004533194
402.01,0.004533194
404.01,0.004533194
406.01,0.004533194
408.01,0.004533194
410.01,0.004533194
412.01,0.004533194
414.01,0.004533194
416.01,0.004533194
418.01,0.004533194
420.01,0.004533194
422.01,0.004533194
424.01,0.004533194
426.01,0.004533194
428.01,0.004533194
430.01,0.004533194
432.01,0.004533194
434.01,0.004533194
436.01,0.004533194
438.01,0.004533194
440.01,0.004533194
442.01,0.004533194
444.01,0.004533194
446.01,0.004533194
448.01,0.004533194
450.01,0.004533194
452.01,0.004533194
454.01,0.004533194
456.01,0.004533194
458.01,0.004533194
460.01,0.004533194
462.01,0.004533194
464.01,0.004533194
466.01,0.004533194
468.01,0.004533194
470.01,0.004533194
472.01,0.004533194
474.01,0.004533194
476.01,0.004533194
478.01,0.004533194
480.01,0.004533194
482.01,0.004533194
484.01,0.004533194
486.01,0.004533194
488.01,0.004533194
490.01,0.004533194
492.01,0.004533194
494.01,0.004533194
496.01,0.004533194
498.01,0.004533194
500,0.004533194

File: DBI_Gasification_q50_Mass_R5.csv
Time,Mass
[s],[g]
0,28.113
2,28.113
4.01,28.113
6.01,28.113
8.01,28.113
10.01,28.113
12.01,28.1129
14.01,28.1128
16.01,28.1124
18,28.1116
20,28.1098
22,28.1065
24,28.1007
26,28.0916
28,28.0779
30,28.0589
32,28.0336
34,28.0018
36,27.9633
38,27.9182
40,27.867
42,27.81
44.01,27.7474
46.01,27.6803
48.01,27.6088
50.01,27.5333
52.01,27.454
54.01,27.3714
56.01,27.2855
58.01,27.1967
60.01,27.1053
62.01,27.0114
64.01,26.9152
66.01,26.8168
68.01,26.7163
70.01,26.6139
72.01,26.5097
74,26.4044
76,26.2969
78,26.1878
80,26.0772
82,25.9652
84,25.8519
86,25.7371
88,25.6209
90,25.5034
92,25.3848
94,25.2649
96,25.1437
98,25.0214
100,24.8979
102,24.7733
104,24.6476
106,24.5208
108,24.3928
110,24.2638
112,24.1338
114,24.0027
116,23.8706
118,23.7376
120,23.6035
122,23.4685
124,23.3323
126,23.1948
128,23.0563
130,22.9169
132,22.7764
134,22.6349
136,22.4923
138,22.3487
140,22.2041
142,22.0585
144,21.9118
146,21.7641
148,21.6154
150,21.4657
152,21.3149
154,21.163
156,21.0102
158,20.8564
160.01,20.7008
162.01,20.545
164.01,20.388
166.01,20.2299
168.01,20.0706
170.01,19.9103
172.01,19.7489
174.01,19.5864
176.01,19.423
178.01,19.2584
180.01,19.0928
182.01,18.9261
184.01,18.7581
186.01,18.5891
188.01,18.4189
190.01,18.2477
192.01,18.0754
194.01,17.9021
196.01,17.7276
198.01,17.5521
200.01,17.3754
202.01,17.1977
204.01,17.0189
206.01,16.8391
208.01,16.6583
210.01,16.4763
212.01,16.2931
214.01,16.1088
216.01,15.9234
218.01,15.7372
220.01,15.5499
222.01,15.3616
224.01,15.1723
226.01,14.9819
228.01,14.7906
230.01,14.5983
232.01,14.4051
234.01,14.2109
236.01,14.0158
238.01,13.82
240.01,13.6233
242.01,13.4261
244.01,13.228
246.01,13.029
248.01,12.8291
250.01,12.6286
252.01,12.4275
254.01,12.2256
256.01,12.023
258.01,11.82
260.01,11.6164
262.01,11.4122
264.01,11.2076
266.01,11.0023
268.01,10.7964
270.01,10.59
272.01,10.3829
274.01,10.1755
276.01,9.96771
278.01,9.75947
280.01,9.5509
282.01,9.34206
284.01,9.13288
286.01,8.9234
288.01,8.71347
290.01,8.50301
292.01,8.29196
294.01,8.08031
296.01,7.86777
298.01,7.65331
300.01,7.43859
302.01,7.2233
304.01,7.007875
306.01,6.79231
308.01,6.57645
310.01,6.36041
312.01,6.14433
314.01,5.92802
316.01,5.7118
318.01,5.4956
320.01,5.27962
322.01,5.06366
324.01,4.84781
326.01,4.63168
328.01,4.41591
330.01,4.20057
332.01,3.9855
334.01,3.77056
336.01,3.55632
338.01,3.34244
340.01,3.1291
342.01,2.91683
344.01,2.70579
346.01,2.49524
348.01,2.28658
350.01,2.07959
352.01,1.8742
354.01,1.67126
356.01,1.47068
358.01,1.27347
360.01,1.07972
362.01,0.891551
364.01,0.708638
366.01,0.531939
368.01,0.365394
370.01,0.215137
372.01,0.093105
374.01,0.0162647
376.01,0.004500547
378.01,0.004500547
380.01,0.004500547
382.01,0.004500547
384.01,0.004500547
386.01,0.004500547
388.01,0.004500547
390.01,0.004500547
392.01,0.004500547
394.01,0.004500547
396.01,0.004500547
398.01,0.004500547
400.01,0.004500547
402.01,0.004500547
404.01,0.004500547
406.01,0.004500547
408.01,0.004500547
410.01,0.004500547
412.01,0.004500547
414.01,0.004500547
416.01,0.004500547
418.01,0.004500547
420.01,0.004500547
422.01,0.004500547
424.01,0.004500547
426.01,0.004500547
428.01,0.004500547
430.01,0.004500547
432.01,0.004500547
434.01,0.004500547
436.01,0.004500547
438.01,0.004500547
440.01,0.004500547
442.01,0.004500547
444.01,0.004500547
446.01,0.004500547
448.01,0.004500547
450.01,0.004500547
452.01,0.004500547
454.01,0.004500547
456.01,0.004500547
458.01,0.004500547
460.01,0.004500547
462.01,0.004500547
464.01,0.004500547
466.01,0.004500547
468.01,0.004500547
470.01,0.004500547
472.01,0.004500547
474.01,0.004500547
476.01,0.004500547
478.01,0.004500547
480.01,0.004500547
482.01,0.004500547
484.01,0.004500547
486.01,0.004500547
488.01,0.004500547
490.01,0.004500547
492.01,0.004500547
494.01,0.004500547
496.01,0.004500547
498.01,0.004500547
500,0.004500547

File: DBI_Gasification_q50_Temp_R5.csv
Time,Temp
[s],[K]
0,298.15
2,298.15
4.01,298.15
6.01,298.15
8.01,298.15
10.01,298.15
12.01,298.152
14.01,298.16
16.01,298.18
18,298.227
20,298.314
22,298.462
24,298.69
26,299.015
28,299.454
30,300.024
32,300.735
34,301.597
36,302.618
38,303.802
40,305.153
42,306.671
44.01,308.366
46.01,310.247
48.01,312.303
50.01,314.503
52.01,316.811
54.01,319.219
56.01,321.72
58.01,324.306
60.01,326.971
62.01,329.711
64.01,332.519
66.01,335.39
68.01,338.315
70.01,341.287
72.01,344.299
74,347.331
76,350.406
78,353.506
80,356.625
82,359.76
84,362.907
86,366.062
88,369.223
90,372.387
92,375.551
94,378.713
96,381.872
98,385.025
100,388.172
102,391.31
104,394.439
106,397.557
108,400.665
110,403.763
112,406.849
114,409.921
116,412.98
118,416.024
120,419.054
122,422.068
124,425.067
126,428.05
128,431.016
130,433.967
132,436.901
134,439.818
136,442.718
138,445.602
140,448.467
142,451.316
144,454.147
146,456.961
148,459.756
150,462.534
152,465.293
154,468.034
156,470.757
158,473.46
160.01,476.151
162.01,478.824
164.01,481.468
166.01,484.092
168.01,486.695
170.01,489.279
172.01,491.842
174.01,494.383
176.01,496.902
178.01,499.4
180.01,501.875
182.01,504.328
184.01,506.757
186.01,509.163
188.01,511.545
190.01,513.902
192.01,516.235
194.01,518.542
196.01,520.822
198.01,523.078
200.01,525.306
202.01,527.506
204.01,529.68
206.01,531.824
208.01,533.941
210.01,536.03
212.01,538.088
214.01,540.118
216.01,542.118
218.01,544.089
220.01,546.031
222.01,547.943
224.01,549.827
226.01,551.681
228.01,553.509
230.01,555.307
232.01,557.079
234.01,558.824
236.01,560.545
238.01,562.239
240.01,563.911
242.01,565.559
244.01,567.186
246.01,568.792
248.01,570.381
250.01,571.95
252.01,573.505
254.01,575.043
256.01,576.57
258.01,578.086
260.01,579.594
262.01,581.096
264.01,582.591
266.01,584.084
268.01,585.574
270.01,587.063
272.01,588.557
274.01,590.051
276.01,591.555
278.01,593.065
280.01,594.587
282.01,596.121
284.01,597.67
286.01,599.235
288.01,600.817
290.01,602.418
292.01,604.044
294.01,605.69
296.01,607.362
298.01,609.061
300.01,610.788
302.01,612.547
304.01,614.339
306.01,616.166
308.01,618.033
310.01,619.942
312.01,621.897
314.01,623.905
316.01,625.967
318.01,628.086
320.01,630.262
322.01,632.496
324.01,634.796
326.01,637.161
328.01,639.597
330.01,642.111
332.01,644.701
334.01,647.376
336.01,650.144
338.01,653.006
340.01,655.971
342.01,659.041
344.01,662.213
346.01,665.495
348.01,668.886
350.01,672.407
352.01,676.047
354.01,679.824
356.01,683.743
358.01,687.82
360.01,692.082
362.01,696.585
364.01,701.38
366.01,706.596
368.01,712.491
370.01,719.394
372.01,728.112
374.01,740.278
376.01,759.833
378.01,797.235
380.01,842.3
382.01,851.98
384.01,857.042
386.01,860.451
388.01,862.993
390.01,865.019
392.01,866.677
394.01,868.051
396.01,869.29
398.01,870.359
400.01,871.272
402.01,872.026
404.01,872.894
406.01,873.613
408.01,874.271
410.01,874.893
412.01,875.483
414.01,876.007
416.01,876.524
418.01,876.94
420.01,877.388
422.01,877.747
424.01,878.107
426.01,878.518
428.01,878.902
430.01,879.145
432.01,879.471
434.01,879.824
436.01,880.136
438.01,880.444
440.01,880.713
442.01,880.906
444.01,881.233
446.01,881.368
448.01,881.654
450.01,881.984
452.01,882.281
454.01,882.429
456.01,882.612
458.01,882.826
460.01,883.055
462.01,883.408
464.01,883.58
466.01,883.667
468.01,883.917
470.01,884.15
472.01,884.324
474.01,884.641
476.01,884.796
478.01,884.982
480.01,885.186
482.01,885.389
484.01,885.547
486.01,885.703
488.01,885.871
490.01,886.052
492.01,886.225
494.01,886.409
496.01,886.556
498.01,886.73
500,886.833