Folder: matl-db/PMMA/Validation_Results/DBI/csv_files_calibrated

Note: PMMA/Validation_Results/README.md
## Predicted response of PMMA in response to radiant heating in an anaerobic environment

This folder holds model predictions of sample decomposition in response to well-defined heating at incident heat fluxes of 25 kW m-2 and 50 kW m-2 in the NIST Gasification Apparatus.

Note: these simulations may be considered as validation cases as material properties were independently calibrated based on measurement data obtained in other heating/environmental conditions in different apparatus (see: Calibration_Data).

File: DBI-cal_Gasification_q25_Mass_R2.csv
Time,Mass
[s],[g]
0,27.75
5.01,27.75
10.01,27.75
15.01,27.75
20,27.75
25,27.75
30,27.75
35,27.75
40,27.7499
45.01,27.7497
50.01,27.7495
55.01,27.749
60.01,27.7482
65.01,27.747
70.01,27.7452
75,27.7427
80,27.7391
85,27.7344
90,27.7283
95,27.7205
100,27.7107
105,27.6988
110,27.6844
115,27.6674
120,27.6475
125,27.6246
130,27.5985
135,27.5691
140,27.5362
145,27.5
150,27.4601
155,27.4167
160.01,27.3695
165.01,27.319
170.01,27.2648
175.01,27.2071
180.01,27.146
185.01,27.0814
190.01,27.0134
195.01,26.9421
200.01,26.8674
205.01,26.7895
210.01,26.7083
215.01,26.624
220.01,26.5365
225.01,26.446
230.01,26.3524
235.01,26.2559
240.01,26.1565
245.01,26.0542
250.01,25.9491
255.01,25.8412
260.01,25.7307
265.01,25.6175
270.01,25.5018
275.01,25.3835
280.01,25.2628
285.01,25.1396
290.01,25.0143
295.01,24.8866
300.01,24.7566
305.01,24.6244
310.01,24.4899
315.01,24.3534
320.01,24.2148
325.01,24.0743
330.01,23.932
335.01,23.7879
340.01,23.6418
345.01,23.494
350.01,23.3445
355.01,23.1935
360.01,23.0408
365.01,22.8867
370.01,22.7311
375.01,22.5741
380.01,22.4158
385.01,22.2563
390.01,22.0956
395.01,21.9338
400.01,21.771
405.01,21.6071
410.01,21.4423
415.01,21.2767
420.01,21.1102
425.01,20.9428
430.01,20.7746
435.01,20.6055
440.01,20.4357
445.01,20.2653
450.01,20.0943
455.01,19.9225
460.01,19.7503
465.01,19.5774
470.01,19.4041
475.01,19.2302
480.01,19.0559
485.01,18.8812
490.01,18.706
495.01,18.5304
500.01,18.3546
505.01,18.1786
510.01,18.0021
515.01,17.8253
520.01,17.6482
525.01,17.4709
530.01,17.2932
535.01,17.1152
540.01,16.937
545.01,16.7585
550.01,16.5798
555.01,16.401
560.01,16.222
565.01,16.0429
570.01,15.8635
575.01,15.6837
580.01,15.5039
585.01,15.3241
590.01,15.1442
595.01,14.9645
600.01,14.7846
605.01,14.6046
610.01,14.4244
615.01,14.2442
620.01,14.0636
625.01,13.8827
630.01,13.7016
635.01,13.5204
640.01,13.3391
645.01,13.1576
650.01,12.9762
655.01,12.7947
660.01,12.6131
665.01,12.4314
670.01,12.2496
675.01,12.0679
680.01,11.8861
685.01,11.7043
690.01,11.5226
695.01,11.3408
700.01,11.1588
705.01,10.9768
710.01,10.7947
715.01,10.6126
720.01,10.4304
725.01,10.2483
730.01,10.0662
735.01,9.88425
740.01,9.70228
745.01,9.52016
750.01,9.33805
755.01,9.15595
760.01,8.97386
765.01,8.79186
770.01,8.61016
775.01,8.42856
780.01,8.24711
785.01,8.06577
790.01,7.88452
795.01,7.70338
800.01,7.52236
805.01,7.34147
810.01,7.16083
815.01,6.98037
820.01,6.80014
825.01,6.6203
830.01,6.44067
835.01,6.26136
840.01,6.0824
845.01,5.90386
850.01,5.72588
855.01,5.54829
860.01,5.37131
865.01,5.19473
870.01,5.01861
875.01,4.84297
880.01,4.6679
885.01,4.4935
890.01,4.3201
895.01,4.14764
900.01,3.97607
905.01,3.80537
910.01,3.6357
915.01,3.46692
920.01,3.29931
925.01,3.13297
930.01,2.9679
935.01,2.80421
940.01,2.64224
945.01,2.48193
950.01,2.32352
955.01,2.1671
960.01,2.0129
965.01,1.86112
970.01,1.71202
975.01,1.56589
980.01,1.42284
985.01,1.28329
990.01,1.14736
995.01,1.01533
1000.01,0.887706
1005.01,0.764857
1010.01,0.647315
1015.01,0.535777
1020.01,0.430614
1025.01,0.332859
1030.01,0.243328
1035.01,0.163041
1040.01,0.0932948
1045.01,0.0354294
1050.01,-0.009600448
1055.01,-0.0414289
1060.01,-0.0611848
1065.01,-0.0717218
1070.01,-0.0750708
1075.01,-0.0750708
1080.01,-0.0750708
1085.01,-0.0750708
1090.01,-0.0750708
1095.01,-0.0750708
1100.01,-0.0750708
1105.01,-0.0750708
1110.01,-0.0750708
1115.01,-0.0750708
1120.01,-0.0750708
1125.01,-0.0750708
1130.01,-0.0750708
1135.01,-0.0750708
1140.01,-0.0750708
1145.01,-0.0750708
1150.01,-0.0750708
1155.01,-0.0750708
1160.01,-0.0750708
1165.01,-0.0750708
1170.01,-0.0750708
1175.01,-0.0750708
1180.01,-0.0750708
1185.01,-0.0750708
1190.01,-0.0750708
1195.01,-0.0750708
1200,-0.0750708

File: DBI-cal_Gasification_q25_MLR_R1.csv
Time,MLR
[s],[g/m2/s]
0,0
5.01,0
10.01,1.29922E-06
15.01,1.36419E-05
20,8.25007E-05
25,0.000326755
30,0.000996505
35,0.002516597
40,0.00552495
45.01,0.01087849
50.01,0.0196384
55.01,0.0329951
60.01,0.0523873
65.01,0.0792864
70.01,0.115001
75,0.160862
80,0.218292
85,0.287959
90,0.370424
95,0.46629
100,0.575487
105,0.697498
110,0.830754
115,0.974603
120,1.12679
125,1.28861
130,1.45637
135,1.62778
140,1.80565
145,1.9851
150,2.1685
155,2.35121
160.01,2.53397
165.01,2.71582
170.01,2.89515
175.01,3.07715
180.01,3.25335
185.01,3.42701
190.01,3.59588
195.01,3.7659
200.01,3.93044
205.01,4.09694
210.01,4.2588
215.01,4.41975
220.01,4.5711
225.01,4.72989
230.01,4.88232
235.01,5.03094
240.01,5.17476
245.01,5.32009
250.01,5.46375
255.01,5.60058
260.01,5.7383
265.01,5.87256
270.01,6.00595
275.01,6.13264
280.01,6.25873
285.01,6.37829
290.01,6.49786
295.01,6.61871
300.01,6.73374
305.01,6.83809
310.01,6.9531
315.01,7.06244
320.01,7.16307
325.01,7.25639
330.01,7.35115
335.01,7.45004
340.01,7.54701
345.01,7.63859
350.01,7.72407
355.01,7.81083
360.01,7.89422
365.01,7.96959
370.01,8.04566
375.01,8.11644
380.01,8.18229
385.01,8.24293
390.01,8.30274
395.01,8.36139
400.01,8.41555
405.01,8.45421
410.01,8.52085
415.01,8.57619
420.01,8.62353
425.01,8.66535
430.01,8.69766
435.01,8.73984
440.01,8.78465
445.01,8.81506
450.01,8.85257
455.01,8.8823
460.01,8.90951
465.01,8.93882
470.01,8.97543
475.01,9.00169
480.01,9.02775
485.01,9.05265
490.01,9.07319
495.01,9.09615
500.01,9.10773
505.01,9.13469
510.01,9.15471
515.01,9.16934
520.01,9.17604
525.01,9.19511
530.01,9.21059
535.01,9.22805
540.01,9.22953
545.01,9.23697
550.01,9.24451
555.01,9.26276
560.01,9.27033
565.01,9.28521
570.01,9.30455
575.01,9.31586
580.01,9.32291
585.01,9.33319
590.01,9.3444
595.01,9.35392
600.01,9.35583
605.01,9.35606
610.01,9.36941
615.01,9.3802
620.01,9.38246
625.01,9.3942
630.01,9.40396
635.01,9.40636
640.01,9.41363
645.01,9.41518
650.01,9.42124
655.01,9.42903
660.01,9.43198
665.01,9.43658
670.01,9.43608
675.01,9.42401
680.01,9.42216
685.01,9.42138
690.01,9.42479
695.01,9.42011
700.01,9.43524
705.01,9.44935
710.01,9.44833
715.01,9.45676
720.01,9.45854
725.01,9.45815
730.01,9.4575
735.01,9.4577
740.01,9.45742
745.01,9.45831
750.01,9.45692
755.01,9.45096
760.01,9.44567
765.01,9.44939
770.01,9.44768
775.01,9.44424
780.01,9.44123
785.01,9.43236
790.01,9.42563
795.01,9.42271
800.01,9.41665
805.01,9.4087
810.01,9.40214
815.01,9.39228
820.01,9.37554
825.01,9.36545
830.01,9.35046
835.01,9.33549
840.01,9.31123
845.01,9.28163
850.01,9.26481
855.01,9.24755
860.01,9.22843
865.01,9.21697
870.01,9.19895
875.01,9.1733
880.01,9.14026
885.01,9.11084
890.01,9.07853
895.01,9.04405
900.01,9.001488
905.01,8.9606
910.01,8.90954
915.01,8.85141
920.01,8.80751
925.01,8.74656
930.01,8.6831
935.01,8.61776
940.01,8.54539
945.01,8.45781
950.01,8.37542
955.01,8.28538
960.01,8.18279
965.01,8.06579
970.01,7.9393
975.01,7.81088
980.01,7.66914
985.01,7.52472
990.01,7.34962
995.01,7.16804
1000.01,6.96021
1005.01,6.72408
1010.01,6.49913
1015.01,6.23025
1020.01,5.9441
1025.01,5.61744
1030.01,5.26123
1035.01,4.86159
1040.01,4.40168
1045.01,3.87929
1050.01,3.28739
1055.01,2.6475
1060.01,1.96645
1065.01,1.30045
1070.01,0.740191
1075.01,0.360899
1080.01,0.007440851
1085.01,0
1090.01,0
1095.01,0
1100.01,0
1105.01,0
1110.01,0
1115.01,0
1120.01,0
1125.01,0
1130.01,0
1135.01,0
1140.01,0
1145.01,0
1150.01,0
1155.01,0
1160.01,0
1165.01,0
1170.01,0
1175.01,0
1180.01,0
1185.01,0
1190.01,0
1195.01,0
1200,0

File: DBI-cal_Gasification_q25_MLR_R2.csv
Time,MLR
[s],[g/m2/s]
0,0
5.01,0
10.01,1.29922E-06
15.01,1.29922E-05
20,7.86031E-05
25,0.000313763
30,0.000956229
35,0.002417206
40,0.005311228
45.01,0.0104703
50.01,0.0189232
55.01,0.0318329
60.01,0.0506067
65.01,0.07669969
70.01,0.111412
75,0.156089
80,0.212168
85,0.28037
90,0.361227
95,0.455353
100,0.562293
105,0.681272
110,0.813563
115,0.958021
120,1.11173
125,1.27273
130,1.44104
135,1.61598
140,1.79479
145,1.97757
150,2.1648
155,2.35082
160.01,2.53598
165.01,2.72266
170.01,2.90557
175.01,3.08767
180.01,3.26777
185.01,3.4445
190.01,3.62031
195.01,3.79465
200.01,3.96545
205.01,4.13375
210.01,4.30061
215.01,4.46538
220.01,4.6267
225.01,4.78405
230.01,4.94006
235.01,5.09191
240.01,5.24064
245.01,5.38929
250.01,5.5353
255.01,5.6743
260.01,5.81201
265.01,5.94889
270.01,6.08101
275.01,6.20977
280.01,6.34034
285.01,6.45698
290.01,6.57435
295.01,6.69922
300.01,6.81058
305.01,6.93199
310.01,7.04074
315.01,7.14734
320.01,7.25491
325.01,7.34764
330.01,7.44191
335.01,7.54122
340.01,7.63776
345.01,7.72702
350.01,7.80752
355.01,7.8911
360.01,7.97264
365.01,8.04932
370.01,8.12369
375.01,8.19274
380.01,8.25735
385.01,8.31849
390.01,8.38234
395.01,8.43774
400.01,8.48675
405.01,8.54073
410.01,8.58536
415.01,8.62802
420.01,8.67878
425.01,8.72234
430.01,8.76353
435.01,8.80582
440.01,8.83854
445.01,8.87294
450.01,8.90905
455.01,8.93902
460.01,8.96642
465.01,8.99659
470.01,9.02179
475.01,9.04569
480.01,9.07039
485.01,9.09281
490.01,9.11437
495.01,9.13016
500.01,9.14452
505.01,9.15671
510.01,9.18254
515.01,9.1992
520.01,9.20465
525.01,9.22376
530.01,9.2426
535.01,9.25714
540.01,9.26798
545.01,9.28311
550.01,9.29305
555.01,9.29475
560.01,9.30641
565.01,9.3081
570.01,9.33683
575.01,9.34696
580.01,9.3429
585.01,9.34695
590.01,9.34521
595.01,9.34391
600.01,9.35106
605.01,9.35644
610.01,9.36586
615.01,9.37694
620.01,9.39433
625.01,9.40639
630.01,9.41462
635.01,9.41796
640.01,9.42701
645.01,9.42979
650.01,9.43082
655.01,9.4325
660.01,9.44572
665.01,9.44263
670.01,9.44527
675.01,9.4436
680.01,9.45031
685.01,9.44505
690.01,9.44467
695.01,9.45315
700.01,9.45775
705.01,9.46036
710.01,9.46462
715.01,9.46529
720.01,9.46714
725.01,9.46421
730.01,9.4617
735.01,9.45117
740.01,9.46244
745.01,9.46561
750.01,9.46222
755.01,9.46486
760.01,9.46215
765.01,9.44942
770.01,9.43975
775.01,9.43407
780.01,9.42734
785.01,9.42013
790.01,9.41765
795.01,9.41072
800.01,9.40405
805.01,9.39465
810.01,9.38232
815.01,9.3744
820.01,9.35449
825.01,9.34047
830.01,9.32864
835.01,9.30876
840.01,9.2902
845.01,9.26376
850.01,9.23837
855.01,9.21614
860.01,9.18423
865.01,9.16548
870.01,9.14162
875.01,9.11193
880.01,9.08545
885.01,9.03396
890.01,8.99082
895.01,8.93532
900.01,8.89906
905.01,8.83839
910.01,8.79983
915.01,8.74116
920.01,8.67789
925.01,8.61071
930.01,8.54401
935.01,8.46442
940.01,8.37438
945.01,8.28241
950.01,8.18214
955.01,8.0725
960.01,7.95297
965.01,7.81968
970.01,7.67407
975.01,7.51503
980.01,7.34648
985.01,7.15676
990.01,6.96733
995.01,6.74809
1000.01,6.51516
1005.01,6.24972
1010.01,5.95607
1015.01,5.63507
1020.01,5.28078
1025.01,4.87217
1030.01,4.42055
1035.01,3.90792
1040.01,3.32542
1045.01,2.67823
1050.01,1.99615
1055.01,1.32375
1060.01,0.763739
1065.01,0.373854
1070.01,0.01321824
1075.01,0
1080.01,0
1085.01,0
1090.01,0
1095.01,0
1100.01,0
1105.01,0
1110.01,0
1115.01,0
1120.01,0
1125.01,0
1130.01,0
1135.01,0
1140.01,0
1145.01,0
1150.01,0
1155.01,0
1160.01,0
1165.01,0
1170.01,0
1175.01,0
1180.01,0
1185.01,0
1190.01,0
1195.01,0
1200,0

File: DBI-cal_Gasification_q25_MLR_R3.csv
Time,MLR
[s],[g/m2/s]
0,0
5.01,0
10.01,1.29922E-06
15.01,1.36419E-05
20,8.18511E-05
25,0.000324156
30,0.00098741
35,0.00249451
40,0.005477528
45.01,0.0107891
50.01,0.01948901
55.01,0.0327716
60.01,0.0520969
65.01,0.0789837
70.01,0.11482
75,0.161026
80,0.219266
85,0.290385
90,0.37518
95,0.474542
100,0.588695
105,0.716957
110,0.858115
115,1.01142
120,1.17602
125,1.35053
130,1.53444
135,1.72438
140,1.91937
145,2.11736
150,2.31779
155,2.52111
160.01,2.72018
165.01,2.92381
170.01,3.12393
175.01,3.32504
180.01,3.51957
185.01,3.71199
190.01,3.90685
195.01,4.09242
200.01,4.2787
205.01,4.46492
210.01,4.64518
215.01,4.81827
220.01,4.9878
225.01,5.15498
230.01,5.32343
235.01,5.48886
240.01,5.64923
245.01,5.80609
250.01,5.9533
255.01,6.10423
260.01,6.25089
265.01,6.39582
270.01,6.53358
275.01,6.66274
280.01,6.79442
285.01,6.91959
290.01,7.04352
295.01,7.16544
300.01,7.28051
305.01,7.38646
310.01,7.48703
315.01,7.59486
320.01,7.6956
325.01,7.78819
330.01,7.87956
335.01,7.96746
340.01,8.04849
345.01,8.12134
350.01,8.19401
355.01,8.26657
360.01,8.33871
365.01,8.40407
370.01,8.46283
375.01,8.52073
380.01,8.57309
385.01,8.61939
390.01,8.65165
395.01,8.69554
400.01,8.73371
405.01,8.77397
410.01,8.81782
415.01,8.85074
420.01,8.89136
425.01,8.91354
430.01,8.94755
435.01,8.98323
440.01,9.0069
445.01,9.03063
450.01,9.05539
455.01,9.07547
460.01,9.09592
465.01,9.11416
470.01,9.13536
475.01,9.1522
480.01,9.16921
485.01,9.18512
490.01,9.19862
495.01,9.21265
500.01,9.22468
505.01,9.23021
510.01,9.2381
515.01,9.24805
520.01,9.26054
525.01,9.27229
530.01,9.28671
535.01,9.29628
540.01,9.30299
545.01,9.30796
550.01,9.31658
555.01,9.33022
560.01,9.34013
565.01,9.34838
570.01,9.35481
575.01,9.34848
580.01,9.36061
585.01,9.36424
590.01,9.37145
595.01,9.37985
600.01,9.37977
605.01,9.38826
610.01,9.38932
615.01,9.39086
620.01,9.39228
625.01,9.39868
630.01,9.40617
635.01,9.40576
640.01,9.4013
645.01,9.40223
650.01,9.40428
655.01,9.41472
660.01,9.41376
665.01,9.40805
670.01,9.4075
675.01,9.41248
680.01,9.41166
685.01,9.40295
690.01,9.40354
695.01,9.40027
700.01,9.39794
705.01,9.39069
710.01,9.3892
715.01,9.38189
720.01,9.3822
725.01,9.36519
730.01,9.35016
735.01,9.35479
740.01,9.34641
745.01,9.34206
750.01,9.33072
755.01,9.31929
760.01,9.30769
765.01,9.29462
770.01,9.28249
775.01,9.26909
780.01,9.24745
785.01,9.22406
790.01,9.20124
795.01,9.18054
800.01,9.1485
805.01,9.12115
810.01,9.10014
815.01,9.07652
820.01,9.03111
825.01,8.99423
830.01,8.96795
835.01,8.92473
840.01,8.86756
845.01,8.81966
850.01,8.77345
855.01,8.7221
860.01,8.65755
865.01,8.59292
870.01,8.51993
875.01,8.43083
880.01,8.35562
885.01,8.25752
890.01,8.16351
895.01,8.04863
900.01,7.92713
905.01,7.80634
910.01,7.67209
915.01,7.52049
920.01,7.35149
925.01,7.16714
930.01,6.98548
935.01,6.77286
940.01,6.53721
945.01,6.28028
950.01,6.00074
955.01,5.68659
960.01,5.33377
965.01,4.94873
970.01,4.50455
975.01,4.01371
980.01,3.46697
985.01,2.8539
990.01,2.18486
995.01,1.51393
1000.01,0.916407
1005.01,0.475705
1010.01,0.105933
1015.01,0
1020.01,0
1025.01,0
1030.01,0
1035.01,0
1040.01,0
1045.01,0
1050.01,0
1055.01,0
1060.01,0
1065.01,0
1070.01,0
1075.01,0
1080.01,0
1085.01,0
1090.01,0
1095.01,0
1100.01,0
1105.01,0
1110.01,0
1115.01,0
1120.01,0
1125.01,0
1130.01,0
1135.01,0
1140.01,0
1145.01,0
1150.01,0
1155.01,0
1160.01,0
1165.01,0
1170.01,0
1175.01,0
1180.01,0
1185.01,0
1190.01,0
1195.01,0
1200,0

File: DBI-cal_Gasification_q25_Temp_R2.csv
Time,Back Surface Temperature
[s],[K]
0,298.15
5.01,298.15
10.01,298.15
15.01,298.161
20,298.246
25,298.539
30,299.181
35,300.28
40,301.893
45.01,304.042
50.01,306.709
55.01,309.899
60.01,313.6
65.01,317.632
70.01,321.915
75,326.398
80,331.078
85,335.918
90,340.885
95,345.948
100,351.08
105,356.259
110,361.465
115,366.678
120,371.885
125,377.071
130,382.2223
135,387.329
140,392.383
145,397.376
150,402.2993
155,407.147
160.01,411.921
165.01,416.608
170.01,421.2024
175.01,425.707
180.01,430.116
185.01,434.432
190.01,438.649
195.01,442.769
200.01,446.79
205.01,450.713
210.01,454.538
215.01,458.263
220.01,461.893
225.01,465.425
230.01,468.861
235.01,472.203
240.01,475.452
245.01,478.608
250.01,481.673
255.01,484.6475
260.01,487.535
265.01,490.335
270.01,493.05
275.01,495.681
280.01,498.229
285.01,500.696
290.01,503.0828
295.01,505.393
300.01,507.627
305.01,509.7849
310.01,511.87
315.01,513.885
320.01,515.83
325.01,517.709
330.01,519.522
335.01,521.271
340.01,522.96
345.01,524.5886
350.01,526.161
355.01,527.677
360.01,529.139
365.01,530.5516
370.01,531.915
375.01,533.231
380.01,534.504
385.01,535.733
390.01,536.921
395.01,538.073
400.01,539.188
405.01,540.267
410.01,541.315
415.01,542.333
420.01,543.3208
425.01,544.2812
430.01,545.217
435.01,546.1295
440.01,547.02
445.01,547.89
450.01,548.743
455.01,549.578
460.01,550.397
465.01,551.204
470.01,551.994
475.01,552.773
480.01,553.541
485.01,554.298
490.01,555.047
495.01,555.788
500.01,556.52
505.01,557.245
510.01,557.9659
515.01,558.679
520.01,559.389
525.01,560.094
530.01,560.796
535.01,561.497
540.01,562.194
545.01,562.89
550.01,563.586
555.01,564.28
560.01,564.974
565.01,565.666
570.01,566.357
575.01,567.052
580.01,567.747
585.01,568.444
590.01,569.141
595.01,569.838
600.01,570.537
605.01,571.234
610.01,571.936
615.01,572.642
620.01,573.35
625.01,574.067
630.01,574.788
635.01,575.515
640.01,576.246
645.01,576.979
650.01,577.719
655.01,578.46
660.01,579.205
665.01,579.959
670.01,580.715
675.01,581.4802
680.01,582.246
685.01,583.021
690.01,583.801
695.01,584.584
700.01,585.381
705.01,586.184
710.01,586.997
715.01,587.818
720.01,588.646
725.01,589.485
730.01,590.327
735.01,591.18
740.01,592.037
745.01,592.912
750.01,593.803
755.01,594.698
760.01,595.6084
765.01,596.5269
770.01,597.447
775.01,598.384
780.01,599.331
785.01,600.296
790.01,601.274
795.01,602.2683
800.01,603.281
805.01,604.305
810.01,605.346
815.01,606.401
820.01,607.474
825.01,608.559
830.01,609.666
835.01,610.795
840.01,611.939
845.01,613.1
850.01,614.278
855.01,615.4855
860.01,616.701
865.01,617.967
870.01,619.25
875.01,620.566
880.01,621.908
885.01,623.263
890.01,624.635
895.01,626.028
900.01,627.478
905.01,628.947
910.01,630.478
915.01,632.025
920.01,633.602
925.01,635.2293
930.01,636.8982
935.01,638.596
940.01,640.316
945.01,642.1068
950.01,643.923
955.01,645.785
960.01,647.694
965.01,649.649
970.01,651.654
975.01,653.696
980.01,655.824
985.01,657.9906
990.01,660.315
995.01,662.698
1000.01,665.2246
1005.01,667.855
1010.01,670.6595
1015.01,673.69
1020.01,677.02
1025.01,680.689
1030.01,684.748
1035.01,689.265
1040.01,694.475
1045.01,699.973
1050.01,706.238
1055.01,712.32
1060.01,717.96
1065.01,722.06
1070.01,728.885
1075.01,730.906
1080.01,731.915
1085.01,732.789
1090.01,733.414
1095.01,734.147
1100.01,734.6702
1105.01,735.231
1110.01,735.676
1115.01,736.016
1120.01,736.5298
1125.01,736.784
1130.01,737.158
1135.01,737.526
1140.01,737.874
1145.01,738.156
1150.01,738.401
1155.01,738.675
1160.01,738.899
1165.01,739.158
1170.01,739.647
1175.01,739.935
1180.01,740.187
1185.01,740.467
1190.01,740.771
1195.01,741.04
1200,741.259

File: DBI-cal_Gasification_q50_MLR_R3.csv
Time,MLR
[s],[g/m2/s]
0,0
2,6.47992E-07
4.01,9.71988E-06
6.01,0.000109784
8.01,0.000729514
10.01,0.00333251
12.01,0.0116313
14.01,0.0331828
16.01,0.0807805
18,0.173883
20,0.336665
22,0.597049
24,0.978813
26,1.49531
28,2.14327
30,2.90108
32,3.73312
34,4.59789
36,5.45728
38,6.28352
40,7.05984
42,7.7783
44.01,8.43109
46.01,9.02572
48.01,9.57125
50.01,10.0779
52.01,10.5452
54.01,10.974
56.01,11.3688
58.01,11.7321
60.01,12.0677
62.01,12.3832
64.01,12.6824
66.01,12.9629
68.01,13.2248
70.01,13.4684
72.01,13.6972
74,13.925
76,14.1447
78,14.3494
80,14.5446
82,14.7335
84,14.928
86,15.1255
88,15.3047
90,15.4705
92,15.641
94,15.8184
96,15.9978
98,16.1724
100,16.3377
102,16.4938
104,16.6459
106,16.7995
108,16.9561
110,17.1087
112,17.2564
114,17.4043
116,17.5524
118,17.703
120,17.8574
122,18.0124
124,18.1662
126,18.3194
128,18.4721
130,18.6258
132,18.7806
134,18.9341
136,19.0851
138,19.2334
140,19.3821
142,19.5343
144,19.6879
146,19.8398
148,19.9909
150,20.142
152,20.2939
154,20.4484
156,20.6012
158,20.749
160.01,20.895
162.01,21.0456
164.01,21.2044
166.01,21.3696
168.01,21.5326
170.01,21.6925
172.01,21.8559
174.01,22.0183
176.01,22.1732
178.01,22.317
180.01,22.4471
182.01,22.5785
184.01,22.7334
186.01,22.907
188.01,23.0749
190.01,23.2317
192.01,23.3748
194.01,23.5056
196.01,23.6487
198.01,23.8118
200.01,23.9724
202.01,24.1193
204.01,24.2626
206.01,24.407
208.01,24.5477
210.01,24.6833
212.01,24.8157
214.01,24.942
216.01,25.0669
218.01,25.2003
220.01,25.3333
222.01,25.454
224.01,25.5618
226.01,25.6627
228.01,25.7603
230.01,25.8595
232.01,25.9662
234.01,26.0682
236.01,26.1531
238.01,26.2247
240.01,26.2907
242.01,26.3578
244.01,26.433
246.01,26.5094
248.01,26.5845
250.01,26.6637
252.01,26.7338
254.01,26.7912
256.01,26.857
258.01,26.935
260.01,27.0097
262.01,27.0653
264.01,27.1004
266.01,27.1373
268.01,27.1769
270.01,27.2122
272.01,27.2517
274.01,27.2904
276.01,27.3163
278.01,27.3339
280.01,27.3532
282.01,27.3795
284.01,27.4165
286.01,27.4566
288.01,27.4933
290.01,27.52
292.01,27.5303
294.01,27.5284
296.01,27.5179
298.01,27.5059
300.01,27.4992
302.01,27.4933
304.01,27.4917
306.01,27.5046
308.01,27.5124
310.01,27.4841
312.01,27.4197
314.01,27.3309
316.01,27.2392
318.01,27.1746
320.01,27.1291
322.01,27.0626
324.01,26.9526
326.01,26.8017
328.01,26.6201
330.01,26.4008
332.01,26.1402
334.01,25.8707
336.01,25.5781
338.01,25.2101
340.01,24.7689
342.01,24.2624
344.01,23.665
346.01,22.9491
348.01,22.0725
350.01,20.9542
352.01,19.4568
354.01,17.2337
356.01,13.31
358.01,6.48816
360.01,1.11639
362.01,0
364.01,0
366.01,0
368.01,0
370.01,0
372.01,0
374.01,0
376.01,0
378.01,0
380.01,0
382.01,0
384.01,0
386.01,0
388.01,0
390.01,0
392.01,0
394.01,0
396.01,0
398.01,0
400.01,0
402.01,0
404.01,0
406.01,0
408.01,0
410.01,0
412.01,0
414.01,0
416.01,0
418.01,0
420.01,0
422.01,0
424.01,0
426.01,0
428.01,0
430.01,0
432.01,0
434.01,0
436.01,0
438.01,0
440.01,0
442.01,0
444.01,0
446.01,0
448.01,0
450.01,0
452.01,0
454.01,0
456.01,0
458.01,0
460.01,0
462.01,0
464.01,0
466.01,0
468.01,0
470.01,0
472.01,0
474.01,0
476.01,0
478.01,0
480.01,0
482.01,0
484.01,0
486.01,0
488.01,0
490.01,0
492.01,0
494.01,0
496.01,0
498.01,0
500,0

File: DBI-cal_Gasification_q50_MLR_R4.csv
Time,MLR
[s],[g/m2/s]
0,0
2,0
4.01,9.07189E-06
6.01,0.000107836
8.01,0.000715223
10.01,0.003266249
12.01,0.0114033
14.01,0.0325514
16.01,0.0792943
18,0.17081
20,0.330992
22,0.587554
24,0.964311
26,1.47498
28,2.11694
30,2.86938
32,3.69733
34,4.55963
36,5.41814
38,6.24481
40,7.02253
42,7.74306
44.01,8.39839
46.01,8.99585
48.01,9.54435
50.01,10.0542
52.01,10.5251
54.01,10.9578
56.01,11.357
58.01,11.725
60.01,12.0658
62.01,12.3869
64.01,12.6925
66.01,12.9799
68.01,13.2492
70.01,13.5006
72.01,13.7368
74,13.972
76,14.2024
78,14.4198
80,14.6282
82,14.8293
84,15.0332
86,15.2414
88,15.4393
90,15.6258
92,15.8092
94,15.9919
96,16.1735
98,16.352
100,16.5244
102,16.6906
104,16.8574
106,17.0319
108,17.2072
110,17.3745
112,17.5358
114,17.6979
116,17.8694
118,18.0451
120,18.2143
122,18.3861
124,18.5579
126,18.7156
128,18.869
130,19.0298
132,19.1969
134,19.3723
136,19.5491
138,19.7182
140,19.8859
142,20.0538
144,20.2196
146,20.3854
148,20.5533
150,20.7237
152,20.8949
154,21.0644
156,21.2292
158,21.3944
160.01,21.5651
162.01,21.7417
164.01,21.9175
166.01,22.0852
168.01,22.2418
170.01,22.3977
172.01,22.5619
174.01,22.7346
176.01,22.9073
178.01,23.0703
180.01,23.2276
182.01,23.3866
184.01,23.5463
186.01,23.6976
188.01,23.8366
190.01,23.9745
192.01,24.121
194.01,24.2773
196.01,24.4358
198.01,24.5885
200.01,24.7353
202.01,24.8765
204.01,25.0076
206.01,25.13
208.01,25.2556
210.01,25.3865
212.01,25.5209
214.01,25.6543
216.01,25.7758
218.01,25.8736
220.01,25.95
222.01,26.0344
224.01,26.1374
226.01,26.2391
228.01,26.3314
230.01,26.4164
232.01,26.496
234.01,26.5707
236.01,26.6324
238.01,26.6797
240.01,26.7318
242.01,26.8008
244.01,26.8776
246.01,26.9453
248.01,26.9947
250.01,27.0331
252.01,27.0799
254.01,27.1366
256.01,27.184
258.01,27.2193
260.01,27.254
262.01,27.2893
264.01,27.3276
266.01,27.3713
268.01,27.4097
270.01,27.4375
272.01,27.4544
274.01,27.463
276.01,27.4716
278.01,27.483
280.01,27.4943
282.01,27.5033
284.01,27.5102
286.01,27.5148
288.01,27.5144
290.01,27.5059
292.01,27.489
294.01,27.4675
296.01,27.4442
298.01,27.4142
300.01,27.371
302.01,27.3138
304.01,27.2449
306.01,27.1602
308.01,27.0516
310.01,26.9233
312.01,26.7825
314.01,26.6295
316.01,26.4607
318.01,26.2591
320.01,26.0019
322.01,25.6886
324.01,25.3314
326.01,24.9175
328.01,24.4316
330.01,23.8626
332.01,23.1839
334.01,22.3711
336.01,21.3681
338.01,20.0369
340.01,18.1247
342.01,14.9639
344.01,9.01152
346.01,2.53894
348.01,0
350.01,0
352.01,0
354.01,0
356.01,0
358.01,0
360.01,0
362.01,0
364.01,0
366.01,0
368.01,0
370.01,0
372.01,0
374.01,0
376.01,0
378.01,0
380.01,0
382.01,0
384.01,0
386.01,0
388.01,0
390.01,0
392.01,0
394.01,0
396.01,0
398.01,0
400.01,0
402.01,0
404.01,0
406.01,0
408.01,0
410.01,0
412.01,0
414.01,0
416.01,0
418.01,0
420.01,0
422.01,0
424.01,0
426.01,0
428.01,0
430.01,0
432.01,0
434.01,0
436.01,0
438.01,0
440.01,0
442.01,0
444.01,0
446.01,0
448.01,0
450.01,0
452.01,0
454.01,0
456.01,0
458.01,0
460.01,0
462.01,0
464.01,0
466.01,0
468.01,0
470.01,0
472.01,0
474.01,0
476.01,0
478.01,0
480.01,0
482.01,0
484.01,0
486.01,0
488.01,0
490.01,0
492.01,0
494.01,0
496.01,0
498.01,0
500,0