Folder: matl-db/PMMA/Validation_Results/DBI/csv_files_non_calibrated

Note: PMMA/Validation_Results/README.md
## Predicted response of PMMA in response to radiant heating in an anaerobic environment

This folder holds model predictions of sample decomposition in response to well-defined heating at incident heat fluxes of 25 kW m-2 and 50 kW m-2 in the NIST Gasification Apparatus.

Note: these simulations may be considered as validation cases as material properties were independently calibrated based on measurement data obtained in other heating/environmental conditions in different apparatus (see: Calibration_Data).

File: DBI-1_Gasification_q50_Mass_R5.csv
Time,Mass
[s],[g]
0.00,28.113
2.00,28.113
4.01,28.113
6.01,28.113
8.01,28.113
10.01,28.113
12.01,28.1129
14.01,28.1128
16.01,28.1124
18.00,28.1116
20.00,28.1098
22.00,28.1064
24.00,28.1005
26.00,28.0911
28.00,28.0768
30.00,28.0563
32.00,28.0287
34.00,27.993
36.00,27.9489
38.00,27.8962
40.00,27.8351
42.00,27.7662
44.01,27.6894
46.01,27.6062
48.01,27.5169
50.01,27.4218
52.01,27.3214
54.01,27.2161
56.01,27.1063
58.01,26.9925
60.01,26.8749
62.01,26.7539
64.01,26.6297
66.01,26.5025
68.01,26.3725
70.01,26.2398
72.01,26.1047
74.00,25.9678
76.00,25.8282
78.00,25.6866
80.00,25.543
82.00,25.3976
84.00,25.2501
86.00,25.1008
88.00,24.9494
90.00,24.7962
92.00,24.6413
94.00,24.4849
96.00,24.3269
98.00,24.1672
100.00,24.0059
102.00,23.843
104.00,23.6786
106.00,23.5126
108.00,23.3451
110.00,23.176
112.00,23.0055
114.00,22.8334
116.00,22.66
118.00,22.4852
120.00,22.3091
122.00,22.1316
124.00,21.9526
126.00,21.7721
128.00,21.5899
130.00,21.4061
132.00,21.2209
134.00,21.034
136.00,20.8455
138.00,20.6559
140.00,20.4649
142.00,20.2717
144.00,20.0764
146.00,19.8793
148.00,19.6806
150.00,19.4801
152.00,19.2781
154.00,19.0743
156.00,18.8687
158.00,18.6613
160.01,18.4515
162.01,18.2409
164.01,18.0283
166.01,17.8136
168.01,17.597
170.01,17.3785
172.01,17.1585
174.01,16.9363
176.01,16.712
178.01,16.4855
180.01,16.2567
182.01,16.0258
184.01,15.7925
186.01,15.5563
188.01,15.3167
190.01,15.0727
192.01,14.8278
194.01,14.5805
196.01,14.3312
198.01,14.0797
200.01,13.8258
202.01,13.5695
204.01,13.3111
206.01,13.0508
208.01,12.7884
210.01,12.5237
212.01,12.2571
214.01,11.9884
216.01,11.7175
218.01,11.4442
220.01,11.1692
222.01,10.8922
224.01,10.6127
226.01,10.3316
228.01,10.049
230.01,9.76451
232.01,9.47789
234.01,9.19015
236.01,8.90094
238.01,8.60993
240.01,8.31777
242.01,8.02449
244.01,7.72977
246.01,7.43402
248.01,7.13741
250.01,6.83926
252.01,6.54029
254.01,6.24103
256.01,5.94077
258.01,5.63944
260.01,5.33823
262.01,5.03706
264.01,4.73517
266.01,4.43316
268.01,4.13155
270.01,3.82982
272.01,3.52908
274.01,3.22984
276.01,2.93198
278.01,2.63564
280.01,2.34226
282.01,2.0528
284.01,1.76782
286.01,1.48792
288.01,1.21512
290.01,0.951163
292.01,0.698734
294.01,0.461059
296.01,0.247314
298.01,0.0787594
300.01,0.007054751
302.01,0.004503333
304.01,0.004503333
306.01,0.004503333
308.01,0.004503333
310.01,0.004503333
312.01,0.004503333
314.01,0.004503333
316.01,0.004503333
318.01,0.004503333
320.01,0.004503333
322.01,0.004503333
324.01,0.004503333
326.01,0.004503333
328.01,0.004503333
330.01,0.004503333
332.01,0.004503333
334.01,0.004503333
336.01,0.004503333
338.01,0.004503333
340.01,0.004503333
342.01,0.004503333
344.01,0.004503333
346.01,0.004503333
348.01,0.004503333
350.01,0.004503333
352.01,0.004503333
354.01,0.004503333
356.01,0.004503333
358.01,0.004503333
360.01,0.004503333
362.01,0.004503333
364.01,0.004503333
366.01,0.004503333
368.01,0.004503333
370.01,0.004503333
372.01,0.004503333
374.01,0.004503333
376.01,0.004503333
378.01,0.004503333
380.01,0.004503333
382.01,0.004503333
384.01,0.004503333
386.01,0.004503333
388.01,0.004503333
390.01,0.004503333
392.01,0.004503333
394.01,0.004503333
396.01,0.004503333
398.01,0.004503333
400.01,0.004503333
402.01,0.004503333
404.01,0.004503333
406.01,0.004503333
408.01,0.004503333
410.01,0.004503333
412.01,0.004503333
414.01,0.004503333
416.01,0.004503333
418.01,0.004503333
420.01,0.004503333
422.01,0.004503333
424.01,0.004503333
426.01,0.004503333
428.01,0.004503333
430.01,0.004503333
432.01,0.004503333
434.01,0.004503333
436.01,0.004503333
438.01,0.004503333
440.01,0.004503333
442.01,0.004503333
444.01,0.004503333
446.01,0.004503333
448.01,0.004503333
450.01,0.004503333
452.01,0.004503333
454.01,0.004503333
456.01,0.004503333
458.01,0.004503333
460.01,0.004503333
462.01,0.004503333
464.01,0.004503333
466.01,0.004503333
468.01,0.004503333
470.01,0.004503333
472.01,0.004503333
474.01,0.004503333
476.01,0.004503333
478.01,0.004503333
480.01,0.004503333
482.01,0.004503333
484.01,0.004503333
486.01,0.004503333
488.01,0.004503333
490.01,0.004503333
492.01,0.004503333
494.01,0.004503333
496.01,0.004503333
498.01,0.004503333
500.00,0.004503333

File: DBI-1_Gasification_q50_MLR_R3.csv
Time,MLR
[s],[g/m2/s]
0,0
2,6.47992E-07
4.01,9.71988E-06
6.01,0.000109784
8.01,0.000729514
10.01,0.003333159
12.01,0.01163585
14.01,0.0332212
16.01,0.080996
18,0.17484
20,0.340161
22,0.607853
24,1.00752
26,1.56187
28,2.27948
30,3.15004
32,4.14435
34,5.21931
36,6.32728
38,7.42635
40,8.485
42,9.48296
44.01,10.4009
46.01,11.2424
48.01,12.016
50.01,12.7348
52.01,13.3972
54.01,14.004
56.01,14.5612
58.01,15.0718
60.01,15.5401
62.01,15.9745
64.01,16.3833
66.01,16.7678
68.01,17.1281
70.01,17.47
72.01,17.7932
74,18.0951
76,18.3738
78,18.6432
80,18.9107
82,19.176
84,19.4458
86,19.7191
88,19.9857
90,20.2299
92,20.4539
94,20.6763
96,20.9079
98,21.1455
100,21.3791
102,21.6044
104,21.8233
106,22.0471
108,22.2718
110,22.4916
112,22.7135
114,22.9338
116,23.1463
118,23.3555
120,23.573
122,23.8074
124,24.0491
126,24.2819
128,24.5077
130,24.7303
132,24.944
134,25.16
136,25.3981
138,25.6581
140,25.9351
142,26.2166
144,26.4822
146,26.7225
148,26.9545
150,27.2123
152,27.4982
154,27.7897
156,28.0727
158,28.344
160.01,28.6175
162.01,28.9141
164.01,29.2201
166.01,29.5265
168.01,29.85315
170.01,30.216
172.01,30.6438
174.01,31.0946
176.01,31.4145
178.01,31.7226
180.01,32.0537
182.01,32.3279
184.01,32.6091
186.01,32.8879
188.01,33.1777
190.01,33.4763
192.01,33.7676
194.01,34.063
196.01,34.3701
198.01,34.6551
200.01,34.9323
202.01,35.2172
204.01,35.4984
206.01,35.7532
208.01,36.0211
210.01,36.3113
212.01,36.5354
214.01,36.7386
216.01,36.9999
218.01,37.2273
220.01,37.396
222.01,37.6181
224.01,37.8356
226.01,37.9626
228.01,38.1134
230.01,38.3184
232.01,38.4635
234.01,38.5747
236.01,38.7128
238.01,38.8195
240.01,38.9194
242.01,39.0503
244.01,39.1151
246.01,39.1104
248.01,39.1081
250.01,39.1481
252.01,39.1761
254.01,39.1368
256.01,39.0814
258.01,38.9516
260.01,38.7162
262.01,38.476
264.01,38.1984
266.01,37.7496
268.01,37.1733
270.01,36.528
272.01,35.6732
274.01,34.5345
276.01,33.1959
278.01,31.4388
280.01,28.7217
282.01,23.436
284.01,13.3782
286.01,3.47317
288.01,0.003703438
290.01,0
292.01,0
294.01,0
296.01,0
298.01,0
300.01,0
302.01,0
304.01,0
306.01,0
308.01,0
310.01,0
312.01,0
314.01,0
316.01,0
318.01,0
320.01,0
322.01,0
324.01,0
326.01,0
328.01,0
330.01,0
332.01,0
334.01,0
336.01,0
338.01,0
340.01,0
342.01,0
344.01,0
346.01,0
348.01,0
350.01,0
352.01,0
354.01,0
356.01,0
358.01,0
360.01,0
362.01,0
364.01,0
366.01,0
368.01,0
370.01,0
372.01,0
374.01,0
376.01,0
378.01,0
380.01,0
382.01,0
384.01,0
386.01,0
388.01,0
390.01,0
392.01,0
394.01,0
396.01,0
398.01,0
400.01,0
402.01,0
404.01,0
406.01,0
408.01,0
410.01,0
412.01,0
414.01,0
416.01,0
418.01,0
420.01,0
422.01,0
424.01,0
426.01,0
428.01,0
430.01,0
432.01,0
434.01,0
436.01,0
438.01,0
440.01,0
442.01,0
444.01,0
446.01,0
448.01,0
450.01,0
452.01,0
454.01,0
456.01,0
458.01,0
460.01,0
462.01,0
464.01,0
466.01,0
468.01,0
470.01,0
472.01,0
474.01,0
476.01,0
478.01,0
480.01,0
482.01,0
484.01,0
486.01,0
488.01,0
490.01,0
492.01,0
494.01,0
496.01,0
498.01,0
500,0

File: DBI-1_Gasification_q50_MLR_R4.csv
Time,MLR
[s],[g/m2/s]
0,0
2,0
4.01,9.07189E-06
6.01,0.000107836
8.01,0.000715223
10.01,0.003266249
12.01,0.0114078
14.01,0.0325884
16.01,0.0795021
18,0.171733
20,0.33437
22,0.598016
24,0.992172
26,1.53972
28,2.24979
30,3.1129
32,4.1007
34,5.17081
36,6.27592
38,7.37409
40,8.43351
42,9.43355
44.01,10.3546
46.01,11.1999
48.01,11.9776
50.01,12.701
52.01,13.3686
54.01,13.9811
56.01,14.5447
58.01,15.0622
60.01,15.5382
62.01,15.9809
64.01,16.399
66.01,16.7936
68.01,17.165
70.01,17.5186
72.01,17.8544
74,18.1711
76,18.4669
78,18.7535
80,19.0349
82,19.3108
84,19.5933
86,19.8851
88,20.1671
90,20.4303
92,20.685
94,20.9395
96,21.1897
98,21.4395
100,21.6945
102,21.947
104,22.1942
106,22.4357
108,22.6757
110,22.9163
112,23.1616
114,23.4151
116,23.6749
118,23.9334
120,24.1853
122,24.435
124,24.6807
126,24.9298
128,25.1903
130,25.4613
132,25.7452
134,26.0297
136,26.2985
138,26.5625
140,26.8419
142,27.1366
144,27.4274
146,27.7123
148,27.9849
150,28.2506
152,28.5495
154,28.8808
156,29.2207
158,29.5625
160.01,29.9247
162.01,30.3776
164.01,30.821
166.01,31.2017
168.01,31.5393
170.01,31.8711
172.01,32.2074
174.01,32.4901
176.01,32.7744
178.01,33.0703
180.01,33.4117
182.01,33.771
184.01,34.0629
186.01,34.3264
188.01,34.6144
190.01,34.9369
192.01,35.2365
194.01,35.4846
196.01,35.7681
198.01,36.0533
200.01,36.2822
202.01,36.4977
204.01,36.7281
206.01,36.9661
208.01,37.1983
210.01,37.423
212.01,37.6312
214.01,37.8045
216.01,37.9683
218.01,38.1392
220.01,38.2955
222.01,38.4278
224.01,38.5241
226.01,38.6266
228.01,38.7615
230.01,38.8924
232.01,39.0166
234.01,39.0845
236.01,39.1134
238.01,39.1793
240.01,39.1956
242.01,39.124
244.01,39.0869
246.01,39.052
248.01,38.8803
250.01,38.6545
252.01,38.4294
254.01,38.0761
256.01,37.6009
258.01,37.0632
260.01,36.3387
262.01,35.3972
264.01,34.2521
266.01,32.7235
268.01,30.6368
270.01,27.5583
272.01,21.2451
274.01,9.96701
276.01,1.56028
278.01,0
280.01,0
282.01,0
284.01,0
286.01,0
288.01,0
290.01,0
292.01,0
294.01,0
296.01,0
298.01,0
300.01,0
302.01,0
304.01,0
306.01,0
308.01,0
310.01,0
312.01,0
314.01,0
316.01,0
318.01,0
320.01,0
322.01,0
324.01,0
326.01,0
328.01,0
330.01,0
332.01,0
334.01,0
336.01,0
338.01,0
340.01,0
342.01,0
344.01,0
346.01,0
348.01,0
350.01,0
352.01,0
354.01,0
356.01,0
358.01,0
360.01,0
362.01,0
364.01,0
366.01,0
368.01,0
370.01,0
372.01,0
374.01,0
376.01,0
378.01,0
380.01,0
382.01,0
384.01,0
386.01,0
388.01,0
390.01,0
392.01,0
394.01,0
396.01,0
398.01,0
400.01,0
402.01,0
404.01,0
406.01,0
408.01,0
410.01,0
412.01,0
414.01,0
416.01,0
418.01,0
420.01,0
422.01,0
424.01,0
426.01,0
428.01,0
430.01,0
432.01,0
434.01,0
436.01,0
438.01,0
440.01,0
442.01,0
444.01,0
446.01,0
448.01,0
450.01,0
452.01,0
454.01,0
456.01,0
458.01,0
460.01,0
462.01,0
464.01,0
466.01,0
468.01,0
470.01,0
472.01,0
474.01,0
476.01,0
478.01,0
480.01,0
482.01,0
484.01,0
486.01,0
488.01,0
490.01,0
492.01,0
494.01,0
496.01,0
498.01,0
500,0

File: DBI-1_Gasification_q50_MLR_R5.csv
Time,MLR
[s],[g/m2/s]
0,0
2,6.47992E-07
4.01,9.07189E-06
6.01,0.000107836
8.01,0.00071912
10.01,0.003284438
12.01,0.0114702
14.01,0.0327606
16.01,0.0799098
18,0.172583
20,0.335956
22,0.600714
24,0.996387
26,1.5458
28,2.25795
30,3.1231
32,4.11265
34,5.18401
36,6.28975
38,7.38786
40,8.44658
42,9.44528
44.01,10.3643
46.01,11.207
48.01,11.9814
50.01,12.7006
52.01,13.3629
54.01,13.969
56.01,14.5249
58.01,15.0332
60.01,15.4983
62.01,15.9285
64.01,16.3322
66.01,16.7105
68.01,17.0636
70.01,17.3973
72.01,17.7112
74,18.0024
76,18.2694
78,18.5256
80,18.7774
82,19.0265
84,19.28
86,19.5362
88,19.7863
90,20.0135
92,20.2199
94,20.4272
96,20.6385
98,20.8493
100,21.0589
102,21.2647
104,21.4658
106,21.6659
108,21.8651
110,22.0615
112,22.2551
114,22.4412
116,22.6188
118,22.7926
120,22.9709
122,23.1593
124,23.3575
126,23.5638
128,23.7701
130,23.9707
132,24.1761
134,24.3847
136,24.562
138,24.7267
140,24.9552
142,25.2357
144,25.4906
146,25.7138
148,25.9333
150,26.1459
152,26.3609
154,26.5967
156,26.8292
158,27.0347
160.01,27.2423
162.01,27.4879
164.01,27.7579
166.01,28.0176
168.01,28.2643
170.01,28.4893
172.01,28.7244
174.01,29.0013
176.01,29.2882
178.01,29.5798
180.01,29.8634
182.01,30.1552
184.01,30.4961
186.01,30.9057
188.01,31.4163
190.01,31.7606
192.01,31.9707
194.01,32.2619
196.01,32.5357
198.01,32.8264
200.01,33.1421
202.01,33.4345
204.01,33.6962
206.01,33.9604
208.01,34.2391
210.01,34.514
212.01,34.7778
214.01,35.0541
216.01,35.3487
218.01,35.6162
220.01,35.86
222.01,36.148
224.01,36.4188
226.01,36.6202
228.01,36.8371
230.01,37.1003
232.01,37.3111
234.01,37.4793
236.01,37.692
238.01,37.8835
240.01,38.0307
242.01,38.197
244.01,38.358
246.01,38.4802
248.01,38.6358
250.01,38.79
252.01,38.8624
254.01,38.9453
256.01,39.0795
258.01,39.1415
260.01,39.13122
262.01,39.1758
264.01,39.2306
266.01,39.2117
268.01,39.1936
270.01,39.1377
272.01,38.9755
274.01,38.7882
276.01,38.5996
278.01,38.309
280.01,37.8623
282.01,37.3163
284.01,36.6953
286.01,35.9038
288.01,34.8682
290.01,33.5451
292.01,31.8377
294.01,29.3248
296.01,24.8347
298.01,15.6075
300.01,4.82376
302.01,0.165743
304.01,0
306.01,0
308.01,0
310.01,0
312.01,0
314.01,0
316.01,0
318.01,0
320.01,0
322.01,0
324.01,0
326.01,0
328.01,0
330.01,0
332.01,0
334.01,0
336.01,0
338.01,0
340.01,0
342.01,0
344.01,0
346.01,0
348.01,0
350.01,0
352.01,0
354.01,0
356.01,0
358.01,0
360.01,0
362.01,0
364.01,0
366.01,0
368.01,0
370.01,0
372.01,0
374.01,0
376.01,0
378.01,0
380.01,0
382.01,0
384.01,0
386.01,0
388.01,0
390.01,0
392.01,0
394.01,0
396.01,0
398.01,0
400.01,0
402.01,0
404.01,0
406.01,0
408.01,0
410.01,0
412.01,0
414.01,0
416.01,0
418.01,0
420.01,0
422.01,0
424.01,0
426.01,0
428.01,0
430.01,0
432.01,0
434.01,0
436.01,0
438.01,0
440.01,0
442.01,0
444.01,0
446.01,0
448.01,0
450.01,0
452.01,0
454.01,0
456.01,0
458.01,0
460.01,0
462.01,0
464.01,0
466.01,0
468.01,0
470.01,0
472.01,0
474.01,0
476.01,0
478.01,0
480.01,0
482.01,0
484.01,0
486.01,0
488.01,0
490.01,0
492.01,0
494.01,0
496.01,0
498.01,0
500,0

File: DBI-1_Gasification_q50_Temp_R1.csv
Time,Temp
[s],[K]
0,298.15
2,298.15
4.01,298.15
6.01,298.15
8.01,298.151
10.01,298.157
12.01,298.183
14.01,298.254
16.01,298.406
18,298.68
20,299.114
22,299.746
24,300.603
26,301.707
28,303.071
30,304.704
32,306.611
34,308.801
36,311.297
38,314.063
40,317.024
42,320.156
44.01,323.456
46.01,326.903
48.01,330.48
50.01,334.184
52.01,338.001
54.01,341.914
56.01,345.909
58.01,349.974
60.01,354.096
62.01,358.263
64.01,362.468
66.01,366.7
68.01,370.952
70.01,375.218
72.01,379.49
74,383.743
76,388.016
78,392.282
80,396.539
82,400.783
84,405.013
86,409.226
88,413.421
90,417.597
92,421.751
94,425.885
96,429.996
98,434.085
100,438.151
102,442.198
104,446.224
106,450.228
108,454.208
110,458.165
112,462.098
114,466.009
116,469.895
118,473.758
120,477.597
122,481.414
124,485.206
126,488.975
128,492.719
130,496.439
132,500.135
134,503.805
136,507.449
138,511.066
140,514.655
142,518.216
144,521.747
146,525.246
148,528.714
150,532.148
152,535.549
154,538.916
156,542.247
158,545.543
160.01,548.812
162.01,552.049
164.01,555.243
166.01,558.4
168.01,561.518
170.01,564.597
172.01,567.637
174.01,570.639
176.01,573.604
178.01,576.53
180.01,579.421
182.01,582.275
184.01,585.098
186.01,587.892
188.01,590.662
190.01,593.409
192.01,596.144
194.01,598.871
196.01,601.597
198.01,604.327
200.01,607.065
202.01,609.823
204.01,612.614
206.01,615.437
208.01,618.3
210.01,621.22
212.01,624.205
214.01,627.256
216.01,630.393
218.01,633.629
220.01,636.954
222.01,640.391
224.01,643.974
226.01,647.683
228.01,651.552
230.01,655.599
232.01,659.795
234.01,664.174
236.01,668.814
238.01,673.629
240.01,678.691
242.01,684.053
244.01,689.589
246.01,695.453
248.01,701.823
250.01,708.491
252.01,715.957
254.01,724.913
256.01,736.052
258.01,752.446
260.01,781.629
262.01,831.135
264.01,847.165
266.01,853.251
268.01,857.096
270.01,859.894
272.01,862.094
274.01,863.924
276.01,865.422
278.01,866.702
280.01,867.743
282.01,868.831
284.01,869.775
286.01,870.647
288.01,871.169
290.01,871.849
292.01,872.563
294.01,873.256
296.01,873.917
298.01,874.462
300.01,874.978
302.01,875.447
304.01,875.829
306.01,876.222
308.01,876.553
310.01,876.927
312.01,877.312
314.01,877.652
316.01,878.036
318.01,878.308
320.01,878.674
322.01,878.981
324.01,879.241
326.01,879.535
328.01,879.675
330.01,879.938
332.01,880.296
334.01,880.518
336.01,880.781
338.01,881.147
340.01,881.389
342.01,881.487
344.01,881.775
346.01,882.043
348.01,882.289
350.01,882.477
352.01,882.699
354.01,882.915
356.01,883.005
358.01,883.308
360.01,883.514
362.01,883.728
364.01,883.911
366.01,884.103
368.01,884.298
370.01,884.387
372.01,884.559
374.01,884.831
376.01,885.013
378.01,885.185
380.01,885.356
382.01,885.515
384.01,885.676
386.01,885.848
388.01,886.005
390.01,886.173
392.01,886.381
394.01,886.447
396.01,886.659
398.01,886.8
400.01,886.931
402.01,887.162
404.01,887.271
406.01,887.376
408.01,887.56
410.01,887.722
412.01,887.871
414.01,888.029
416.01,888.124
418.01,888.21
420.01,888.436
422.01,888.566
424.01,888.631
426.01,888.689
428.01,888.858
430.01,888.993
432.01,889.128
434.01,889.227
436.01,889.298
438.01,889.495
440.01,889.689
442.01,889.73
444.01,889.878
446.01,890.019
448.01,890.251
450.01,890.394
452.01,890.519
454.01,890.674
456.01,890.747
458.01,890.932
460.01,891.015
462.01,891.063
464.01,891.23
466.01,891.32
468.01,891.455
470.01,891.561
472.01,891.721
474.01,891.812
476.01,892.015
478.01,892.174
480.01,892.382
482.01,892.436
484.01,892.578
486.01,892.646
488.01,892.738
490.01,892.926
492.01,892.931
494.01,893.042
496.01,893.077
498.01,893.383
500,893.561
,500

File: DBI_Gasification_q50_Temp_R5.csv
Time,Temp
[s],[K]
0,298.15
2,298.15
4.01,298.15
6.01,298.15
8.01,298.15
10.01,298.15
12.01,298.152
14.01,298.16
16.01,298.18
18,298.227
20,298.314
22,298.462
24,298.69
26,299.015
28,299.454
30,300.024
32,300.735
34,301.597
36,302.618
38,303.803
40,305.155
42,306.675
44.01,308.373
46.01,310.26
48.01,312.322
50.01,314.532
52.01,316.852
54.01,319.277
56.01,321.799
58.01,324.411
60.01,327.107
62.01,329.884
64.01,332.737
66.01,335.659
68.01,338.642
70.01,341.679
72.01,344.765
74,347.878
76,351.043
78,354.242
80,357.469
82,360.72
84,363.992
86,367.282
88,370.587
90,373.905
92,377.233
94,380.568
96,383.91
98,387.257
100,390.608
102,393.96
104,397.314
106,400.667
108,404.02
110,407.371
112,410.721
114,414.072
116,417.421
118,420.767
120,424.11
122,427.449
124,430.784
126,434.116
128,437.442
130,440.764
132,444.082
134,447.395
136,450.704
138,454.008
140,457.306
142,460.6
144,463.888
146,467.171
148,470.449
150,473.721
152,476.987
154,480.247
156,483.5
158,486.747
160.01,489.996
162.01,493.238
164.01,496.464
166.01,499.681
168.01,502.89
170.01,506.089
172.01,509.279
174.01,512.459
176.01,515.627
178.01,518.784
180.01,521.927
182.01,525.056
184.01,528.168
186.01,531.273
188.01,534.359
190.01,537.433
192.01,540.489
194.01,543.528
196.01,546.548
198.01,549.548
200.01,552.527
202.01,555.484
204.01,558.417
206.01,561.326
208.01,564.208
210.01,567.063
212.01,569.892
214.01,572.695
216.01,575.473
218.01,578.226
220.01,580.956
222.01,583.665
224.01,586.354
226.01,589.027
228.01,591.689
230.01,594.342
232.01,596.99
234.01,599.642
236.01,602.301
238.01,604.971
240.01,607.665
242.01,610.385
244.01,613.134
246.01,615.928
248.01,618.773
250.01,621.673
252.01,624.647
254.01,627.696
256.01,630.822
258.01,634.057
260.01,637.399
262.01,640.841
264.01,644.415
266.01,648.166
268.01,652.044
270.01,656.075
272.01,660.337
274.01,664.766
276.01,669.376
278.01,674.253
280.01,679.375
282.01,684.674
284.01,690.391
286.01,696.329
288.01,702.61
290.01,709.402
292.01,717.246
294.01,726.095
296.01,738.236
298.01,756.415
300.01,789.285
302.01,837.356
304.01,848.896
306.01,854.328
308.01,857.9
310.01,860.543
312.01,862.592
314.01,864.3
316.01,865.774
318.01,866.949
320.01,868.172
322.01,869.333
324.01,870.093
326.01,871.011
328.01,871.754
330.01,872.325
332.01,873.016
334.01,873.524
336.01,874.051
338.01,874.702
340.01,875.208
342.01,875.554
344.01,875.953
346.01,876.507
348.01,876.853
350.01,877.038
352.01,877.494
354.01,877.986
356.01,878.206
358.01,878.54
360.01,878.88
362.01,879.202
364.01,879.517
366.01,879.707
368.01,879.988
370.01,880.309
372.01,880.601
374.01,880.733
376.01,881.01
378.01,881.359
380.01,881.575
382.01,881.766
384.01,881.973
386.01,882.109
388.01,882.397
390.01,882.66
392.01,882.864
394.01,883.08
396.01,883.225
398.01,883.495
400.01,883.789
402.01,883.985
404.01,884.191
406.01,884.346
408.01,884.489
410.01,884.667
412.01,884.844
414.01,884.945
416.01,885.149
418.01,885.37
420.01,885.535
422.01,885.694
424.01,885.888
426.01,886.004
428.01,886.041
430.01,886.295
432.01,886.492
434.01,886.659
436.01,886.726
438.01,887.007
440.01,887.2
442.01,887.318
444.01,887.428
446.01,887.486
448.01,887.696
450.01,887.86
452.01,887.99
454.01,888.118
456.01,888.276
458.01,888.496
460.01,888.621
462.01,888.707
464.01,888.863
466.01,888.873
468.01,889.003
470.01,889.238
472.01,889.396
474.01,889.56
476.01,889.701
478.01,889.783
480.01,889.885
482.01,890.019
484.01,890.21
486.01,890.338
488.01,890.448
490.01,890.578
492.01,890.669
494.01,890.791
496.01,890.868
498.01,891.065
500,891.225