Folder: matl-db/PMMA/Validation_Results/Aalto-I

Note: PMMA/Validation_Results/README.md
## Predicted response of PMMA in response to radiant heating in an anaerobic environment

This folder holds model predictions of sample decomposition in response to well-defined heating at incident heat fluxes of 25 kW m-2 and 50 kW m-2 in the NIST Gasification Apparatus.

Note: these simulations may be considered as validation cases as material properties were independently calibrated based on measurement data obtained in other heating/environmental conditions in different apparatus (see: Calibration_Data).

File: Aalto-I_Gasification_q25_MLR.csv
Time,MLR
s,[g/m2/s]
0,0.00410223
5.1,0.0019644
10.1,-0.008167593
15.1,-0.0131065
20,-0.003101782
25,0.0281606
30,0.0777233
35,0.17332
40,0.286118
45,0.356387
50,0.460369
55,0.575701
60,0.769755
65,0.831994
70,0.905291
75,0.93602
80.1,0.943644
85.1,0.938916
90.1,0.931286
95.1,0.9039
100.1,0.913453
105.1,0.919408
110.1,0.956142
115.1,1.04473
120.1,1.03193
125.1,1.09968
130.1,1.18001
135.1,1.27087
140.1,1.38873
145.1,1.5197
150.1,1.6187
155.1,1.7386
160.1,1.83876
165.1,1.9827
170.1,2.12917
175.1,2.37091
180.1,2.46193
185.1,2.57117
190.1,2.67627
195.1,2.83691
200.1,3.00267
205.1,3.18999
210.1,3.34693
215.1,3.50787
220.1,3.64477
225.1,3.80159
230.1,3.91541
235.1,4.02939
240.1,4.16207
245.1,4.29469
250.1,4.47303
255.1,4.5655
260.1,4.69625
265.1,4.78577
270.1,4.87948
275.1,4.93881
280.1,4.98454
285.1,5.15206
290.1,5.26196
295.1,5.40269
300.1,5.44431
305,5.47334
310,5.50056
315,5.54293
320,5.64391
325,5.68724
330,5.69567
335,5.79443
340,5.78152
345,5.8203
350,5.84634
355,5.87629
360,5.92392
365,5.97714
370,6.03422
375,6.04471
380,6.0695
385,6.09437
390,6.13137
395,6.19973
400,6.25397
405,6.31839
410,6.41543
415,6.42706
420,6.47343
425,6.50117
430,6.57548
435,6.61681
440,6.67179
445,6.75776
450,6.81391
455,6.86699
460,6.91981
465,6.9225
470,6.96142
475,7.01376
480,7.09689
485,7.14133
490,7.14601
495,7.16828
500,7.21026
505,7.27171
510,7.30747
515,7.31424
520,7.36215
525,7.36205
530,7.37182
535,7.42778
540,7.41392
545,7.47157
550,7.45311
555,7.52609
560,7.54866
565,7.48342
570,7.57318
575,7.58547
580,7.51589
585,7.65464
590,7.60265
595,7.62258
600,7.57761
605,7.70327
610,7.67653
615,7.62555
620,7.66278
625,7.63738
630,7.6957
635,7.81085
640,7.80078
645,7.67821
650,7.62038
655,7.6329
660,7.70052
665,7.79097
670,7.84506
675,7.77674
680,7.79534
685,7.79534
690,7.79534
695,7.79534
700,7.79534
705,7.79534
710,7.79534
715,7.79534
720,7.79534
725,7.79534
730,7.81395
735,7.74563
740,7.79972
745,7.89016
750,7.95778
755,7.97031
760,7.92236
765,7.83545
770,7.74811
775,7.71976
780,7.83527
785,7.90693
790,7.96526
795,7.99088
800,7.86413
805,7.79135
810,7.80847
815,7.92626
820,7.99849
825,7.90522
830,7.84656
835,7.8423
840,7.88707
845,8.02299
850,7.89895
855,7.86068
860,7.86068
865,7.89895
870,8.02299
875,7.88707
880,7.8423
885,7.84656
890,7.90522
895,7.99849
900,7.96121
905,7.80494
910,7.75779
915,7.8296
920,7.97365
925,7.97286
930,7.93614
935,7.85402
940,7.76951
945,7.75254
950,7.82097
955,7.79534
960,7.76972
965,7.83814
970,7.82118
975,7.73667
980,7.66443
985,7.66338
990,7.60222
995,7.63833
1000,7.66281
1005,7.59842
1010,7.48079
1015,7.49115
1020,7.48627
1025,7.41641
1030,7.37931
1035,7.31781
1040,7.21023
1045,7.11794
1050,7.07842
1055,6.99192
1060,6.87363
1065,6.7406
1070,6.63735
1075,6.53475
1080,6.35793
1085,6.22616
1090,5.98441
1095,5.76068
1100,5.52755
1105,5.25444
1110,4.95969
1115,4.58849
1120,4.22354
1125,3.79019
1130,3.30385
1135,2.68815
1140,2.00348
1145,1.3302
1150,0.752213
1155,0.327901
1160,0.0811426
1165,-0.007804981
1170,-0.0244037
1175,-0.0171715
1180,-0.001838987
1185,0.008100318
1190,0.006977393
1195,-0.001254372
1200,-0.003019157

File: Aalto-I_Gasification_q50_MLR.csv
Time,MLR
s,[g/m2/s]
0,0
2,0
4,0
6.1,0
8.1,0
10.1,0
12.1,0.649612
14.1,1.29922
16.1,1.29922
18.1,1.33254
20,1.99881
22,2.59845
24,2.59845
26,2.59845
28,3.24806
30,3.89767
32,4.54728
34,5.1969
36,5.84651
38,6.49612
40,7.79534
42,8.44496
44,9.09457
46,9.74418
48,9.74418
50,11.0434
52,11.0434
54,11.0434
56,11.693
58,12.3426
60,12.9922
62,12.9922
64,12.9922
66,12.9922
68,13.6419
70,13.6419
72,13.6419
74,13.9429
76.1,14.5767
78.1,14.9411
80.1,14.9411
82.1,14.9411
84.1,14.9411
86.1,15.5907
88.1,15.5907
90.1,15.5907
92.1,15.5907
94.1,15.5907
96.1,16.2403
98.1,16.2403
100.1,16.2403
102.1,16.8899
104.1,16.8899
106.1,16.8899
108.1,16.8899
110.1,16.8899
112.1,16.8899
114.1,17.5395
116.1,17.5395
118.1,17.5395
120.1,18.1891
122.1,18.1891
124.1,18.1891
126.1,18.1891
128.1,18.1891
130.1,18.1891
132.1,18.8387
134.1,18.8387
136.1,18.8387
138.1,18.8387
140.1,18.8387
142.1,19.4884
144.1,19.4884
146.1,19.4884
148.1,20.138
150.1,20.138
152.1,19.4884
154.1,20.138
156.1,20.7876
158.1,20.138
160.1,20.138
162.1,20.7876
164.1,20.7876
166.1,21.4372
168.1,21.4372
170.1,20.7876
172.1,21.4372
174.1,21.4372
176.1,21.4372
178.1,22.0868
180.1,22.0868
182.1,22.0868
184.1,22.0868
186.1,22.0868
188.1,22.0868
190.1,22.0868
192.1,22.7364
194.1,22.7364
196.1,22.0868
198.1,22.7364
200.1,23.386
202.1,22.7364
204.1,22.7364
206.1,23.386
208.1,23.386
210.1,22.7364
212.1,22.7364
214.1,23.386
216.1,23.386
218.1,23.386
220.1,24.0356
222.1,24.0356
224.1,23.386
226.1,23.386
228.1,24.0356
230.1,24.0356
232.1,24.0356
234.1,24.6853
236.1,24.6853
238.1,24.6853
240.1,24.6853
242.1,24.6853
244.1,24.6853
246.1,25.3349
248.1,25.3349
250.1,25.3349
252.1,25.9845
254.1,25.9845
256.1,25.9845
258.1,25.9845
260.1,25.9845
262.1,25.9845
264.1,25.9845
266.1,26.6341
268.1,26.6341
270.1,26.6341
272.1,26.6341
274.1,26.6341
276.1,26.6341
278.1,26.6341
280.1,27.2837
282.1,27.2837
284.1,26.6341
286.1,26.6341
288.1,27.2837
290.1,27.2837
292.1,27.2837
294.1,27.2837
296.1,27.2837
298.1,27.2837
300.1,27.9833
302,27.317
304,26.6341
306,27.9333
308,27.9333
310,27.2837
312,27.2837
314,27.2837
316,27.9333
318,27.9333
320,27.2837
322,27.2837
324,27.2837
326,27.2837
328,27.2837
330,26.6341
332,26.6341
334,26.6341
336,25.9845
338,25.3349
340,24.0356
342,23.386
344,21.4372
346,18.8387
348,11.693
350,2.59845
352,0
354,0
356,0
358,0
360,0
362,0
364,0
366,0
368,0
370,0
372,0
374,0
376,0
378,0
380,0
382,0
384,0
386,0
388,0
390,0
392,0
394,0
396,0
398,0
400,0
402,0
404,0
406,0
408,0
410,0
412,0
414,0
416,0
418,0
420,0
422,0
424,0
426,0
428,0
430,0
432,0
434,0
436,0
438,0
440,0
442,0
444,0
446,0
448,0
450,0
452,0
454,0
456,0
458,0
460,0
462,0
464,0
466,0
468,0
470,0
472,0
474,0
476,0
478,0
480,0
482,0
484,0
486,0
488,0
490,0
492,0
494,0
496,0
498,0
500,0