Folder: matl-db/PMMA/Validation_Results/Aalto-Model_2-PMMA-Gasification

Note: PMMA/Validation_Results/README.md
## Predicted response of PMMA in response to radiant heating in an anaerobic environment

This folder holds model predictions of sample decomposition in response to well-defined heating at incident heat fluxes of 25 kW m-2 and 50 kW m-2 in the NIST Gasification Apparatus.

Note: these simulations may be considered as validation cases as material properties were independently calibrated based on measurement data obtained in other heating/environmental conditions in different apparatus (see: Calibration_Data).

File: Aalto_II_Gasification-25kW-BackTemp.csv
s,K
t,T_back
0,293.15
5.1,293.11
10.1,293.07
15.1,293.09
20,293.36
25,294.11
30,295.45
35,297.4
40,299.9
45,302.85
50,306.17
55,309.8
60,313.66
65,317.7
70,321.87
75,326.14
80.1,330.55
85.1,334.93
90.1,339.32
95.1,343.71
100.1,348.1
105.1,352.46
110.1,356.8
115.1,361.09
120.1,365.35
125.1,369.56
130.1,373.71
135.1,377.82
140.1,381.86
145.1,385.85
150.1,389.78
155.1,393.65
160.1,397.46
165.1,401.2
170.1,404.88
175.1,408.5
180.1,412.06
185.1,415.55
190.1,418.98
195.1,422.34
200.1,425.64
205.1,428.88
210.1,432.06
215.1,435.17
220.1,438.23
225.1,441.22
230.1,444.16
235.1,447.03
240.1,449.86
245.1,452.62
250.1,455.34
255.1,458
260.1,460.61
265.1,463.18
270.1,465.69
275.1,468.17
280.1,470.61
285.1,473
290.1,475.36
295.1,477.69
300.1,479.98
305,482.2
310,484.44
315,486.65
320,488.83
325,491
330,493.13
335,495.25
340,497.34
345,499.42
350,501.46
355,503.49
360,505.48
365,507.46
370,509.4
375,511.32
380,513.2
385,515.06
390,516.88
395,518.67
400,520.43
405,522.15
410,523.84
415,525.51
420,527.13
425,528.73
430,530.3
435,531.83
440,533.34
445,534.82
450,536.27
455,537.69
460,539.09
465,540.46
470,541.8
475,543.12
480,544.41
485,545.68
490,546.92
495,548.14
500,549.33
505,550.51
510,551.65
515,552.78
520,553.89
525,554.98
530,556.04
535,557.09
540,558.11
545,559.12
550,560.11
555,561.08
560,562.04
565,562.97
570,563.9
575,564.8
580,565.7
585,566.57
590,567.44
595,568.29
600,569.13
605,569.96
610,570.77
615,571.58
620,572.38
625,573.17
630,573.95
635,574.72
640,575.49
645,576.24
650,577
655,577.74
660,578.49
665,579.22
670,579.96
675,580.69
680,581.42
685,582.14
690,582.87
695,583.59
700,584.31
705,585.04
710,585.76
715,586.48
720,587.21
725,587.93
730,588.66
735,589.4
740,590.13
745,590.87
750,591.61
755,592.36
760,593.11
765,593.87
770,594.64
775,595.41
780,596.19
785,596.97
790,597.76
795,598.56
800,599.37
805,600.19
810,601.02
815,601.86
820,602.71
825,603.57
830,604.44
835,605.33
840,606.23
845,607.14
850,608.07
855,609.01
860,609.97
865,610.95
870,611.95
875,612.96
880,614
885,615.06
890,616.14
895,617.25
900,618.38
905,619.53
910,620.72
915,621.94
920,623.19
925,624.47
930,625.8
935,627.16
940,628.57
945,630.02
950,631.53
955,633.09
960,634.71
965,636.4
970,638.16
975,640
980,641.94
985,643.97
990,646.13
995,648.41
1000,650.85
1005,653.48
1010,656.32
1015,659.41
1020,662.84
1025,666.67
1030,671.03
1035,676.12
1040,682.23
1045,689.84
1050,699.75
1055,712.83
1060,727.1
1065,735.72
1070,739.48
1075,741.67
1080,743.23
1085,744.45
1090,745.44
1095,746.27
1100,746.98
1105,747.6
1110,748.15
1115,748.65
1120,749.1
1125,749.52
1130,749.91
1135,750.26
1140,750.6
1145,750.91
1150,751.2
1155,751.48
1160,751.74
1165,751.98
1170,752.21
1175,752.43
1180,752.64
1185,752.84
1190,753.03
1195,753.21
1200,753.39

File: Aalto_II_Gasification-25kW-MLR.csv
s,g/m2/s
t,MLR
0,0
5.1,0.0487
10.1,0.0545
15.1,0.0676
20,0.0954
25,0.1479
30,0.2299
35,0.338
40,0.4582
45,0.5686
50,0.6506
55,0.6972
60,0.7156
65,0.719
70,0.7185
75,0.7202
80.1,0.7265
85.1,0.7385
90.1,0.7567
95.1,0.782
100.1,0.8149
105.1,0.8561
110.1,0.9059
115.1,0.9647
120.1,1.0327
125.1,1.11
130.1,1.1963
135.1,1.2913
140.1,1.3946
145.1,1.5056
150.1,1.6235
155.1,1.7475
160.1,1.8768
165.1,2.0104
170.1,2.1476
175.1,2.2875
180.1,2.4293
185.1,2.5723
190.1,2.7158
195.1,2.8594
200.1,3.0024
205.1,3.1443
210.1,3.2849
215.1,3.4237
220.1,3.5604
225.1,3.6946
230.1,3.8261
235.1,3.9545
240.1,4.0797
245.1,4.2013
250.1,4.3191
255.1,4.4329
260.1,4.5423
265.1,4.6473
270.1,4.7476
275.1,4.8431
280.1,4.9337
285.1,5.0193
290.1,5.0998
295.1,5.1755
300.1,5.2464
305,5.3114
310,5.3735
315,5.4317
320,5.4864
325,5.5382
330,5.5876
335,5.6353
340,5.6821
345,5.7286
350,5.7755
355,5.8235
360,5.8731
365,5.9248
370,5.979
375,6.0359
380,6.0955
385,6.1579
390,6.2228
395,6.29
400,6.359
405,6.4296
410,6.5012
415,6.5735
420,6.6463
425,6.719
430,6.7916
435,6.8637
440,6.9352
445,7.0062
450,7.0763
455,7.1456
460,7.214
465,7.2814
470,7.3479
475,7.4135
480,7.478
485,7.5415
490,7.604
495,7.6655
500,7.7259
505,7.7851
510,7.8434
515,7.9005
520,7.9565
525,8.0114
530,8.0651
535,8.1177
540,8.1692
545,8.2194
550,8.2687
555,8.3165
560,8.3634
565,8.409
570,8.4534
575,8.4968
580,8.539
585,8.58
590,8.6198
595,8.6585
600,8.6963
605,8.7328
610,8.7683
615,8.8028
620,8.8362
625,8.8687
630,8.9002
635,8.9307
640,8.9603
645,8.9891
650,9.017
655,9.0441
660,9.0704
665,9.0959
670,9.1208
675,9.1449
680,9.1682
685,9.1911
690,9.2133
695,9.2349
700,9.2559
705,9.2764
710,9.2964
715,9.3159
720,9.335
725,9.3536
730,9.3719
735,9.3897
740,9.4072
745,9.4244
750,9.4412
755,9.4577
760,9.4739
765,9.4899
770,9.5056
775,9.521
780,9.5362
785,9.5512
790,9.5659
795,9.5804
800,9.5947
805,9.6088
810,9.6227
815,9.6364
820,9.6498
825,9.663
830,9.676
835,9.6887
840,9.7011
845,9.7132
850,9.7251
855,9.7366
860,9.7478
865,9.7586
870,9.769
875,9.7789
880,9.7883
885,9.7972
890,9.8055
895,9.813
900,9.8199
905,9.8258
910,9.8307
915,9.8346
920,9.8372
925,9.8385
930,9.8383
935,9.8362
940,9.8322
945,9.8257
950,9.8168
955,9.8048
960,9.7891
965,9.7692
970,9.7446
975,9.7142
980,9.677
985,9.6317
990,9.5767
995,9.5099
1000,9.4287
1005,9.3296
1010,9.2078
1015,9.0566
1020,8.8673
1025,8.6257
1030,8.3113
1035,7.8911
1040,7.3071
1045,6.4558
1050,5.1437
1055,3.1109
1060,0.874
1065,0.0972
1070,0.0379
1075,0.0358
1080,0.0355
1085,0.0351
1090,0.0348
1095,0.0345
1100,0.0342
1105,0.0339
1110,0.0335
1115,0.0332
1120,0.0329
1125,0.0326
1130,0.0323
1135,0.0319
1140,3.16E-02
1145,3.13E-02
1150,3.10E-02
1155,3.07E-02
1160,3.04E-02
1165,3.01E-02
1170,2.98E-02
1175,2.95E-02
1180,2.92E-02
1185,0.0289
1190,0.0286
1195,0.0283
1200,0.028

File: Aalto_II_Gasification-50kW-BackTemp.csv
s,K
t,T_back
0,293.15
2,293.15
4,293.15
6.1,293.15
8.1,293.15
10.1,293.151
12.1,293.156
14.1,293.171
16.1,293.21
18.1,293.289
20,293.42
22,293.635
24,293.951
26,294.383
28,294.949
30,295.658
32,296.52
34,297.54
36,298.719
38,300.059
40,301.558
42,303.211
44,305.014
46,306.962
48,309.046
50,311.259
52,313.593
54,316.039
56,318.588
58,321.23
60,323.959
62,326.763
64,329.636
66,332.57
68,335.556
70,338.589
72,341.661
74,344.768
76.1,347.982
78.1,351.22
80.1,354.399
82.1,357.593
84.1,360.799
86.1,364.012
88.1,367.231
90.1,370.452
92.1,373.673
94.1,376.892
96.1,380.108
98.1,383.317
100.1,386.52
102.1,389.714
104.1,392.899
106.1,396.072
108.1,399.234
110.1,402.3827
112.1,405.518
114.1,408.638
116.1,411.744
118.1,414.833
120.1,417.906
122.1,420.962
124.1,424
126.1,427.02
128.1,430.021
130.1,433.002
132.1,435.964
134.1,438.904
136.1,441.824
138.1,444.723
140.1,447.599
142.1,450.453
144.1,453.284
146.1,456.092
148.1,458.876
150.1,461.6355
152.1,464.371
154.1,467.082
156.1,469.769
158.1,472.431
160.1,475.068
162.1,477.681
164.1,480.2699
166.1,482.835
168.1,485.377
170.1,487.897
172.1,490.395
174.1,492.874
176.1,495.334
178.1,497.777
180.1,500.204
182.1,502.618
184.1,505.02
186.1,507.413
188.1,509.799
190.1,512.18
192.1,514.56
194.1,516.94
196.1,519.323
198.1,521.711
200.1,524.108
202.1,526.513
204.1,528.931
206.1,531.3618
208.1,533.807
210.1,536.266
212.1,538.7387
214.1,541.225
216.1,543.722
218.1,546.228
220.1,548.741
222.1,551.253
224.1,553.76
226.1,556.2569
228.1,558.737
230.1,561.193
232.1,563.619
234.1,566.008
236.1,568.353
238.1,570.649
240.1,572.892
242.1,575.08
244.1,577.212
246.1,579.287
248.1,581.308
250.1,583.277
252.1,585.196
254.1,587.069
256.1,588.901
258.1,590.695
260.1,592.457
262.1,594.192
264.1,595.903
266.1,597.5958
268.1,599.275
270.1,600.945
272.1,602.61
274.1,604.276
276.1,605.945
278.1,607.621
280.1,609.31
282.1,611.015
284.1,612.739
286.1,614.488
288.1,616.276
290.1,618.117
292.1,620.008
294.1,621.943
296.1,623.931
298.1,625.978
300.1,628.0794
302,630.192
304,632.373
306,634.685
308,637.081
310,639.578
312,642.166
314,644.869
316,647.6903
318,650.6412
320,653.741
322,656.999
324,660.433
326,664.029
328,667.513
330,671.143
332,674.936
334,678.878
336,682.947
338,687.16
340,691.782
342,697.22
344,704.782
346,715.463
348,740.777
350,816.796
352,824.913
354,831.678
356,836.071
358,839.26
360,841.76
362,843.814
364,845.55
366,847.045
368,848.344
370,849.502
372,850.528
374,851.456
376,852.298
378,853.076
380,853.796
382,854.464
384,855.092
386,855.687
388,856.241
390,856.768
392,857.267
394,857.738
396,858.185
398,858.619
400,859.024
402,859.417
404,859.787
406,860.147
408,860.489
410,860.817
412,861.134
414,861.428
416,861.729
418,862.006
420,862.276
422,862.541
424,862.803
426,863.0364
428,863.286
430,863.522
432,863.742
434,863.9735
436,864.186
438,864.404
440,864.61
442,864.817
444,865.0214
446,865.211
448,865.41
450,865.607
452,865.798
454,865.983
456,866.171
458,866.35
460,866.538
462,866.721
464,866.89
466,867.065
468,867.248
470,867.418
472,867.587
474,867.761
476,867.929
478,868.095
480,868.267
482,868.428
484,868.588
486,868.757
488,868.922
490,869.076
492,869.2352
494,869.399
496,869.557
498,869.7129
500,869.871

File: Aalto_II_Gasification-50kW-MLR.csv
s,g/m2/s
t,MLR
0,0
2,0.0477
4,0.0578
6.1,0.1072
8.1,0.2447
10.1,0.5111
12.1,0.8668
14.1,1.1779
16.1,1.3447
18.1,1.4155
20,1.4918
22,1.6417
24,1.8923
26,2.2624
28,2.7589
30,3.3725
32,4.0787
34,4.8428
36,5.6285
38,6.4046
40,7.1485
42,7.8466
44,8.4929
46,9.0861
48,9.6287
50,10.1241
52,10.577
54,10.9918
56,11.3726
58,11.7237
60,12.0485
62,12.35
64,12.63
66,12.8931
68,13.1381
70,13.3706
72,13.5885
74,13.7947
76.1,13.9972
78.1,14.1876
80.1,14.3664
82.1,14.5377
84.1,14.7005
86.1,14.8579
88.1,15.0126
90.1,15.1582
92.1,15.2992
94.1,15.4378
96.1,15.5754
98.1,15.7055
100.1,15.8317
102.1,15.9554
104.1,16.0801
106.1,16.2023
108.1,16.3191
110.1,16.4338
112.1,16.5468
114.1,16.6595
116.1,16.7744
118.1,16.884
120.1,16.9917
122.1,17.0984
124.1,17.2048
126.1,17.3111
128.1,17.4186
130.1,17.5233
132.1,17.6267
134.1,17.7297
136.1,17.8326
138.1,17.9356
140.1,18.0389
142.1,18.1423
144.1,18.2445
146.1,18.3462
148.1,18.448
150.1,18.5498
152.1,18.6519
154.1,18.7542
156.1,18.8564
158.1,18.9583
160.1,19.0599
162.1,19.1614
164.1,19.2631
166.1,19.3646
168.1,19.4661
170.1,19.5673
172.1,19.6681
174.1,19.7682
176.1,19.8675
178.1,19.9665
180.1,20.0652
182.1,20.163
184.1,20.2592
186.1,20.3542
188.1,20.4485
190.1,20.5415
192.1,20.6323
194.1,20.7222
196.1,20.8098
198.1,20.8953
200.1,20.9795
202.1,21.0611
204.1,21.1401
206.1,21.2179
208.1,21.2929
210.1,21.366
212.1,21.4368
214.1,21.5063
216.1,21.5744
218.1,21.6403
220.1,21.7068
222.1,21.7728
224.1,21.8387
226.1,21.9066
228.1,21.9764
230.1,22.0482
232.1,22.1248
234.1,22.2052
236.1,22.2909
238.1,22.3837
240.1,22.4819
242.1,22.5884
244.1,22.702
246.1,22.823
248.1,22.9523
250.1,23.0873
252.1,23.2311
254.1,23.379
256.1,23.5347
258.1,23.6937
260.1,23.8585
262.1,24.0264
264.1,24.1982
266.1,24.3733
268.1,24.551
270.1,24.7317
272.1,24.9145
274.1,25.0997
276.1,25.2868
278.1,25.4758
280.1,25.6666
282.1,25.8586
284.1,26.0519
286.1,26.2462
288.1,26.4409
290.1,26.6361
292.1,26.8313
294.1,27.0261
296.1,27.2201
298.1,27.4131
300.1,27.6047
302,27.79
304,27.9736
306,28.16
308,28.3444
310,28.5267
312,28.707
314,28.8853
316,29.0617
318,29.2366
320,29.4102
322,29.5829
324,29.755
326,29.9271
328,30.0995
330,30.2728
332,30.4471
334,30.6231
336,30.8004
338,30.9789
340,31.158
342,31.3365
344,31.5127
346,31.6822
348,3.18E+01
350,3.20E+01
352,32.0587
354,32.0613
356,31.8974
358,31.3663
360,29.8448
362,24.1975
364,2.0196
366,0.1197
368,0.121
370,0.1215
372,0.1215
374,0.1214
376,0.1212
378,0.1209
380,0.1206
382,0.1202
384,0.1198
386,0.1194
388,0.1189
390,0.1185
392,0.118
394,0.1176
396,0.1171
398,0.1166
400,0.1161
402,0.1157
404,0.1152
406,0.1147
408,0.1142
410,0.1137
412,0.1132
414,0.1127
416,0.1122
418,0.1117
420,0.1112
422,0.1107
424,0.1102
426,0.1097
428,0.1092
430,0.1087
432,0.1082
434,0.1077
436,0.1072
438,0.1068
440,0.1063
442,0.1058
444,0.1053
446,0.1048
448,0.1043
450,0.1039
452,0.1034
454,0.1029
456,0.1024
458,0.102
460,0.1015
462,0.101
464,0.1006
466,0.1001
468,0.0996
470,0.0992
472,0.0987
474,0.0982
476,0.0978
478,0.0973
480,0.0969
482,0.0964
484,0.096
486,0.0955
488,0.0951
490,0.0946
492,0.0942
494,0.0938
496,0.0933
498,0.0929
500,0.0924