Folder: matl-db/PMMA/Validation_Results/Aalto-II

Note: PMMA/Validation_Results/README.md
## Predicted response of PMMA in response to radiant heating in an anaerobic environment

This folder holds model predictions of sample decomposition in response to well-defined heating at incident heat fluxes of 25 kW m-2 and 50 kW m-2 in the NIST Gasification Apparatus.

Note: these simulations may be considered as validation cases as material properties were independently calibrated based on measurement data obtained in other heating/environmental conditions in different apparatus (see: Calibration_Data).

File: Aalto-II_Gasification_q25_MLR.csv
Time,MLR
s,[g/m2/s]
0,0.102959
5.1,-0.0713504
10.1,-0.0185099
15.1,0.132775
20,0.133446
25,0.197086
30,0.252029
35,0.271997
40,0.49859
45,0.598439
50,0.61854
55,0.649218
60,0.709342
65,0.733515
70,0.731871
75,0.711137
80.1,0.740681
85.1,0.734647
90.1,0.780884
95.1,0.779153
100.1,0.815546
105.1,0.877229
110.1,0.897396
115.1,0.958619
120.1,1.04093
125.1,1.09486
130.1,1.16482
135.1,1.31762
140.1,1.40597
145.1,1.54129
150.1,1.62892
155.1,1.73298
160.1,1.88531
165.1,2.02583
170.1,2.1712
175.1,2.31
180.1,2.42424
185.1,2.56994
190.1,2.76432
195.1,2.85149
200.1,3.02353
205.1,3.18762
210.1,3.24359
215.1,3.41662
220.1,3.60476
225.1,3.74363
230.1,3.86575
235.1,3.98524
240.1,4.0347
245.1,4.17561
250.1,4.31448
255.1,4.43692
260.1,4.5976
265.1,4.67768
270.1,4.75
275.1,4.81208
280.1,4.89879
285.1,5.0067
290.1,5.13398
295.1,5.27608
300.1,5.18255
305,5.32437
310,5.33487
315,5.41907
320,5.51563
325,5.52916
330,5.60759
335,5.67407
340,5.69595
345,5.7148
350,5.7642
355,5.83074
360,5.88546
365,5.93887
370,5.96035
375,6.01632
380,6.12885
385,6.19762
390,6.22686
395,6.31403
400,6.40718
405,6.49047
410,6.53028
415,6.55695
420,6.63098
425,6.72104
430,6.83548
435,6.86642
440,6.92764
445,6.98321
450,7.07564
455,7.17464
460,7.2197
465,7.31252
470,7.30726
475,7.46492
480,7.47845
485,7.54454
490,7.59748
495,7.69024
500,7.78181
505,7.79534
510,7.80888
515,7.90045
520,7.9932
525,8.04622
530,8.09693
535,8.09082
540,8.20906
545,8.19632
550,8.28428
555,8.29788
560,8.32855
565,8.41645
570,8.44975
575,8.53771
580,8.54218
585,8.56143
590,8.60826
595,8.67783
600,8.71416
605,8.77544
610,8.7855
615,8.79423
620,8.85427
625,8.8906
630,8.9155
635,8.94624
640,8.98684
645,9.05292
650,9.00484
655,9.01975
660,9.06829
665,9.13398
670,9.173
675,9.16065
680,9.13037
685,9.21583
690,9.2203
695,9.23462
700,9.23423
705,9.28678
710,9.29854
715,9.33
720,9.30819
725,9.36075
730,9.39977
735,9.40364
740,9.42729
745,9.38479
750,9.4242
755,9.45435
760,9.49633
765,9.5433
770,9.5498
775,9.51656
780,9.49942
785,9.55197
790,9.56209
795,9.59355
800,9.65793
805,9.62955
810,9.63875
815,9.66896
820,9.63868
825,9.64354
830,9.69774
835,9.72533
840,9.71048
845,9.70739
850,9.73367
855,9.75995
860,9.78622
865,9.76474
870,9.75817
875,9.76343
880,9.77617
885,9.8238
890,9.80501
895,9.83391
900,9.86019
905,9.8125
910,9.81775
915,9.84928
920,9.86807
925,9.86544
930,9.85224
935,9.85231
940,9.8418
945,9.85756
950,9.84442
955,9.82478
960,9.80678
965,9.74766
970,9.74418
975,9.72355
980,9.71186
985,9.68512
990,9.58048
995,9.52753
1000,9.41711
1005,9.33408
1010,9.20046
1015,9.03932
1020,8.89369
1025,8.57975
1030,8.29617
1035,7.90564
1040,7.34904
1045,6.47096
1050,4.92257
1055,2.97223
1060,1.24779
1065,0.191947
1070,-0.136308
1075,-0.0787627
1080,-0.0266703
1085,0.0135322
1090,0.131775
1095,0.184327
1100,0.171189
1105,0.0923607
1110,-0.0521581
1115,0
1120,0
1125,0
1130,0
1135,0
1140,0
1145,0
1150,0
1155,0
1160,0
1165,-0.0521581
1170,0.0923607
1175,0.171189
1180,0.184327
1185,0.131775
1190,-0.0185909
1195,-0.0709886
1200,0.102521

File: Aalto-II_Gasification_q50_MLR.csv
Time,MLR
s,[g/m2/s]
0,0
2,0
4,0
6.1,0
8.1,0.649612
10.1,0.649612
12.1,0.649612
14.1,1.29922
16.1,1.29922
18.1,1.33254
20,1.33254
22,1.94884
24,1.94884
26,1.94884
28,2.59845
30,3.24806
32,4.54728
34,5.1969
36,5.84651
38,6.49612
40,7.14573
42,7.79534
44,8.44496
46,9.09457
48,9.09457
50,9.74418
52,11.0434
54,11.0434
56,11.0434
58,11.693
60,12.3426
62,12.9922
64,12.3426
66,12.3426
68,13.6419
70,13.6419
72,13.6419
74,13.9429
76.1,13.9429
78.1,14.2915
80.1,14.2915
82.1,14.2915
84.1,14.9411
86.1,14.9411
88.1,14.9411
90.1,14.9411
92.1,14.9411
94.1,15.5907
96.1,15.5907
98.1,15.5907
100.1,16.2403
102.1,16.2403
104.1,15.5907
106.1,16.2403
108.1,16.8899
110.1,16.2403
112.1,16.2403
114.1,16.8899
116.1,16.8899
118.1,16.8899
120.1,16.8899
122.1,16.8899
124.1,17.5395
126.1,17.5395
128.1,17.5395
130.1,17.5395
132.1,17.5395
134.1,17.5395
136.1,17.5395
138.1,18.1891
140.1,18.1891
142.1,18.1891
144.1,18.1891
146.1,18.1891
148.1,18.8387
150.1,18.8387
152.1,18.1891
154.1,18.8387
156.1,18.8387
158.1,18.8387
160.1,19.4884
162.1,19.4884
164.1,18.8387
166.1,18.8387
168.1,19.4884
170.1,20.138
172.1,20.138
174.1,19.4884
176.1,19.4884
178.1,20.138
180.1,20.138
182.1,20.138
184.1,20.7876
186.1,20.138
188.1,20.138
190.1,20.7876
192.1,20.7876
194.1,20.7876
196.1,20.7876
198.1,20.7876
200.1,20.7876
202.1,21.4372
204.1,21.4372
206.1,20.7876
208.1,21.4372
210.1,21.4372
212.1,21.4372
214.1,21.4372
216.1,21.4372
218.1,22.0868
220.1,21.4372
222.1,21.4372
224.1,22.0868
226.1,22.0868
228.1,22.0868
230.1,22.0868
232.1,22.0868
234.1,22.0868
236.1,22.0868
238.1,22.7364
240.1,22.7364
242.1,22.7364
244.1,22.7364
246.1,22.7364
248.1,22.7364
250.1,22.7364
252.1,23.386
254.1,23.386
256.1,24.0356
258.1,24.0356
260.1,23.386
262.1,24.0356
264.1,24.6853
266.1,24.0356
268.1,24.0356
270.1,25.3349
272.1,25.3349
274.1,24.6853
276.1,25.3349
278.1,25.9845
280.1,25.3349
282.1,25.3349
284.1,26.6341
286.1,26.6341
288.1,25.9845
290.1,26.6341
292.1,27.2837
294.1,27.2837
296.1,27.2837
298.1,27.2837
300.1,27.9833
302,27.9833
304,27.2837
306,27.9333
308,28.5829
310,28.5829
312,28.5829
314,29.2325
316,29.2325
318,29.2325
320,29.2325
322,29.2325
324,29.8822
326,29.8822
328,30.5318
330,30.5318
332,30.5318
334,30.5318
336,30.5318
338,31.1814
340,31.1814
342,31.1814
344,31.831
346,31.831
348,31.831
350,31.831
352,31.831
354,32.4806
356,31.831
358,31.1814
360,29.2325
362,20.138
364,7.14573
366,0.649612
368,0
370,0
372,0
374,0
376,0
378,0
380,0
382,0
384,0.649612
386,0.649612
388,0
390,0
392,0
394,0
396,0
398,0
400,0
402,0
404,0
406,0.649612
408,0.649612
410,0
412,0
414,0
416,0
418,0
420,0
422,0
424,0
426,0
428,0
430,0.649612
432,0.649612
434,0
436,0
438,0
440,0
442,0
444,0
446,0
448,0
450,0
452,0
454,0.649612
456,0.649612
458,0
460,0
462,0
464,0
466,0
468,0
470,0
472,0
474,0
476,0
478,0
480,0.649612
482,0.649612
484,0
486,0
488,0
490,0
492,0
494,0
496,0
498,0
500,0