Folder: matl-db/PMMA/Validation_Results/Aalto-II-PMMA-Gasification

Note: PMMA/Validation_Results/README.md
## Predicted response of PMMA in response to radiant heating in an anaerobic environment

This folder holds model predictions of sample decomposition in response to well-defined heating at incident heat fluxes of 25 kW m-2 and 50 kW m-2 in the NIST Gasification Apparatus.

Note: these simulations may be considered as validation cases as material properties were independently calibrated based on measurement data obtained in other heating/environmental conditions in different apparatus (see: Calibration_Data).

File: Aalto_II_PMMA_Gasification_q25_Temp.csv
Time,T_back
s,K
0,293.15
5.1,293.11
10.1,293.07
15.1,293.09
20,293.36
25,294.11
30,295.45
35,297.4
40,299.9
45,302.85
50,306.17
55,309.8
60,313.66
65,317.7
70,321.87
75,326.14
80.1,330.55
85.1,334.93
90.1,339.32
95.1,343.71
100.1,348.1
105.1,352.46
110.1,356.8
115.1,361.09
120.1,365.35
125.1,369.56
130.1,373.71
135.1,377.82
140.1,381.86
145.1,385.85
150.1,389.78
155.1,393.65
160.1,397.46
165.1,401.2
170.1,404.88
175.1,408.5
180.1,412.06
185.1,415.55
190.1,418.98
195.1,422.34
200.1,425.64
205.1,428.88
210.1,432.06
215.1,435.17
220.1,438.23
225.1,441.22
230.1,444.16
235.1,447.03
240.1,449.86
245.1,452.62
250.1,455.34
255.1,458
260.1,460.61
265.1,463.18
270.1,465.69
275.1,468.17
280.1,470.61
285.1,473
290.1,475.36
295.1,477.69
300.1,479.98
305,482.2
310,484.44
315,486.65
320,488.83
325,491
330,493.13
335,495.25
340,497.34
345,499.42
350,501.46
355,503.49
360,505.48
365,507.46
370,509.4
375,511.32
380,513.2
385,515.06
390,516.88
395,518.67
400,520.43
405,522.15
410,523.84
415,525.51
420,527.13
425,528.73
430,530.3
435,531.83
440,533.34
445,534.82
450,536.27
455,537.69
460,539.09
465,540.46
470,541.8
475,543.12
480,544.41
485,545.68
490,546.92
495,548.14
500,549.33
505,550.51
510,551.65
515,552.78
520,553.89
525,554.98
530,556.04
535,557.09
540,558.11
545,559.12
550,560.11
555,561.08
560,562.04
565,562.97
570,563.9
575,564.8
580,565.7
585,566.57
590,567.44
595,568.29
600,569.13
605,569.96
610,570.77
615,571.58
620,572.38
625,573.17
630,573.95
635,574.72
640,575.49
645,576.24
650,577
655,577.74
660,578.49
665,579.22
670,579.96
675,580.69
680,581.42
685,582.14
690,582.87
695,583.59
700,584.31
705,585.04
710,585.76
715,586.48
720,587.21
725,587.93
730,588.66
735,589.4
740,590.13
745,590.87
750,591.61
755,592.36
760,593.11
765,593.87
770,594.64
775,595.41
780,596.19
785,596.97
790,597.76
795,598.56
800,599.37
805,600.19
810,601.02
815,601.86
820,602.71
825,603.57
830,604.44
835,605.33
840,606.23
845,607.14
850,608.07
855,609.01
860,609.97
865,610.95
870,611.95
875,612.96
880,614
885,615.06
890,616.14
895,617.25
900,618.38
905,619.53
910,620.72
915,621.94
920,623.19
925,624.47
930,625.8
935,627.16
940,628.57
945,630.02
950,631.53
955,633.09
960,634.71
965,636.4
970,638.16
975,640
980,641.94
985,643.97
990,646.13
995,648.41
1000,650.85
1005,653.48
1010,656.32
1015,659.41
1020,662.84
1025,666.67
1030,671.03
1035,676.12
1040,682.23
1045,689.84
1050,699.75
1055,712.83
1060,727.1
1065,735.72
1070,739.48
1075,741.67
1080,743.23
1085,744.45
1090,745.44
1095,746.27
1100,746.98
1105,747.6
1110,748.15
1115,748.65
1120,749.1
1125,749.52
1130,749.91
1135,750.26
1140,750.6
1145,750.91
1150,751.2
1155,751.48
1160,751.74
1165,751.98
1170,752.21
1175,752.43
1180,752.64
1185,752.84
1190,753.03
1195,753.21
1200,753.39

File: Aalto_II_PMMA_Gasification_q50_Temp.csv
Time,T_back
s,K
0,293.15
2,293.15
4,293.15
6.1,293.15
8.1,293.15
10.1,293.151
12.1,293.156
14.1,293.171
16.1,293.21
18.1,293.289
20,293.42
22,293.635
24,293.951
26,294.383
28,294.949
30,295.658
32,296.52
34,297.54
36,298.719
38,300.059
40,301.558
42,303.211
44,305.014
46,306.962
48,309.046
50,311.259
52,313.593
54,316.039
56,318.588
58,321.23
60,323.959
62,326.763
64,329.636
66,332.57
68,335.556
70,338.589
72,341.661
74,344.768
76.1,347.982
78.1,351.22
80.1,354.399
82.1,357.593
84.1,360.799
86.1,364.012
88.1,367.231
90.1,370.452
92.1,373.673
94.1,376.892
96.1,380.108
98.1,383.317
100.1,386.52
102.1,389.714
104.1,392.899
106.1,396.072
108.1,399.234
110.1,402.3827
112.1,405.518
114.1,408.638
116.1,411.744
118.1,414.833
120.1,417.906
122.1,420.962
124.1,424
126.1,427.02
128.1,430.021
130.1,433.002
132.1,435.964
134.1,438.904
136.1,441.824
138.1,444.723
140.1,447.599
142.1,450.453
144.1,453.284
146.1,456.092
148.1,458.876
150.1,461.6355
152.1,464.371
154.1,467.082
156.1,469.769
158.1,472.431
160.1,475.068
162.1,477.681
164.1,480.2699
166.1,482.835
168.1,485.377
170.1,487.897
172.1,490.395
174.1,492.874
176.1,495.334
178.1,497.777
180.1,500.204
182.1,502.618
184.1,505.02
186.1,507.413
188.1,509.799
190.1,512.18
192.1,514.56
194.1,516.94
196.1,519.323
198.1,521.711
200.1,524.108
202.1,526.513
204.1,528.931
206.1,531.3618
208.1,533.807
210.1,536.266
212.1,538.7387
214.1,541.225
216.1,543.722
218.1,546.228
220.1,548.741
222.1,551.253
224.1,553.76
226.1,556.2569
228.1,558.737
230.1,561.193
232.1,563.619
234.1,566.008
236.1,568.353
238.1,570.649
240.1,572.892
242.1,575.08
244.1,577.212
246.1,579.287
248.1,581.308
250.1,583.277
252.1,585.196
254.1,587.069
256.1,588.901
258.1,590.695
260.1,592.457
262.1,594.192
264.1,595.903
266.1,597.5958
268.1,599.275
270.1,600.945
272.1,602.61
274.1,604.276
276.1,605.945
278.1,607.621
280.1,609.31
282.1,611.015
284.1,612.739
286.1,614.488
288.1,616.276
290.1,618.117
292.1,620.008
294.1,621.943
296.1,623.931
298.1,625.978
300.1,628.0794
302,630.192
304,632.373
306,634.685
308,637.081
310,639.578
312,642.166
314,644.869
316,647.6903
318,650.6412
320,653.741
322,656.999
324,660.433
326,664.029
328,667.513
330,671.143
332,674.936
334,678.878
336,682.947
338,687.16
340,691.782
342,697.22
344,704.782
346,715.463
348,740.777
350,816.796
352,824.913
354,831.678
356,836.071
358,839.26
360,841.76
362,843.814
364,845.55
366,847.045
368,848.344
370,849.502
372,850.528
374,851.456
376,852.298
378,853.076
380,853.796
382,854.464
384,855.092
386,855.687
388,856.241
390,856.768
392,857.267
394,857.738
396,858.185
398,858.619
400,859.024
402,859.417
404,859.787
406,860.147
408,860.489
410,860.817
412,861.134
414,861.428
416,861.729
418,862.006
420,862.276
422,862.541
424,862.803
426,863.0364
428,863.286
430,863.522
432,863.742
434,863.9735
436,864.186
438,864.404
440,864.61
442,864.817
444,865.0214
446,865.211
448,865.41
450,865.607
452,865.798
454,865.983
456,866.171
458,866.35
460,866.538
462,866.721
464,866.89
466,867.065
468,867.248
470,867.418
472,867.587
474,867.761
476,867.929
478,868.095
480,868.267
482,868.428
484,868.588
486,868.757
488,868.922
490,869.076
492,869.2352
494,869.399
496,869.557
498,869.7129
500,869.871