Folder: matl-db/PMMA/Validation_Results/Aalto-Model_1-PMMA-Gasification

Note: PMMA/Validation_Results/Aalto-Model_1-PMMA-Gasification/README.md
### Contributor
Name: Aleksi Rinta-Paavola

Institution: Aalto University

Country: Finland

------------------

### Test case

NIST gasification apparatus

------------------

### CFD package
Code: FDS

Version: 6.8.0-0-g886e009-release

------------------

### Resolution

#### Computational domain discretization (flow solver)
Domain: Width = height = length = 0.186 m. The simulated solid material is the size of a single grid cell face and assigned to the center of the domain bottom, rest of the bottom is inert solid boundary. Side and top boundaries are open.

Cell size: 0.062 m

Cell type: Cubic.

Total cells: 27 (3 in each direction)

Comments: Simulations of NIST gasification apparatus carried out without gaseous phase.

#### Angular space discretization (radiation solver)
Number of solid angles:

Comments: Radiation outside the specimen not considered.

------------------

### Initial conditions
Comments: Ambient temperature.

------------------

### Boundary conditions
Comments: On the exposed side incident heat flux equal to the nominal value from the heater (25 or 50 kW/m2). On the unexposed side, a Kaowool insulation layer of 2.85 cm as in experiments modelled as the boundary condition.

------------------

### Models (include parameters)
Turbulence model (include Sc_t and Pr_t):

Combustion model:

Radiation model:

Radiative fraction: (predicted or prescribed; if prescribed, what value)

Soot model:

Comments: Simulations of NIST gasification apparatus carried out without gaseous phase.

------------------

### Pyrolysis Models (include parameters)
Solver (e.g., GPyro, FDS, ThermaKin; include version): FDS 6.8.0-0-g886e009-release

Radiation absorption model: Effective absorption coefficient.

Material property set: developed by Aalto University; calibration data: University of Lille (TGA for chemical kinetics estimation), Aalto University, DBI and University of Lund (gasification for material properties estimation); calibration method used: Gpyro (chemical kinetics), PROPTI (material properties).


Comments: The accompanying numerical results are obtained using the pyrolysis model developed at Aalto University during MaCFP Phase II.

------------------

### Discretization methods
Time: Explicit Euler

CFL: This and below not applicable as simulations are carried out without gaseous phase.

Advection:

Diffusion:

Pressure-velocity coupling:

------------------

### Computational Cost (hh:mm:ss)
Wall clock time: 9.75 s (25 kW/m2), 4.34 s (50 kW/m2)

Simulation time: 1200 s (25 kW/m2), 500 s (50 kW/m2)

Number of CPUs (MPI Processes): 1 (both 25 and 50 kW/m2)

CPU cost (Number of CPUs * Wall clock time / Simulation time / Total cells): 0.000301 (25 kW/m2), 0.000321 (50 kW/m2)

------------------

### Averaging period

------------------

### Special issues/problems

------------------

### Relevant publications

File: Aalto_I_Gasification_q25_Mass.csv
s,g
t,m
0,25.63948
5.1,25.63948
10.1,25.6395
15.1,25.6394
20,25.6393
25,25.6389
30,25.6379
35,25.6359
40,25.6324
45,25.6269
50,25.6189
55,25.6083
60,25.5952
65,25.5799
70,25.5632
75,25.5456
80.1,25.5273
85.1,25.5094
90.1,25.4918
95.1,25.4743
100.1,25.4569
105.1,25.4392
110.1,25.42108
115.1,25.4023
120.1,25.3825
125.1,25.3616
130.1,25.3394
135.1,25.3156
140.1,25.29
145.1,25.2625
150.1,25.2329
155.1,25.20093
160.1,25.1665
165.1,25.1295
170.1,25.0899
175.1,25.0475
180.1,25.0022
185.1,24.9541
190.1,24.903
195.1,24.84901
200.1,24.7921
205.1,24.7322
210.1,24.66945
215.1,24.6038
220.1,24.5353
225.1,24.464
230.1,24.39
235.1,24.3133
240.1,24.23395
245.1,24.1521
250.1,24.0678
255.1,23.9812
260.1,23.89234
265.1,23.8013
270.1,23.7083
275.1,23.6133
280.1,23.5164
285.1,23.41789
290.1,23.3177
295.1,23.2161
300.1,23.1131
305,23.0108
310,22.9053
315,22.7987
320,22.691
325,22.5824
330,22.473
335,22.3627
340,22.25159
345,22.1398
350,22.0273
355,21.9141
360,21.8003
365,21.6858
370,21.5706
375,21.4547
380,21.3381
385,21.2207
390,21.10253
395,20.9835
400,20.86357
405,20.7427
410,20.6209
415,20.498
420,20.3741
425,20.2491
430,20.1231
435,19.996
440,19.8678
445,19.7385
450,19.6083
455,19.477
460,19.3447
465,19.2115
470,19.0773
475,18.9423
480,18.8065
485,18.6698
490,18.5325
495,18.3944
500,18.2557
505,18.1163
510,17.9763
515,17.8357
520,17.6947
525,17.5531
530,17.411
535,17.2684
540,17.12544
545,16.982
550,16.8382
555,16.6941
560,16.5496
565,16.4047
570,16.2596
575,16.1141
580,15.9684
585,15.82241
590,15.6761
595,15.5296
600,15.3829
605,15.2359
610,15.0887
615,14.9414
620,14.7938
625,14.646
630,14.4981
635,14.3499
640,14.2017
645,14.0532
650,13.9046
655,13.7558
660,13.6069
665,13.4578
670,13.3086
675,13.1593
680,13.0098
685,12.8602
690,12.7105
695,12.5607
700,12.4107
705,12.2606
710,12.1105
715,11.9602
720,11.8098
725,11.6594
730,11.5088
735,11.3581
740,11.20741
745,11.0566
750,10.90574
755,10.7548
760,10.6037
765,10.4526
770,10.3014
775,10.15006
780,9.998681
785,9.847205
790,9.69568
795,9.544067
800,9.3924
805,9.240663
810,9.088869
815,8.93703
820,8.785125
825,8.633202
830,8.481217
835,8.329219
840,8.177173
845,8.025104
850,7.873022
855,7.720918
860,7.568832
865,7.416728
870,7.264655
875,7.112591
880,6.960549
885,6.808537
890,6.656544
895,6.504617
900,6.352734
905,6.200948
910,6.049237
915,5.897629
920,5.746126
925,5.594742
930,5.443514
935,5.292422
940,5.141516
945,4.990782
950,4.840274
955,4.69
960,4.539987
965,4.390266
970,4.240845
975,4.091783
980,3.943082
985,3.794824
990,3.647004
995,3.499701
1000,3.35295
1005,3.206809
1010,3.061336
1015,2.916601
1020,2.772689
1025,2.62966
1030,2.487626
1035,2.346676
1040,2.206962
1045,2.068553
1050,1.931665
1055,1.796373
1060,1.662972
1065,1.531526
1070,1.402431
1075,1.275754
1080,1.152017
1085,1.031295
1090,0.914229
1095,0.800986
1100,0.692231
1105,0.588492
1110,0.490041
1115,0.398557
1120,0.313752
1125,0.236692
1130,0.168668
1135,0.111125
1140,6.56E-02
1145,3.31E-02
1150,1.37E-02
1155,4.53E-03
1160,1.25E-03
1165,3.01E-04
1170,6.63E-05
1175,1.33E-05
1180,4.42E-06
1185,0
1190,0
1195,0
1200,0

File: Aalto_I_Gasification_q25_Temp.csv
s,K
t,T_back
0,293.15
5.1,293.15
10.1,293.15
15.1,293.167
20,293.278
25,293.6319
30,294.367
35,295.573
40,297.287
45,299.502
50,302.191
55,305.309
60,308.805
65,312.629
70,316.729
75,321.058
80.1,325.665
85.1,330.33
90.1,335.108
95.1,339.97
100.1,344.892
105.1,349.851
110.1,354.832
115.1,359.818
120.1,364.797
125.1,369.758
130.1,374.69
135.1,379.584
140.1,384.434
145.1,389.23
150.1,393.968
155.1,398.64
160.1,403.243
165.1,407.769
170.1,412.216
175.1,416.579
180.1,420.854
185.1,425.038
190.1,429.128
195.1,433.1211
200.1,437.016
205.1,440.811
210.1,444.5033
215.1,448.094
220.1,451.582
225.1,454.968
230.1,458.253
235.1,461.4378
240.1,464.525
245.1,467.516
250.1,470.416
255.1,473.227
260.1,475.952
265.1,478.597
270.1,481.167
275.1,483.665
280.1,486.099
285.1,488.471
290.1,490.789
295.1,493.056
300.1,495.278
305,497.417
310,499.564
315,501.68
320,503.767
325,505.829
330,507.868
335,509.888
340,511.888
345,513.87
350,515.834
355,517.78
360,519.707
365,521.612
370,523.495
375,525.353
380,527.182
385,528.98
390,530.741
395,532.465
400,534.149
405,535.788
410,537.38
415,538.925
420,540.42
425,541.866
430,543.261
435,544.6074
440,545.905
445,547.155
450,548.36
455,549.522
460,550.642
465,551.723
470,552.766
475,553.775
480,554.749
485,555.693
490,556.607
495,557.492
500,558.3515
505,559.187
510,560.0001
515,560.793
520,561.565
525,562.321
530,563.059
535,563.781
540,564.488
545,565.183
550,565.865
555,566.537
560,567.198
565,567.849
570,568.493
575,569.127
580,569.755
585,570.376
590,570.992
595,571.602
600,572.208
605,572.81
610,573.406
615,573.999
620,574.591
625,575.179
630,575.765
635,576.35
640,576.931
645,577.515
650,578.095
655,578.674
660,579.2544
665,579.833
670,580.415
675,580.993
680,581.574
685,582.156
690,582.736
695,583.321
700,583.905
705,584.491
710,585.08
715,585.667
720,586.26
725,586.853
730,587.448
735,588.047
740,588.647
745,589.268
750,589.883
755,590.504
760,591.138
765,591.76
770,592.402
775,593.032
780,593.683
785,594.324
790,594.983
795,595.649
800,596.302
805,596.978
810,597.641
815,598.329
820,599.002
825,599.702
830,600.409
835,601.1017
840,601.822
845,602.527
850,603.264
855,603.9843
860,604.737
865,605.494
870,606.244
875,607.022
880,607.786
885,608.585
890,609.37
895,610.193
900,611.012
905,611.841
910,612.699
915,613.54
920,614.4268
925,615.292
930,616.21
935,617.111
940,618.053
945,619.016
950,619.961
955,620.964
960,621.94
965,622.988
970,623.999
975,625.095
980,626.176
985,627.288
990,628.451
995,629.58
1000,630.805
1005,631.978
1010,633.264
1015,634.487
1020,635.84
1025,637.122
1030,638.538
1035,639.897
1040,641.369
1045,642.832
1050,644.334
1055,645.891
1060,647.435
1065,649.061
1070,650.679
1075,652.344
1080,654.064
1085,655.829
1090,657.606
1095,659.5342
1100,661.303
1105,663.508
1110,665.525
1115,667.696
1120,670.754
1125,674.201
1130,678.133
1135,682.634
1140,687.729
1145,693.231
1150,698.509
1155,702.631
1160,705.421
1165,707.108
1170,708.236
1175,708.95
1180,709.529
1185,710.6513
1190,713.432
1195,713.392
1200,713.546

File: Aalto_I_Gasification_q50_Mass.csv
s,g
t,m
0,25.63948
2,25.63948
4,25.63948
6.1,25.6394
8.1,25.6393
10.1,25.6386
12.1,25.6367
14.1,25.6325
16.1,25.6247
18.1,25.6127
20,25.5977
22,25.5793
24,25.5597
26,25.5393
28,25.5172
30,25.4916
32,25.4611
34,25.4244
36,25.3811
38,25.3313
40,25.27509
42,25.2131
44,25.1459
46,25.074
48,24.99779
50,24.9177
52,24.8341
54,24.7474
56,24.6576
58,24.5652
60,24.4703
62,24.373
64,24.2736
66,24.1722
68,24.0688
70,23.96356
72,23.8566
74,23.7481
76.1,23.6351
78.1,23.5207
80.1,23.4075
82.1,23.293
84.1,23.1771
86.1,23.0599
88.1,22.9414
90.1,22.8217
92.1,22.7007
94.1,22.5786
96.1,22.4553
98.1,22.33086
100.1,22.2053
102.1,22.0785
104.1,21.9507
106.1,21.8218
108.1,21.6918
110.1,21.5607
112.1,21.4286
114.1,21.2953
116.1,21.161
118.1,21.0256
120.1,20.8891
122.1,20.7516
124.1,20.613
126.1,20.4734
128.1,20.3327
130.1,20.1909
132.1,20.0481
134.1,19.9041
136.1,19.7591
138.1,19.6131
140.1,19.4659
142.1,19.3177
144.1,19.1684
146.1,19.0181
148.1,18.8667
150.1,18.7142
152.1,18.5606
154.1,18.4059
156.1,18.2502
158.1,18.0934
160.1,17.9355
162.1,17.7766
164.1,17.6167
166.1,17.4557
168.1,17.2937
170.1,17.1307
172.1,16.9667
174.1,16.8018
176.1,16.63588
178.1,16.4691
180.1,16.30129
182.1,16.13263
184.1,15.9631
186.1,15.7928
188.1,15.6217
190.1,15.4498
192.1,15.2772
194.1,15.1038
196.1,14.9298
198.1,14.7551
200.1,14.5799
202.1,14.404
204.1,14.2275
206.1,14.0505
208.1,13.8729
210.1,13.6948
212.1,13.5161
214.1,13.3369
216.1,13.1571
218.1,12.9768
220.1,12.7959
222.1,12.6143
224.1,12.4321
226.1,12.2491
228.1,12.0653
230.1,11.8807
232.1,11.6951
234.1,11.5086
236.1,11.3209
238.1,11.13222
240.1,10.9424
242.1,10.7514
244.1,10.5592
246.1,10.3658
248.1,10.1713
250.1,9.975698
252.1,9.778995
254.1,9.581275
256.1,9.382569
258.1,9.182917
260.1,8.982394
262.1,8.78104
264.1,8.578926
266.1,8.376087
268.1,8.172567
270.1,7.968375
272.1,7.763559
274.1,7.558183
276.1,7.352267
278.1,7.145842
280.1,6.938958
282.1,6.731628
284.1,6.523864
286.1,6.31568
288.1,6.107112
290.1,5.898247
292.1,5.68906
294.1,5.479528
296.1,5.26966
298.1,5.059456
300.1,4.84893
302,4.643354
304,4.437504
306,4.226125
308,4.014497
310,3.802671
312,3.59069
314,3.378603
316,3.16648
318,2.954389
320,2.742447
322,2.53082
324,2.319683
326,2.109245
328,1.899806
330,1.691671
332,1.485335
334,1.281413
336,1.080655
338,0.884063
340,0.693013
342,0.509487
344,0.334944
346,0.175869
348,4.36E-02
350,4.42E-06
352,0
354,0
356,0
358,0
360,0
362,0
364,0
366,0
368,0
370,0
372,0
374,0
376,0
378,0
380,0
382,0
384,0
386,0
388,0
390,0
392,0
394,0
396,0
398,0
400,0
402,0
404,0
406,0
408,0
410,0
412,0
414,0
416,0
418,0
420,0
422,0
424,0
426,0
428,0
430,0
432,0
434,0
436,0
438,0
440,0
442,0
444,0
446,0
448,0
450,0
452,0
454,0
456,0
458,0
460,0
462,0
464,0
466,0
468,0
470,0
472,0
474,0
476,0
478,0
480,0
482,0
484,0
486,0
488,0
490,0
492,0
494,0
496,0
498,0
500,0

File: Aalto_I_Gasification_q50_Temp.csv
s,K
t,T_back
0,293.15
2,293.14
4,293.12
6.1,293.1
8.1,293.09
10.1,293.07
12.1,293.07
14.1,293.1
16.1,293.19
18.1,293.37
20,293.65
22,294.07
24,294.64
26,295.37
28,296.25
30,297.29
32,298.49
34,299.83
36,301.3
38,302.9
40,304.61
42,306.43
44,308.34
46,310.34
48,312.41
50,314.56
52,316.77
54,319.03
56,321.34
58,323.69
60,326.08
62,328.49
64,330.93
66,333.39
68,335.87
70,338.36
72,340.85
74,343.36
76.1,345.93
78.1,348.5
80.1,351.01
82.1,353.52
84.1,356.02
86.1,358.52
88.1,361.01
90.1,363.5
92.1,365.98
94.1,368.45
96.1,370.91
98.1,373.36
100.1,375.8
102.1,378.23
104.1,380.65
106.1,383.07
108.1,385.47
110.1,387.86
112.1,390.23
114.1,392.6
116.1,394.96
118.1,397.31
120.1,399.64
122.1,401.97
124.1,404.29
126.1,406.59
128.1,408.89
130.1,411.18
132.1,413.45
134.1,415.72
136.1,417.98
138.1,420.23
140.1,422.47
142.1,424.71
144.1,426.93
146.1,429.15
148.1,431.36
150.1,433.56
152.1,435.75
154.1,437.94
156.1,440.12
158.1,442.3
160.1,444.46
162.1,446.63
164.1,448.78
166.1,450.93
168.1,453.08
170.1,455.22
172.1,457.35
174.1,459.49
176.1,461.61
178.1,463.74
180.1,465.86
182.1,467.98
184.1,470.1
186.1,472.22
188.1,474.33
190.1,476.45
192.1,478.56
194.1,480.68
196.1,482.8
198.1,484.93
200.1,487.05
202.1,489.19
204.1,491.32
206.1,493.47
208.1,495.62
210.1,497.78
212.1,499.94
214.1,502.12
216.1,504.31
218.1,506.51
220.1,508.72
222.1,510.94
224.1,513.17
226.1,515.41
228.1,517.67
230.1,519.93
232.1,522.21
234.1,524.49
236.1,526.78
238.1,529.07
240.1,531.37
242.1,533.68
244.1,535.98
246.1,538.29
248.1,540.59
250.1,542.89
252.1,545.19
254.1,547.48
256.1,549.76
258.1,552.04
260.1,554.31
262.1,556.58
264.1,558.84
266.1,561.08
268.1,563.33
270.1,565.56
272.1,567.78
274.1,570
276.1,572.21
278.1,574.4
280.1,576.59
282.1,578.77
284.1,580.94
286.1,583.1
288.1,585.25
290.1,587.39
292.1,589.53
294.1,591.66
296.1,593.78
298.1,595.9
300.1,598.02
302,600.08
304,602.15
306,604.28
308,606.42
310,608.58
312,610.76
314,612.96
316,615.19
318,617.46
320,619.78
322,622.14
324,624.57
326,627.07
328,629.65
330,632.33
332,635.12
334,638.03
336,641.08
338,644.3
340,647.72
342,651.36
344,655.28
346,659.52
348,664.17
350,669.32
352,675.14
354,681.84
356,689.85
358,699.94
360,713.96
362,738.03
364,792.55
366,833.11
368,850.81
370,860.96
372,867.71
374,872.56
376,876.27
378,879.25
380,881.73
382,883.86
384,885.72
386,887.37
388,888.83
390,890.15
392,891.34
394,892.42
396,893.4
398,894.29
400,895.11
402,895.86
404,896.56
406,897.21
408,897.82
410,898.39
412,898.93
414,899.43
416,899.92
418,900.38
420,900.82
422,901.25
424,901.65
426,902.05
428,902.42
430,902.79
432,903.14
434,903.48
436,903.81
438,904.13
440,904.44
442,904.74
444,905.04
446,905.32
448,905.6
450,905.87
452,906.13
454,906.39
456,906.64
458,906.88
460,907.12
462,907.35
464,907.57
466,907.79
468,908
470,908.21
472,908.41
474,908.61
476,908.8
478,908.99
480,909.17
482,909.35
484,909.53
486,909.7
488,909.87
490,910.03
492,910.19
494,910.34
496,910.49
498,910.64
500,910.79