Folder: matl-db/PMMA/Validation_Results/NIST-FSRI

Note: PMMA/Validation_Results/README.md
## Predicted response of PMMA in response to radiant heating in an anaerobic environment

This folder holds model predictions of sample decomposition in response to well-defined heating at incident heat fluxes of 25 kW m-2 and 50 kW m-2 in the NIST Gasification Apparatus.

Note: these simulations may be considered as validation cases as material properties were independently calibrated based on measurement data obtained in other heating/environmental conditions in different apparatus (see: Calibration_Data).

File: NIST-FSRI_Gasification_q50_MLR_R3.csv
Time,MLR
[s],[g/m2/s]
0,0
2,1.84754E-12
4.01,1.09305E-09
6.01,5.51514E-08
8.01,9.17386E-07
10.01,8.02996E-06
12.01,4.62307E-05
14.01,0.000198252
16.01,0.00068362
18,0.00198854
20,0.005069204
22,0.0116323
24,0.02441709
26,0.0475403
28,0.0867615
30,0.149598
32,0.245144
34,0.383447
36,0.57433
38,0.825724
40,1.14182
42,1.52156
44.01,1.96053
46.01,2.44263
48.01,2.95533
50.01,3.48341
52.01,4.0131
54.01,4.53325
56.01,5.03617
58.01,5.51656
60.01,5.97179
62.01,6.40059
64.01,6.80374
66.01,7.18227
68.01,7.53783
70.01,7.871792
72.01,8.18473
74,8.47768
76,8.75698
78,9.0177
80,9.2684
82,9.50236
84,9.72791
86,9.94053
88,10.1414
90,10.3394
92,10.5245
94,10.7002
96,10.8765
98,11.041
100,11.1987
102,11.3512
104,11.5058
106,11.6493
108,11.7882
110,11.92269
112,12.0615
114,12.1924
116,12.3177
118,12.4403
120,12.5605
122,12.6865
124,12.805
126,12.9196
128,13.0313
130,13.1423
132,13.25615
134,13.3696
136,13.4783
138,13.58455
140,13.6888
142,13.7927
144,13.90003
146,14.0096
148,14.1123
150,14.2154
152,14.31597
154,14.4157
156,14.5165
158,14.6267
160.01,14.7289
162.01,14.8293
164.01,14.9297
166.01,15.0285
168.01,15.1267
170.01,15.2279
172.01,15.3382
174.01,15.4385
176.01,15.5386
178.01,15.6393
180.01,15.7385
182.01,15.8373
184.01,15.9419
186.01,16.0519
188.01,16.1531
190.01,16.2541
192.01,16.3571
194.01,16.4581
196.01,16.5591
198.01,16.6668
200.01,16.779
202.01,16.8828
204.01,16.9859
206.01,17.0924
208.01,17.1965
210.01,17.3009
212.01,17.4119
214.01,17.5282
216.01,17.6361
218.01,17.7425
220.01,17.8535
222.01,17.962
224.01,18.0709
226.01,18.18656
228.01,18.3077
230.01,18.421
232.01,18.5322
234.01,18.6483
236.01,18.7629
238.01,18.8771
240.01,19.0005
242.01,19.1266
244.01,19.2461
246.01,19.3643
248.01,19.486
250.01,19.6087
252.01,19.7294
254.01,19.8631
256.01,19.9952
258.01,20.1221
260.01,20.2486
262.01,20.378
264.01,20.5102
266.01,20.6398
268.01,20.7846
270.01,20.92504
272.01,21.0603
274.01,21.1972
276.01,21.338
278.01,21.4794
280.01,21.6268
282.01,21.7771
284.01,21.9285
286.01,22.0738
288.01,22.2222
290.01,22.3754
292.01,22.5274
294.01,22.692
296.01,22.8513
298.01,23.0101
300.01,23.1661
302.01,23.3264
304.01,23.4888
306.01,23.6587
308.01,23.825
310.01,23.9922
312.01,24.1567
314.01,24.3183
316.01,24.4875
318.01,24.657
320.01,24.8264
322.01,24.9967
324.01,25.157
326.01,25.3195
328.01,25.482
330.01,25.644
332.01,25.8084
334.01,25.969
336.01,26.1201
338.01,26.2674
340.01,26.4179
342.01,26.56052
344.01,26.71
346.01,26.85014
348.01,26.9828
350.01,27.1096
352.01,27.2391
354.01,27.3628
356.01,27.49044
358.01,27.6063
360.01,27.717
362.01,27.8272
364.01,27.9339
366.01,28.0442
368.01,28.1489
370.01,28.2482
372.01,28.3466
374.01,28.4412
376.01,28.5401
378.01,28.6383
380.01,28.7291
382.01,28.8215
384.01,28.9135
386.01,29.0133
388.01,29.1008
390.01,29.194
392.01,29.2872
394.01,29.38005
396.01,29.4665
398.01,29.5589
400.01,29.6494
402.01,29.7334
404.01,29.8182
406.01,29.8972
408.01,29.9712
410.01,30.03715
412.01,30.0889
414.01,30.1218
416.01,30.1257
418.01,30.1012
420.01,29.9903
422.01,29.7536
424.01,29.279
426.01,28.2314
428.01,24.9318
430.01,0
432.01,0
434.01,0
436.01,0
438.01,0
440.01,0
442.01,0
444.01,0
446.01,0
448.01,0
450.01,0
452.01,0
454.01,0
456.01,0
458.01,0
460.01,0
462.01,0
464.01,0
466.01,0
468.01,0
470.01,0
472.01,0
474.01,0
476.01,0
478.01,0
480.01,0
482.01,0
484.01,0
486.01,0
488.01,0
490.01,0
492.01,0
494.01,0
496.01,0
498.01,0
500,0

File: NIST-FSRI_Gasification_q50_MLR_R4.csv
Time,MLR
[s],[g/m2/s]
0,0
2,1.86E-12
4.01,1.10E-09
6.01,5.54E-08
8.01,9.21E-07
10.01,8.06E-06
12.01,4.64E-05
14.01,0.000198833
16.01,0.000685424
18,0.001993295
20,0.005080259
22,0.0116555
24,0.024462
26,0.04762098
28,0.0868976
30,0.149815
32,0.245472
34,0.383918
36,0.574978
38,0.826571
40,1.14287
42,1.52283
44.01,1.96198
46.01,2.444238
48.01,2.95706
50.01,3.48521
52.01,4.01493
54.01,4.53513
56.01,5.038041
58.01,5.51846
60.01,5.97361
62.01,6.40237
64.01,6.80555
66.01,7.18401
68.01,7.539607
70.01,7.87365
72.01,8.18682
74,8.47948
76,8.75894
78,9.01952
80,9.27036
82,9.50426
84,9.73033
86,9.94258
88,10.1438
90,10.342
92,10.5269
94,10.7029
96,10.8795
98,11.044
100,11.2017
102,11.35646
104,11.5095
106,11.6529
108,11.7921
110,11.9267
112,12.0667
114,12.19715
116,12.3225
118,12.4457
120,12.5665
122,12.6929
124,12.8116
126,12.926
128,13.03797
130,13.14968
132,13.2663
134,13.3779
136,13.4871
138,13.5933
140,13.6979
142,13.8027
144,13.9137
146,14.0205
148,14.1242
150,14.2268
152,14.3278
154,14.4278
156,14.5305
158,14.6412
160.01,14.7428
162.01,14.8444
164.01,14.9444
166.01,15.0436
168.01,15.1426
170.01,15.2505
172.01,15.35583
174.01,15.4559
176.01,15.5575
178.01,15.6576
180.01,15.7573
182.01,15.8567
184.01,15.9681
186.01,16.0732
188.01,16.1742
190.01,16.2774
192.01,16.3794
194.01,16.481
196.01,16.5822
198.01,16.697
200.01,16.8045
202.01,16.90788
204.01,17.0135
206.01,17.1191
208.01,17.2238
210.01,17.3284
212.01,17.4469
214.01,17.5583
216.01,17.6656
218.01,17.7739
220.01,17.8849
222.01,17.9935
224.01,18.103
226.01,18.2266
228.01,18.3428
230.01,18.4554
232.01,18.5674
234.01,18.68513
236.01,18.7993
238.01,18.9146
240.01,19.0449
242.01,19.1668
244.01,19.28601
246.01,19.4041
248.01,19.5291
250.01,19.6505
252.01,19.77269
254.01,19.9119
256.01,20.0406
258.01,20.1678
260.01,20.2946
262.01,20.4273
264.01,20.5585
266.01,20.695
268.01,20.8395
270.01,20.9766
272.01,21.1133
274.01,21.25
276.01,21.3931
278.01,21.5349
280.01,21.688
282.01,21.8397
284.01,21.9867
286.01,22.1335
288.01,22.2846
290.01,22.4372
292.01,22.5963
294.01,22.7566
296.01,22.9181
298.01,23.0756
300.01,23.231
302.01,23.3966
304.01,23.556
306.01,23.7311
308.01,23.898
310.01,24.0635
312.01,24.2262
314.01,24.3915
316.01,24.559
318.01,24.733
320.01,24.9018
322.01,25.0675
324.01,25.2302
326.01,25.3899
328.01,25.5538
330.01,25.7206
332.01,25.8784
334.01,26.03683
336.01,26.1857
338.01,26.335
340.01,26.4814
342.01,26.6324
344.01,26.7738
346.01,26.9126
348.01,27.0393
350.01,27.1714
352.01,27.29426
354.01,27.4224
356.01,27.5442
358.01,27.6578
360.01,27.76605
362.01,27.8779
364.01,27.97985
366.01,28.0952
368.01,28.194
370.01,28.2903
372.01,28.3904
374.01,28.48435
376.01,28.5893
378.01,28.6792
380.01,28.7743
382.01,28.8648
384.01,28.9608
386.01,29.0538
388.01,29.1445
390.01,29.2328
392.01,29.3306
394.01,29.4198
396.01,29.5103
398.01,29.6013
400.01,29.6862
402.01,29.7743
404.01,29.8558
406.01,29.9348
408.01,30.0031
410.01,30.0619
412.01,30.1058
414.01,30.1254
416.01,30.1261
418.01,30.0588
420.01,29.897
422.01,29.5702
424.01,28.8922
426.01,27.223
428.01,19.611
430.01,0
432.01,0
434.01,0
436.01,0
438.01,0
440.01,0
442.01,0
444.01,0
446.01,0
448.01,0
450.01,0
452.01,0
454.01,0
456.01,0
458.01,0
460.01,0
462.01,0
464.01,0
466.01,0
468.01,0
470.01,0
472.01,0
474.01,0
476.01,0
478.01,0
480.01,0
482.01,0
484.01,0
486.01,0
488.01,0
490.01,0
492.01,0
494.01,0
496.01,0
498.01,0
500,0

File: NIST-FSRI_Gasification_q50_MLR_R5.csv
Time,MLR
[s],[g/m2/s]
0,0
2,1.6868E-12
4.01,1.01392E-09
6.01,5.17856E-08
8.01,8.6921E-07
10.01,7.66119E-06
12.01,4.43505E-05
14.01,0.000191039
16.01,0.000661189
18,0.001929263
20,0.004931139
22,0.0113415
24,0.02385467
26,0.0465287
28,0.0850532
30,0.146872
32,0.241017
34,0.377501
36,0.566164
38,0.815024
40,1.12842
42,1.50551
44.01,1.94203
46.01,2.42211
48.01,2.93322
50.01,3.46015
52.01,3.98909
54.01,4.50894
56.01,5.01144
58.01,5.49154
60.01,5.946748
62.01,6.376008
64.01,6.77916
66.01,7.15753
68.01,7.51226
70.01,7.84404
72.01,8.15713
74,8.45057
76,8.72559
78,8.98901
80,9.23375
82,9.4702
84,9.69012
86,9.90263
88,10.1034
90,10.29241
92,10.47827
94,10.6531
96,10.8189
98,10.9791
100,11.13812
102,11.2861
104,11.4278
106,11.5654
108,11.7052
110,11.8356
112,11.9602
114,12.0808
116,12.2018
118,12.3228
120,12.436
122,12.546
124,12.6524
126,12.7569
128,12.8674
130,12.9715
132,13.071
134,13.1697
136,13.2653
138,13.3593
140,13.4564
142,13.5566
144,13.6489
146,13.7396
148,13.83
150,13.9183
152,14.0056
154,14.0977
156,14.1924
158,14.2797
160.01,14.3657
162.01,14.4529
164.01,14.5378
166.01,14.6221
168.01,14.70619
170.01,14.80274
172.01,14.8895
174.01,14.9736
176.01,15.0585
178.01,15.14347
180.01,15.2271
182.01,15.3105
184.01,15.3998
186.01,15.4929
188.01,15.5784
190.01,15.6624
192.01,15.74864
194.01,15.8338
196.01,15.9184
198.01,16.0028
200.01,16.09836
202.01,16.1898
204.01,16.2764
206.01,16.3622
208.01,16.4511
210.01,16.5382
212.01,16.6253
214.01,16.7121
216.01,16.81336
218.01,16.9061
220.01,16.9952
222.01,17.0843
224.01,17.177
226.01,17.2674
228.01,17.3582
230.01,17.4492
232.01,17.5565
234.01,17.6521
236.01,17.7451
238.01,17.83873
240.01,17.9365
242.01,18.0313
244.01,18.1271
246.01,18.2315
248.01,18.3377
250.01,18.4376
252.01,18.5358
254.01,18.6367
256.01,18.7395
258.01,18.84
260.01,18.9421
262.01,19.0598
264.01,19.1677
266.01,19.2735
268.01,19.3784
270.01,19.4887
272.01,19.5976
274.01,19.70542
276.01,19.826
278.01,19.94541
280.01,20.0593
282.01,20.1729
284.01,20.2877
286.01,20.4077
288.01,20.525
290.01,20.65
292.01,20.781
294.01,20.9045
296.01,21.0281
298.01,21.1517
300.01,21.2814
302.01,21.4101
304.01,21.5463
306.01,21.685
308.01,21.8224
310.01,21.9552
312.01,22.0916
314.01,22.2324
316.01,22.3722
318.01,22.5227
320.01,22.6708
322.01,22.819
324.01,22.9646
326.01,23.1095
328.01,23.2644
330.01,23.41278
332.01,23.5773
334.01,23.7346
336.01,23.8905
338.01,24.04435
340.01,24.1994
342.01,24.3602
344.01,24.5229
346.01,24.6846
348.01,24.84819
350.01,25.0031
352.01,25.1597
354.01,25.3179
356.01,25.4736
358.01,25.6365
360.01,25.79466
362.01,25.9444
364.01,26.09035
366.01,26.2397
368.01,26.3809
370.01,26.5318
372.01,26.6721
374.01,26.8102
376.01,26.9369
378.01,27.0695
380.01,27.1928
382.01,27.3209
384.01,27.4446
386.01,27.5594
388.01,27.6686
390.01,27.7815
392.01,27.8843
394.01,27.9991
396.01,28.10096
398.01,28.19966
400.01,28.2986
402.01,28.39342
404.01,28.4906
406.01,28.5896
408.01,28.6802
410.01,28.7724
412.01,28.8632
414.01,28.96187
416.01,29.0515
418.01,29.1429
420.01,29.229
422.01,29.326
424.01,29.415
426.01,29.5051
428.01,29.5957
430.01,29.6815
432.01,29.7687
434.01,29.8522
436.01,29.9315
438.01,30.00355
440.01,30.0681
442.01,30.1182
444.01,30.14958
446.01,30.1625
448.01,30.1244
450.01,30.0064
452.01,29.7596
454.01,29.2657
456.01,28.16354
458.01,24.5787
460.01,7.61965E-10
462.01,0
464.01,0
466.01,0
468.01,0
470.01,0
472.01,0
474.01,0
476.01,0
478.01,0
480.01,0
482.01,0
484.01,0
486.01,0
488.01,0
490.01,0
492.01,0
494.01,0
496.01,0
498.01,0
500,0