Folder: matl-db/PMMA/Validation_Results/NIST-StMU-FSRI

Note: PMMA/Validation_Results/NIST-StMU-FSRI/README.md
### Contributor
Name:  Jason Floyd, Isaac Leventon, Morgan Bruns

Institution:  FSRI,NIST,St. Mary's University (San Antonio),

Country: USA

------------------

### Test case
Gassification tests: R3-R5 - 50 kW/m2 mas loss
------------------

### CFD package
Code: FDS

Version: 6.8

------------------

### Resolution


### Initial conditions
Comments: Simulations T1-T5 (50 kW/m2) and 25R1-R3 (25 kW/m2) used the experimentally measured temperature at t=0 for the initial condition. All other simulations used 20.9 C.

------------------

### Boundary conditions
Comments:
SOLID_PHASE_ONLY = T
Based on sensitivity analysis performed using https://github.com/MaCFP/matl-db/blob/master/PMMA/Material_Properties/2021/MaCFP_PMMA_NIST.json, simulations used a single, constant flux (i.e., no accounting for time dependence due to shutter or spatial dependence across the sample)
Epoxy mass was treated as PMMA. Output processed to tare initial mass to the reported PMMA sample mass).
Top Surface heat transfer coefficient: 13 W/m2-K


------------------

### Pyrolysis Models (include parameters)
Solver: FDS

Radiation absorption model:FDS two-flux model

Material property set:
https://github.com/MaCFP/matl-db/blob/master/PMMA/Material_Properties/2023/MaCFP_PMMA_NIST-StMU.json

Comments:
json file density was used in simulation. Sample thickness was set to preserve the reported sample mass using the json density and the reported sample diameter.
------------------

### Discretization methods
Time: 0.01 s time steps

------------------

### Computational Cost (hh:mm:ss)
Wall clock time:  7 - 10 s for 25 kW/m2, 4-7 s for 50 kW/m2

Simulation time: 500 s for 50 kW/m2, 800 s for 25 kW/m2

Number of CPUs (MPI Processes): 1

CPU cost (Number of CPUs * Wall clock time / Simulation time / Total cells):

------------------

File: NIST-StMU-FSRI_Gasification_q50_MLR_R3.csv
Time,MLR
[s],[g/m2/s]
0,0
2,0.000172134
4.01,0.001642953
6.01,0.008081629
8.01,0.0265157
10.01,0.0673173
12.01,0.142948
14.01,0.265205
16.01,0.441062
18,0.667552
20,0.930784
22,1.206701
24,1.46498
26,1.6795
28,1.83531
30,1.933
32,1.98903
34,2.03201
36,2.095678
38,2.21086
40,2.39928
42,2.6713
44.01,3.02894
46.01,3.46092
48.01,3.95592
50.01,4.49797
52.01,5.06979
54.01,5.65453
56.01,6.23754
58.01,6.80729
60.01,7.35583
62.01,7.87831
64.01,8.37264
66.01,8.83819
68.01,9.27524
70.01,9.6851
72.01,10.0692
74,10.42881
76,10.7697
78,11.0898
80,11.3937
82,11.6805
84,11.9544
86,12.2132
88,12.4634
90,12.7009
92,12.9294
94,13.1512
96,13.3616
98,13.568
100,13.76884
102,13.9625
104,14.1497
106,14.3353
108,14.5181
110,14.6933
112,14.86598
114,15.0368
116,15.2076
118,15.3746
120,15.53761
122,15.69787
124,15.8596
126,16.0235
128,16.1807
130,16.3376
132,16.4939
134,16.6479
136,16.8057
138,16.9639
140,17.1174
142,17.2688
144,17.422
146,17.574
148,17.7309
150,17.8828
152,18.0366
154,18.18699
156,18.3355
158,18.48391
160.01,18.6386
162.01,18.791
164.01,18.9377
166.01,19.0845
168.01,19.2316
170.01,19.3744
172.01,19.5166
174.01,19.6639
176.01,19.8084
178.01,19.9469
180.01,20.0816
182.01,20.2186
184.01,20.3519
186.01,20.4826
188.01,20.6163
190.01,20.7454
192.01,20.8732
194.01,20.9943
196.01,21.1135
198.01,21.2321
200.01,21.3492
202.01,21.4692
204.01,21.5825
206.01,21.6926
208.01,21.806
210.01,21.9122
212.01,22.0188
214.01,22.1239
216.01,22.2383
218.01,22.3491
220.01,22.4563
222.01,22.5638
224.01,22.6804
226.01,22.7942
228.01,22.9124
230.01,23.0396
232.01,23.1732
234.01,23.311
236.01,23.4514
238.01,23.60101
240.01,23.7639
242.01,23.93213
244.01,24.1164
246.01,24.3043
248.01,24.5048
250.01,24.7144
252.01,24.9267
254.01,25.15052
256.01,25.389
258.01,25.6257
260.01,25.8663
262.01,26.1062
264.01,26.3529
266.01,26.5951
268.01,26.835
270.01,27.076
272.01,27.3128
274.01,27.53882
276.01,27.7599
278.01,27.9712
280.01,28.1833
282.01,28.3854
284.01,28.5763
286.01,28.7589
288.01,28.9371
290.01,29.1022
292.01,29.261
294.01,29.40806
296.01,29.5571
298.01,29.6943
300.01,29.8218
302.01,29.9423
304.01,30.0586
306.01,30.1686
308.01,30.2751
310.01,30.37567
312.01,30.4714
314.01,30.5661
316.01,30.6548
318.01,30.7389
320.01,30.8202
322.01,30.9025
324.01,30.9832
326.01,31.0543
328.01,31.1287
330.01,31.2008
332.01,31.26681
334.01,31.3321
336.01,31.3929
338.01,31.4521
340.01,31.5031
342.01,31.5515
344.01,31.5895
346.01,31.614
348.01,31.6293
350.01,31.6278
352.01,31.6104
354.01,31.5645
356.01,31.4863
358.01,31.3519
360.01,31.15103
362.01,30.8483
364.01,30.3897
366.01,29.9589
368.01,29.2875
370.01,28.285
372.01,27.29554
374.01,25.52542
376.01,23.601
378.01,20.2229
380.01,15.2627
382.01,3.52839
384.01,8.3207E-05
386.01,3.25992E-16
388.01,0
390.01,0
392.01,0
394.01,0
396.01,0
398.01,0
400.01,0
402.01,0
404.01,0
406.01,0
408.01,0
410.01,0
412.01,0
414.01,0
416.01,0
418.01,0
420.01,0
422.01,0
424.01,0
426.01,0
428.01,0
430.01,0
432.01,0
434.01,0
436.01,0
438.01,0
440.01,0
442.01,0
444.01,0
446.01,0
448.01,0
450.01,0
452.01,0
454.01,0
456.01,0
458.01,0
460.01,0
462.01,0
464.01,0
466.01,0
468.01,0
470.01,0
472.01,0
474.01,0
476.01,0
478.01,0
480.01,0
482.01,0
484.01,0
486.01,0
488.01,0
490.01,0
492.01,0
494.01,0
496.01,0
498.01,0
500,0

File: NIST-StMU-FSRI_Gasification_q50_MLR_R4.csv
Time,MLR
[s],[g/m2/s]
0,0
2,0.000172191
4.01,0.001644487
6.01,0.008089207
8.01,0.0265389
10.01,0.0673709
12.01,0.14305
14.01,0.2653733
16.01,0.441305
18,0.66786
20,0.931124
22,1.20703
24,1.46523
26,1.67964
28,1.83532
30,1.9329
32,1.98888
34,2.03188
36,2.095672
38,2.21105
40,2.39972
42,2.67199
44.01,3.02989
46.01,3.4621
48.01,3.95729
50.01,4.4995
52.01,5.07143
54.01,5.65623
56.01,6.23928
58.01,6.80903
60.01,7.3576
62.01,7.88008
64.01,8.37444
66.01,8.84
68.01,9.277059
70.01,9.68695
72.01,10.0712
74,10.43075
76,10.77177
78,11.0922
80,11.3962
82,11.6834
84,11.9572
86,12.2165
88,12.4667
90,12.7045
92,12.9338
94,13.1555
96,13.3663
98,13.5736
100,13.7744
102,13.9685
104,14.156
106,14.3431
108,14.5255
110,14.7012
112,14.8747
114,15.0468
116,15.2172
118,15.3852
120,15.5484
122,15.7093
124,15.8732
126,16.03655
128,16.1941
130,16.3525
132,16.5087
134,16.6634
136,16.8231
138,16.9814
140,17.135
142,17.2873
144,17.4417
146,17.5941
148,17.75192
150,17.9041
152,18.05884
154,18.2092
156,18.3587
158,18.5086
160.01,18.6647
162.01,18.8158
164.01,18.9624
166.01,19.1114
168.01,19.2574
170.01,19.401
172.01,19.5426
174.01,19.6924
176.01,19.8358
178.01,19.9737
180.01,20.1092
182.01,20.2467
184.01,20.3791
186.01,20.5101
188.01,20.6439
190.01,20.7743
192.01,20.9004
194.01,21.0205
196.01,21.1403
198.01,21.2598
200.01,21.376
202.01,21.4966
204.01,21.6084
206.01,21.7215
208.01,21.8322
210.01,21.9383
212.01,22.0452
214.01,22.1529
216.01,22.2676
218.01,22.3774
220.01,22.4841
222.01,22.5964
224.01,22.7113
226.01,22.8262
228.01,22.9463
230.01,23.0776
232.01,23.213
234.01,23.3523
236.01,23.49437
238.01,23.6497
240.01,23.8147
242.01,23.9885
244.01,24.1748
246.01,24.3671
248.01,24.5719
250.01,24.7822
252.01,24.9983
254.01,25.2271
256.01,25.4676
258.01,25.7059
260.01,25.9461
262.01,26.1888
264.01,26.4361
266.01,26.6751
268.01,26.9183
270.01,27.1586
272.01,27.3912
274.01,27.6163
276.01,27.8341
278.01,28.0446
280.01,28.255
282.01,28.4527
284.01,28.64213
286.01,28.82231
288.01,28.9963
290.01,29.1594
292.01,29.3145
294.01,29.4581
296.01,29.6094
298.01,29.73973
300.01,29.86522
302.01,29.98454
304.01,30.1
306.01,30.208
308.01,30.3132
310.01,30.4102
312.01,30.509
314.01,30.599
316.01,30.6841
318.01,30.7696
320.01,30.8508
322.01,30.9335
324.01,31.0103
326.01,31.0817
328.01,31.1548
330.01,31.225
332.01,31.29141
334.01,31.3554
336.01,31.4154
338.01,31.47165
340.01,31.5226
342.01,31.56719
344.01,31.6018
346.01,31.6204
348.01,31.6295
350.01,31.6219
352.01,31.5971
354.01,31.5396
356.01,31.444
358.01,31.2859
360.01,31.0465
362.01,30.6908
364.01,30.2535
366.01,29.6529
368.01,29.03052
370.01,27.9426
372.01,26.5014
374.01,24.91579
376.01,21.8793
378.01,18.7957
380.01,11.8626
382.01,0.374801
384.01,2.4269E-08
386.01,0
388.01,0
390.01,0
392.01,0
394.01,0
396.01,0
398.01,0
400.01,0
402.01,0
404.01,0
406.01,0
408.01,0
410.01,0
412.01,0
414.01,0
416.01,0
418.01,0
420.01,0
422.01,0
424.01,0
426.01,0
428.01,0
430.01,0
432.01,0
434.01,0
436.01,0
438.01,0
440.01,0
442.01,0
444.01,0
446.01,0
448.01,0
450.01,0
452.01,0
454.01,0
456.01,0
458.01,0
460.01,0
462.01,0
464.01,0
466.01,0
468.01,0
470.01,0
472.01,0
474.01,0
476.01,0
478.01,0
480.01,0
482.01,0
484.01,0
486.01,0
488.01,0
490.01,0
492.01,0
494.01,0
496.01,0
498.01,0
500,0

File: NIST-StMU-FSRI_Gasification_q50_MLR_R5.csv
Time,MLR
[s],[g/m2/s]
0,0
2,0.00017287
4.01,0.001625026
6.01,0.007987354
8.01,0.0262247
10.01,0.0666404
12.01,0.14165
14.01,0.263068
16.01,0.437981
18,0.663646
20,0.926442
22,1.20254
24,1.4617
26,1.67765
28,1.8351
30,1.93419
32,1.99092
34,2.03357
36,2.09575
38,2.20844
40,2.39369
42,2.66229
44.01,3.01662
46.01,3.4456
48.01,3.937951
50.01,4.47776
52.01,5.0478
54.01,5.63129
56.01,6.21334
58.01,6.78234
60.01,7.33006
62.01,7.851922
64.01,8.34479
66.01,8.80863
68.01,9.2438
70.01,9.65111
72.01,10.033
74,10.3898
76,10.7259
78,11.0417
80,11.3408
82,11.621
84,11.8888
86,12.1413
88,12.3814
90,12.6123
92,12.8297
94,13.0414
96,13.243
98,13.4368
100,13.6217
102,13.8066
104,13.9814
106,14.14943
108,14.31407
110,14.4785
112,14.6359
114,14.7896
116,14.9379
118,15.0845
120,15.2351
122,15.37805
124,15.51704
126,15.657
128,15.7929
130,15.9302
132,16.06878
134,16.203
136,16.3347
138,16.4641
140,16.59669
142,16.727
144,16.8616
146,16.9913
148,17.1223
150,17.251
152,17.3779
154,17.5053
156,17.6384
158,17.7703
160.01,17.89972
162.01,18.0265
164.01,18.1572
166.01,18.2847
168.01,18.4106
170.01,18.5382
172.01,18.6743
174.01,18.80331
176.01,18.93
178.01,19.055
180.01,19.1838
182.01,19.3102
184.01,19.4336
186.01,19.5636
188.01,19.69101
190.01,19.8164
192.01,19.9387
194.01,20.05826
196.01,20.1777
198.01,20.2999
200.01,20.4167
202.01,20.5398
204.01,20.6548
206.01,20.77047
208.01,20.8842
210.01,20.9933
212.01,21.1
214.01,21.20828
216.01,21.31804
218.01,21.4264
220.01,21.529
222.01,21.6279
224.01,21.7309
226.01,21.8296
228.01,21.9241
230.01,22.0199
232.01,22.1205
234.01,22.2196
236.01,22.3157
238.01,22.4096
240.01,22.502
242.01,22.6048
244.01,22.7018
246.01,22.8014
248.01,22.9103
250.01,23.0209
252.01,23.1334
254.01,23.2498
256.01,23.36822
258.01,23.4987
260.01,23.6359
262.01,23.7836
264.01,23.9368
266.01,24.0962
268.01,24.2682
270.01,24.4487
272.01,24.6327
274.01,24.8285
276.01,25.0417
278.01,25.2533
280.01,25.4702
282.01,25.6905
284.01,25.9178
286.01,26.1489
288.01,26.37817
290.01,26.6095
292.01,26.8407
294.01,27.0657
296.01,27.2864
298.01,27.5024
300.01,27.7146
302.01,27.9286
304.01,28.1276
306.01,28.3191
308.01,28.50628
310.01,28.6878
312.01,28.8576
314.01,29.0218
316.01,29.17858
318.01,29.3328
320.01,29.4764
322.01,29.6088
324.01,29.7366
326.01,29.8607
328.01,29.9766
330.01,30.0913
332.01,30.197
334.01,30.2945
336.01,30.3978
338.01,30.4879
340.01,30.5758
342.01,30.6631
344.01,30.7501
346.01,30.8317
348.01,30.9098
350.01,30.9821
352.01,31.0602
354.01,31.1331
356.01,31.2001
358.01,31.2681
360.01,31.3319
362.01,31.395
364.01,31.4497
366.01,31.5059
368.01,31.5515
370.01,31.5927
372.01,31.6142
374.01,31.62636
376.01,31.6335
378.01,31.6212
380.01,31.5832
382.01,31.5049
384.01,31.379
386.01,31.1843
388.01,30.8882
390.01,30.4438
392.01,30.0432
394.01,29.3482
396.01,28.3948
398.01,27.4029
400.01,25.6391
402.01,23.83166
404.01,20.3842
406.01,15.6313
408.01,4.221467
410.01,0.000256038
412.01,3.18276E-15
414.01,0
416.01,0
418.01,0
420.01,0
422.01,0
424.01,0
426.01,0
428.01,0
430.01,0
432.01,0
434.01,0
436.01,0
438.01,0
440.01,0
442.01,0
444.01,0
446.01,0
448.01,0
450.01,0
452.01,0
454.01,0
456.01,0
458.01,0
460.01,0
462.01,0
464.01,0
466.01,0
468.01,0
470.01,0
472.01,0
474.01,0
476.01,0
478.01,0
480.01,0
482.01,0
484.01,0
486.01,0
488.01,0
490.01,0
492.01,0
494.01,0
496.01,0
498.01,0
500,0