Folder: matl-db/PMMA/Validation_Results/UMD-FSRI (part 2)

File: UMD-FSRI_Gasification_q50_Mass_R5.csv
s,g,g/m2/s
Time,Mass,MassLossRate
0,28.126,0
2,28.126,0
4,28.126,0.000429307
6,28.126,0.01114447
8,28.1256,0.1067054
10,28.1232,0.6124776
12,28.1147,1.818893
14,28.0988,2.001507
16,28.0865,1.429356
18,28.0771,1.188942
20,28.0686,1.056275
22,28.0603,1.109467
24,28.0519,1.051013
26,28.0435,1.161874
28,28.0336,1.410082
30,28.0208,1.957242
32,28.0036,2.693506
34,27.979,3.70257
36,27.9458,4.883807
38,27.9034,5.811976
40,27.854,6.892954
42,27.7984,7.216148
44,27.7387,8.693814
46,27.6679,9.136626
48,27.5944,9.657412
50,27.5193,10.32774
52,27.4365,10.78695
54,27.3468,12.21262
56,27.249,12.1012
58,27.156,11.90016
60,27.0576,13.43809
62,26.9542,13.64455
64,26.8471,13.53356
66,26.7431,13.16717
68,26.6397,14.10257
70,26.5325,13.34248
72,26.4258,13.67825
74,26.3135,14.48617
76,26.2033,14.06113
78,26.0929,15.52802
80,25.9753,14.68431
82,25.8548,15.36586
84,25.739,15.23582
86,25.6252,15.12005
88,25.5076,15.47516
90,25.3905,14.71949
92,25.2711,16.03116
94,25.1497,15.77924
96,25.0241,16.27433
98,24.9022,16.34635
100,24.7724,17.20363
102,24.6464,16.57657
104,24.5149,17.54515
106,24.3812,17.67626
108,24.2504,16.63764
110,24.1232,16.60356
112,23.9927,16.43908
114,23.8608,17.35838
116,23.7304,16.13648
118,23.6024,16.96259
120,23.4683,18.0476
122,23.3352,17.38147
124,23.1977,18.27356
126,23.0575,18.12357
128,22.9168,18.12161
130,22.7775,18.08052
132,22.6393,17.94179
134,22.4997,18.9572
136,22.3594,17.81669
138,22.2157,18.67205
140,22.0759,18.42443
142,21.9326,18.47945
144,21.7888,18.9183
146,21.645,18.81202
148,21.5015,18.49174
150,21.3587,18.56584
152,21.2102,19.42802
154,21.0658,19.49125
156,20.9194,17.74058
158,20.7719,19.75733
160,20.624,18.32813
162,20.4792,18.9987
164,20.3282,19.12951
166,20.1797,19.02206
168,20.0305,19.33966
170,19.8836,18.97296
172,19.7384,19.10081
174,19.5919,19.71094
176,19.4385,20.06542
178,19.2819,20.95369
180,19.1227,20.03919
182,18.9711,20.41
184,18.8151,20.16406
186,18.6589,20.89209
188,18.4995,20.20156
190,18.3413,20.09294
192,18.184,19.8687
194,18.0235,20.85632
196,17.867,19.82024
198,17.7148,19.82158
200,17.5631,20.46831
202,17.4076,19.63473
204,17.2522,21.0196
206,17.0925,21.10812
208,16.9328,20.83261
210,16.7721,21.32272
212,16.6096,20.60597
214,16.4496,21.24427
216,16.2839,21.30992
218,16.1192,22.20816
220,15.9495,21.33617
222,15.7836,20.49047
224,15.6285,20.96616
226,15.4731,20.39225
228,15.3137,20.96023
230,15.1445,22.40735
232,14.9769,22.80243
234,14.8096,21.75518
236,14.6415,21.88437
238,14.4805,20.77024
240,14.3152,21.7654
242,14.1457,22.20717
244,13.9778,21.16621
246,13.81,22.36267
248,13.6413,20.95566
250,13.4789,21.02176
252,13.3136,22.2765
254,13.1409,21.96795
256,12.9709,22.39128
258,12.7987,21.32285
260,12.6355,21.94049
262,12.4625,22.75815
264,12.2908,23.11252
266,12.1213,21.31659
268,11.9482,23.40378
270,11.7732,24.32642
272,11.5964,22.80165
274,11.4173,22.77661
276,11.239,23.50077
278,11.0559,24.88923
280,10.8734,23.6108
282,10.6977,22.32491
284,10.5213,23.75581
286,10.3345,24.00973
288,10.1476,24.06399
290,9.96006,23.9756
292,9.77356,24.14966
294,9.58375,24.52834
296,9.3897,24.75248
298,9.19926,24.63441
300,9.01164,24.00722
302,8.822,25.12428
304,8.62708,25.56811
306,8.43393,24.56119
308,8.24253,25.13618
310,8.04405,25.13541
312,7.85114,25.42714
314,7.6588,24.61101
316,7.46504,25.70559
318,7.26465,25.47828
320,7.06643,25.9429
322,6.86249,26.96432
324,6.65405,27.09276
326,6.43947,27.93963
328,6.22446,27.72003
330,6.01256,27.77187
332,5.79664,27.82458
334,5.57881,29.02726
336,5.35911,28.55313
338,5.14113,29.07051
340,4.91619,29.14896
342,4.69653,27.81812
344,4.47168,29.84329
346,4.23856,30.06463
348,4.00955,29.57509
350,3.7746,30.76487
352,3.53873,31.00082
354,3.30642,29.72647
356,3.07038,31.24474
358,2.83447,30.34682
360,2.59496,31.07213
362,2.35398,31.09961
364,2.11716,30.47772
366,1.88097,30.69345
368,1.64675,30.95657
370,1.41481,29.76965
372,1.19088,28.58372
374,0.973781,27.99919
376,0.768813,26.78601
378,0.572176,22.68261
380,0.390337,21.71884
382,0.222587,20.14761
384,0.0854856,15.23118
386,0.0562297,8.08E-05
388,0.0562297,3.24E-21
390,0.0562297,1.26E-43
392,0.0562297,6.94E-46
394,0.0562297,6.94E-46
396,0.0562297,6.94E-46
398,0.0562297,6.94E-46
400,0.0562297,6.94E-46
402,0.0562297,6.94E-46
404,0.0562297,6.94E-46
406,0.0562297,6.94E-46
408,0.0562297,6.94E-46
410,0.0562297,6.94E-46
412,0.0562297,6.94E-46
414,0.0562297,6.94E-46
416,0.0562297,6.94E-46
418,0.0562297,6.94E-46
420,0.0562297,6.94E-46
422,0.0562297,6.94E-46
424,0.0562297,6.94E-46
426,0.0562297,6.94E-46
428,0.0562297,6.94E-46
430,0.0562297,6.94E-46
432,0.0562297,6.94E-46
434,0.0562297,6.94E-46
436,0.0562297,6.94E-46
438,0.0562297,6.94E-46
440,0.0562297,6.94E-46
442,0.0562297,6.94E-46
444,0.0562297,6.94E-46
446,0.0562297,6.94E-46
448,0.0562297,6.94E-46
450,0.0562297,6.94E-46

File: UMD-FSRI_Gasification_q50_Temp_Copper.csv
s,K
Time (s),T_back
0,292
1,295.8935
2,299.8115
3,303.7055
4,307.5789
5,311.4336
6,315.2707
7,319.0914
8,322.8962
9,326.6857
10,330.4604
11,334.2206
12,337.9668
13,341.6991
14,345.4178
15,349.1231
16,352.8152
17,356.4942
18,360.1604
19,363.8137
20,367.4543
21,371.0824
22,374.6979
23,378.301
24,381.8918
25,385.4702
26,389.0363
27,392.5902
28,396.1319
29,399.6615
30,403.1789
31,406.6842
32,410.1774
33,413.6585
34,417.1275
35,420.5845
36,424.0294
37,427.4621
38,430.8828
39,434.2914
40,437.6879
41,441.0723
42,444.4445
43,447.8046
44,451.1526
45,454.4883
46,457.8118
47,461.1231
48,464.4221
49,467.7089
50,470.9833
51,474.2454
52,477.4951
53,480.7324
54,483.9572
55,487.1696
56,490.3695
57,493.5568
58,496.7316
59,499.8937
60,503.0432
61,506.1801
62,509.3042
63,512.4155
64,515.514
65,518.5998
66,521.6726
67,524.7325
68,527.7795
69,530.8135
70,533.8344
71,536.8423
72,539.8371
73,542.8187
74,545.7872
75,548.7425
76,551.6845
77,554.6132
78,557.5285
79,560.4305
80,563.3191
81,566.1943
82,569.056
83,571.9042
84,574.7388
85,577.5598
86,580.3673
87,583.1611
88,585.9412
89,588.7077
90,591.4604
91,594.1993
92,596.9244
93,599.6357
94,602.3332
95,605.0168
96,607.6865
97,610.3422
98,612.984
99,615.6118
100,618.2257

File: UMD-FSRI_Gasification_q50_Temp_Kaowool.csv
s,K,K,K
Time (s),Temp_5-72mm,Temp_11-44mm,Temp_17-16mm
0,292,292,292
5,292.0017,292,292
10,292.484,292,292
15,296.1938,292.0001,292
20,305.1512,292.0038,291.9998
25,318.7162,292.0339,291.9989
30,335.3021,292.1511,291.9958
35,353.4643,292.4493,291.9886
40,372.1607,293.0303,291.9761
45,390.7149,293.9807,291.9584
50,408.7197,295.3604,291.938
55,425.9492,297.1999,291.92
60,442.295,299.5048,291.9117
65,457.7214,302.2613,291.9229
70,472.2373,305.4421,291.964
75,485.8767,309.0116,292.0464
80,498.6871,312.9299,292.181
85,510.7223,317.1553,292.3781
90,522.0376,321.6465,292.6467
95,532.6874,326.3641,292.9947
100,542.7236,331.2709,293.4285
105,552.1946,336.3328,293.953
110,561.1454,341.5189,294.5717
115,569.6172,346.801,295.2869
120,577.6478,352.1544,296.0998
125,585.2715,357.5568,297.0102
130,592.5196,362.9889,298.0175
135,599.4204,368.4336,299.12
140,605.9997,373.8761,300.3155
145,612.281,379.3036,301.6013
150,618.2856,384.705,302.9743
155,624.0329,390.0708,304.431
160,629.5385,395.3931,305.9679
165,634.8099,400.6651,307.581
170,639.8534,405.8811,309.2666
175,644.6791,411.0361,311.0206
180,649.2986,416.126,312.839
185,653.7243,421.147,314.7181
190,657.9679,426.0957,316.6537
195,662.0409,430.9695,318.6422
200,665.9536,435.7662,320.6799
205,669.7157,440.4841,322.763
210,673.3363,445.1218,324.888
215,676.8235,449.6787,327.0515
220,680.1851,454.1543,329.2503
225,683.4281,458.5486,331.4809
230,686.559,462.8617,333.7405
235,689.5838,467.0942,336.026
240,692.5081,471.2466,338.3347
245,695.3371,475.3199,340.6637
250,698.0757,479.3151,343.0107
255,700.7283,483.2332,345.373
260,703.2992,487.0755,347.7485
265,705.7922,490.8433,350.135
270,708.2111,494.538,352.5304
275,710.5592,498.1609,354.9328
280,712.8399,501.7134,357.3404
285,715.056,505.1972,359.7515
290,717.2105,508.6135,362.1645
295,719.306,511.964,364.5779
300,721.345,515.25,366.9904
305,723.3299,518.4732,369.4006
310,725.263,521.6348,371.8074
315,727.1463,524.7365,374.2096
320,728.9819,527.7796,376.6063
325,730.7715,530.7656,378.9964
330,732.5171,533.6958,381.3791
335,734.2204,536.5717,383.7535
340,735.8828,539.3945,386.119
345,737.506,542.1656,388.4748
350,739.0914,544.8862,390.8202
355,740.6404,547.5577,393.1548
360,742.1543,550.1813,395.4779
365,743.6343,552.7582,397.7892
370,745.0817,555.2895,400.088
375,746.4975,557.7764,402.3742
380,747.8829,560.22,404.6472
385,749.2389,562.6215,406.9068
390,750.5665,564.9818,409.1526
395,751.8666,567.302,411.3845
400,753.1402,569.5831,413.6021
405,754.388,571.8261,415.8053
410,755.6109,574.032,417.9939
415,756.8098,576.2016,420.1678
420,757.9853,578.3359,422.3267
425,759.1383,580.4357,424.4707
430,760.2693,582.5019,426.5995
435,761.3791,584.5353,428.7131
440,762.4683,586.5368,430.8114
445,763.5376,588.507,432.8945
450,764.5875,590.4468,434.9622
455,765.6185,592.3569,437.0145
460,766.6314,594.238,439.0514
465,767.6265,596.0909,441.0729
470,768.6043,597.916,443.079
475,769.5655,599.7143,445.0698
480,770.5104,601.4861,447.0452
485,771.4395,603.2323,449.0052
490,772.3532,604.9533,450.95
495,773.252,606.6498,452.8795
500,774.1363,608.3224,454.7937
505,775.0064,609.9715,456.6929
510,775.8628,611.5977,458.5769
515,776.7058,613.2015,460.4459
520,777.5357,614.7834,462.2998
525,778.3529,616.344,464.1389
530,779.1577,617.8836,465.9631
535,779.9505,619.4028,467.7725
540,780.7315,620.9019,469.5672
545,781.5011,622.3815,471.3473
550,782.2595,623.8419,473.1128
555,783.007,625.2835,474.8639
560,783.7439,626.7067,476.6005
565,784.4704,628.1119,478.3228
570,785.1868,629.4996,480.0308
575,785.8933,630.8699,481.7247
580,786.5901,632.2234,483.4044
585,787.2776,633.5602,485.0702
590,787.9558,634.8808,486.7221
595,788.6251,636.1855,488.3601
600,789.2856,637.4746,489.9843
605,789.9374,638.7484,491.5949
610,790.5809,640.0071,493.1919
615,791.2162,641.2511,494.7753
620,791.8435,642.4806,496.3454
625,792.4629,643.6959,497.9021
630,793.0746,644.8972,499.4455
635,793.6788,646.0849,500.9757
640,794.2756,647.2591,502.4928
645,794.8652,648.4201,503.9969
650,795.4477,649.5681,505.4881
655,796.0233,650.7033,506.9664
660,796.5921,651.826,508.4319
665,797.1543,652.9364,509.8847
670,797.71,654.0346,511.3249
675,798.2592,655.1209,512.7526
680,798.8022,656.1954,514.1677
685,799.3391,657.2584,515.5705
690,799.8699,658.31,516.961
695,800.3947,659.3505,518.3393
700,800.9138,660.3798,519.7054
705,801.4271,661.3984,521.0594
710,801.9348,662.4062,522.4014
715,802.437,663.4035,523.7315
720,802.9338,664.3904,525.0497
725,803.4253,665.367,526.3562
730,803.9115,666.3336,527.651
735,804.3926,667.2902,528.9341
740,804.8686,668.237,530.2057
745,805.3396,669.1741,531.4659
750,805.8057,670.1017,532.7146
755,806.267,671.0198,533.952
760,806.7235,671.9287,535.1782
765,807.1753,672.8283,536.3932
770,807.6225,673.7189,537.5971
775,808.0652,674.6006,538.7899
780,808.5034,675.4734,539.9718
785,808.9372,676.3375,541.1428
790,809.3666,677.1929,542.3031
795,809.7918,678.0399,543.4525
800,810.2127,678.8784,544.5914
805,810.6295,679.7086,545.7196
810,811.0421,680.5306,546.8373
815,811.4507,681.3444,547.9445
820,811.8552,682.1502,549.0414
825,812.2558,682.9481,550.128
830,812.6525,683.7381,551.2044
835,813.0453,684.5203,552.2706
840,813.4344,685.2948,553.3267
845,813.8196,686.0618,554.3728
850,814.2011,686.8212,555.4089
855,814.579,687.5732,556.4352
860,814.9532,688.3178,557.4517
865,815.3239,689.0551,558.4584
870,815.6909,689.7851,559.4555
875,816.0545,690.5081,560.443
880,816.4146,691.224,561.4209
885,816.7713,691.9328,562.3895
890,817.1245,692.6348,563.3486
895,817.4744,693.3299,564.2984
900,817.821,694.0181,565.239
905,818.1643,694.6997,566.1704
910,818.5044,695.3746,567.0928
915,818.8412,696.0429,568.0061
920,819.1748,696.7046,568.9104
925,819.5052,697.3599,569.8058
930,819.8326,698.0088,570.6924
935,820.1568,698.6513,571.5703
940,820.478,699.2875,572.4394
945,820.7961,699.9174,573.3
950,821.1112,700.5412,574.152
955,821.4234,701.1589,574.9955
960,821.7326,701.7705,575.8306
965,822.0388,702.3761,576.6574
970,822.3422,702.9757,577.4759
975,822.6427,703.5694,578.2861
980,822.9404,704.1573,579.0882
985,823.2352,704.7394,579.8823
990,823.5272,705.3157,580.6683
995,823.8165,705.8863,581.4464
1000,824.103,706.4513,582.2166
1005,824.3868,707.0107,582.979
1010,824.6679,707.5646,583.7336
1015,824.9464,708.1129,584.4806
1020,825.2221,708.6559,585.22
1025,825.4953,709.1934,585.9517
1030,825.7659,709.7255,586.676
1035,826.0338,710.2524,587.3929
1040,826.2992,710.774,588.1024
1045,826.5621,711.2904,588.8047
1050,826.8224,711.8017,589.4996
1055,827.0803,712.3078,590.1874
1060,827.3357,712.8088,590.8682
1065,827.5886,713.3049,591.5418
1070,827.8391,713.7959,592.2085
1075,828.0872,714.282,592.8682
1080,828.3328,714.7632,593.5211
1085,828.5762,715.2396,594.1672
1090,828.8171,715.7111,594.8066
1095,829.0557,716.1779,595.4393
1100,829.292,716.6399,596.0654
1105,829.5261,717.0973,596.6849
1110,829.7578,717.55,597.2979
1115,829.9873,717.9982,597.9045
1120,830.2145,718.4417,598.5047
1125,830.4395,718.8808,599.0985
1130,830.6624,719.3154,599.6861
1135,830.883,719.7455,600.2676
1140,831.1015,720.1712,600.8428
1145,831.3178,720.5926,601.412
1150,831.532,721.0097,601.9751
1155,831.7441,721.4225,602.5323
1160,831.9541,721.831,603.0836
1165,832.162,722.2353,603.6289
1170,832.3679,722.6355,604.1685
1175,832.5717,723.0315,604.7023
1180,832.7735,723.4235,605.2305
1185,832.9733,723.8114,605.7529
1190,833.1711,724.1953,606.2698
1195,833.3669,724.5752,606.7812
1200,833.5608,724.9511,607.2871

File: UMD-FSRI_Gasification_q50_Temp_R1.csv
s,K
Time,T_back
0,292
2,292
4,292.0002
6,292.0045
8,292.0309
10,292.1204
12,292.325
14,292.6875
16,293.2363
18,293.9854
20,294.937
22,296.0844
24,297.4149
26,298.9137
28,300.5644
30,302.349
32,304.2495
34,306.2496
36,308.3392
38,310.5299
40,312.772
42,315.057
44,317.3816
46,319.7405
48,322.1274
50,324.5353
52,326.9581
54,329.3904
56,331.8281
58,334.2674
60,336.7052
62,339.1397
64,341.5698
66,343.9938
68,346.4106
70,348.8182
72,351.2146
74,353.598
76,355.9692
78,358.3358
80,360.6871
82,363.018
84,365.3295
86,367.6228
88,369.8979
90,372.1548
92,374.3937
94,376.6155
96,378.8221
98,381.0172
100,383.2048
102,385.3742
104,387.5236
106,389.6542
108,391.7674
110,393.8644
112,395.9458
114,398.0122
116,400.0644
118,402.1034
120,404.1306
122,406.1464
124,408.1511
126,410.1448
128,412.1276
130,414.1012
132,416.0676
134,418.0286
136,419.986
138,421.9422
140,423.8923
142,425.8314
144,427.7584
146,429.6785
148,431.597
150,433.5098
152,435.4129
154,437.3048
156,439.1878
158,441.0655
160,442.9454
162,444.8188
164,446.6804
166,448.5312
168,450.3725
170,452.2077
172,454.0451
174,455.8963
176,457.8581
178,459.7083
180,461.5577
182,463.4126
184,465.2734
186,467.1444
188,469.032
190,470.9439
192,472.8823
194,474.846
196,476.8526
198,478.8509
200,480.8741
202,482.9296
204,485.0162
206,487.1352
208,489.2844
210,491.4576
212,493.6502
214,495.8606
216,498.1196
218,500.3979
220,502.8068
222,505.2096
224,507.638
226,510.0019
228,512.2907
230,514.5797
232,516.9011
234,519.2814
236,521.6918
238,524.1646
240,526.6208
242,529.1263
244,531.9383
246,534.3772
248,537.6422
250,539.9538
252,542.4052
254,545.0036
256,551.7981
258,550.9884
260,553.7419
262,556.514
264,559.4502
266,562.7117
268,565.6952
270,568.3287
272,571.232
274,573.977
276,577.1751
278,579.9413
280,583.9749
282,586.6602
284,589.9812
286,593.4807
288,597.4447
290,600.0856
292,602.8788
294,608.5201
296,609.8634
298,612.7192
300,619.146
302,627.5733
304,627.4893
306,632.7273
308,637.1167
310,639.8146
312,648.2735
314,652.221
316,660.1237
318,663.3994
320,669.9996
322,681.5519
324,700.1696
326,688.5059
328,697.8529
330,715.8573
332,721.9861
334,720.4879
336,747.3488
338,755.7738
340,768.1098
342,768.2339
344,787.2499
346,766.5125
348,801.3464
350,809.6023
352,809.4154
354,808.0197
356,809.1955
358,808.8401
360,809.3355
362,809.0711
364,808.6484
366,826.4054
368,824.5784
370,823.3073
372,822.3701
374,821.6639
376,821.1256
378,820.7123
380,820.3932
382,820.1457
384,819.953
386,819.8026
388,819.6846
390,819.5918
392,819.5185
394,819.4604
396,819.4141
398,819.377
400,819.3471
402,819.3229
404,819.3031
406,819.2868
408,819.2732
410,819.2618
412,819.2522
414,819.2439
416,819.2367
418,819.2305
420,819.2249
422,819.22
424,819.2155
426,819.2114
428,819.2077
430,819.2042
432,819.201
434,819.198
436,819.1952
438,819.1925
440,819.1899
442,819.1875
444,819.1852
446,819.183
448,819.1808
450,819.1788

File: UMD-FSRI_Gasification_q50_Temp_R2.csv
s,K
Time,T_back
0,293
2,293
4,293
6,293.0001
8,293.0026
10,293.0165
12,293.0597
14,293.1572
16,293.3348
18,293.6135
20,294.0076
22,294.5246
24,295.1671
26,295.934
28,296.822
30,297.8251
32,298.9362
34,300.1475
36,301.4511
38,302.8388
40,304.302
42,305.833
44,307.4243
46,309.0692
48,310.7614
50,312.4952
52,314.2652
54,316.0663
56,317.8937
58,319.7432
60,321.6108
62,323.4933
64,325.3881
66,327.2924
68,329.2043
70,331.1214
72,333.0416
74,334.9628
76,336.8835
78,338.8029
80,340.7197
82,342.6331
84,344.5422
86,346.446
88,348.3443
90,350.2371
92,352.1244
94,354.0052
96,355.8787
98,357.745
100,359.604
102,361.456
104,363.3011
106,365.139
108,366.969
110,368.7906
112,370.6032
114,372.4066
116,374.2008
118,375.9854
120,377.761
122,379.5284
124,381.2887
126,383.0423
128,384.7894
130,386.5341
132,388.2997
134,390.045
136,391.7742
138,393.4951
140,395.2107
142,396.9219
144,398.6289
146,400.332
148,402.0319
150,403.7308
152,405.4304
154,407.1291
156,408.8231
158,410.5118
160,412.1952
162,413.8732
164,415.5464
166,417.2163
168,418.885
170,420.5528
172,422.2189
174,423.8834
176,425.5468
178,427.2088
180,428.8697
182,430.5294
184,432.1871
186,433.843
188,435.4985
190,437.1545
192,438.8104
194,440.4653
196,442.1198
198,443.7771
200,445.438
202,447.1013
204,448.7666
206,450.4354
208,452.1123
210,453.7884
212,455.4593
214,457.1278
216,458.7993
218,460.4798
220,462.1731
222,463.8698
224,465.5683
226,467.2716
228,468.9796
230,470.7038
232,472.4521
234,474.2275
236,476.0298
238,477.8753
240,479.7349
242,481.5968
244,483.4724
246,485.3728
248,487.3033
250,489.2662
252,491.2714
254,493.3051
256,495.3868
258,497.4803
260,499.5669
262,501.6597
264,503.7571
266,505.892
268,508.1144
270,510.3189
272,512.5534
274,514.8215
276,517.0777
278,519.3311
280,521.6086
282,524.1311
284,526.4547
286,528.7702
288,531.6364
290,533.8487
292,536.225
294,538.6502
296,541.1311
298,543.5941
300,546.1038
302,548.6687
304,551.3889
306,554.3565
308,556.933
310,559.7836
312,562.4791
314,565.1838
316,568.3499
318,571.0766
320,574.0816
322,576.8977
324,580.3678
326,583.7253
328,586.6385
330,589.4489
332,592.1055
334,596.4623
336,599.328
338,602.4556
340,605.7365
342,611.6337
344,614.8276
346,620.908
348,622.3351
350,626.9554
352,632.0809
354,635.199
356,641.6399
358,644.9883
360,652.3194
362,664.1236
364,670.7459
366,676.0283
368,674.6365
370,687.5542
372,693.5374
374,716.489
376,702.7091
378,718.3772
380,734.9368
382,733.5926
384,755.3791
386,756.7837
388,775.3231
390,777.5104
392,764.8815
394,798.518
396,808.8551
398,809.9954
400,809.0402
402,808.2647
404,808.0566
406,809.0416
408,808.2702
410,808.3018
412,808.4096
414,826.2713
416,824.7751
418,823.7259
420,822.9523
422,822.3703
424,821.9274
426,821.5879
428,821.3261
430,821.1234
432,820.9657
434,820.8425
436,820.7459
438,820.6697
440,820.6093
442,820.5613
444,820.5227
446,820.4916
448,820.4663
450,820.4456

File: UMD-FSRI_Gasification_q50_Temp_R4.csv
s,K
Time,T_back
0,294
2,294
4,294
6,294.0002
8,294.0029
10,294.0178
12,294.063
14,294.162
16,294.3394
18,294.6158
20,295.0059
22,295.5184
24,296.1571
26,296.9212
28,297.8075
30,298.8103
32,299.9226
34,301.1365
36,302.4437
38,303.8352
40,305.3023
42,306.8371
44,308.432
46,310.0799
48,311.7745
50,313.51
52,315.2808
54,317.0817
56,318.9082
58,320.7561
60,322.6217
62,324.5019
64,326.3936
66,328.2939
68,330.2002
70,332.1104
72,334.0229
74,335.9359
76,337.8483
78,339.7592
80,341.6672
82,343.5716
84,345.4716
86,347.3662
88,349.2551
90,351.1374
92,353.0131
94,354.8821
96,356.7442
98,358.599
100,360.446
102,362.2854
104,364.117
106,365.9407
108,367.7563
110,369.5637
112,371.3634
114,373.1556
116,374.941
118,376.72
120,378.4928
122,380.2594
124,382.0199
126,383.7743
128,385.5227
130,387.2652
132,389.0028
134,390.7374
136,392.4701
138,394.1995
140,395.9245
142,397.6443
144,399.3592
146,401.0691
148,402.774
150,404.4737
152,406.1683
154,407.8591
156,409.5474
158,411.2328
160,412.9148
162,414.5933
164,416.2683
166,417.9404
168,419.6107
170,421.28
172,422.9482
174,424.6141
176,426.2764
178,427.9344
180,429.5892
182,431.2422
184,432.8927
186,434.5421
188,436.191
190,437.8395
192,439.4865
194,441.1305
196,442.7716
198,444.4123
200,446.0548
202,447.7006
204,449.3597
206,451.0141
208,452.6594
210,454.2985
212,455.9359
214,457.5743
216,459.2197
218,460.8745
220,462.5372
222,464.2121
224,465.8939
226,467.5848
228,469.2956
230,471.0555
232,472.9386
234,474.6832
236,476.4587
238,478.2604
240,480.0908
242,481.9506
244,483.8419
246,485.7649
248,487.7105
250,489.6837
252,491.6887
254,493.733
256,495.8026
258,497.9235
260,500.0655
262,502.2177
264,504.3939
266,506.5596
268,508.7275
270,510.9038
272,513.142
274,515.4095
276,517.7198
278,520.0427
280,522.4105
282,524.7886
284,527.159
286,529.5456
288,532.0061
290,534.499
292,537.0084
294,539.3904
296,541.9302
298,544.4682
300,547.1374
302,549.8305
304,552.467
306,555.1585
308,558.1381
310,561.0546
312,563.7555
314,566.9526
316,569.601
318,572.604
320,576.1088
322,578.9548
324,581.8691
326,584.8903
328,587.787
330,590.7459
332,594.5821
334,598.0824
336,601.4897
338,604.5946
340,609.2727
342,612.942
344,617.1799
346,620.4439
348,628.3568
350,629.0988
352,636.9841
354,636.5144
356,644.1032
358,646.627
360,657.7314
362,658.2101
364,670.2274
366,676.6108
368,685.8855
370,688.9832
372,698.213
374,703.2274
376,710.5174
378,719.4731
380,727.7425
382,744.4026
384,743.5786
386,759.1376
388,770.053
390,781.9488
392,937.1881
394,807.2609
396,807.0585
398,808.8756
400,836.48
402,831.9607
404,829.0988
406,827.0847
408,825.6135
410,824.5184
412,823.6937
414,823.0677
416,822.5896
418,822.2228
420,821.9402
422,821.7216
424,821.5519
426,821.4197
428,821.3163
430,821.2351
432,821.171
434,821.1202
436,821.0796
438,821.0469
440,821.0205
442,820.9989
444,820.9811
446,820.9663
448,820.9538
450,820.9432

File: UMD-FSRI_Gasification_q50_Temp_R5.csv
s,K
Time,T_back
0,294
2,294
4,294
6,294.0001
8,294.0015
10,294.0107
12,294.0428
14,294.1195
16,294.2641
18,294.4966
20,294.8324
22,295.2815
24,295.8484
26,296.5337
28,297.3349
30,298.2474
32,299.2652
34,300.3807
36,301.5864
38,302.8751
40,304.2395
42,305.6726
44,307.1674
46,308.717
48,310.3152
50,311.9561
52,313.6343
54,315.3447
56,317.0828
58,318.8446
60,320.6262
62,322.4243
64,324.2356
66,326.0575
68,327.8877
70,329.7244
72,331.566
74,333.4111
76,335.2583
78,337.1065
80,338.9547
82,340.8018
84,342.6467
86,344.4881
88,346.3252
90,348.1575
92,349.9851
94,351.8075
96,353.6241
98,355.4344
100,357.2383
102,359.036
104,360.8273
106,362.6118
108,364.3893
110,366.1595
112,367.9222
114,369.6776
116,371.4258
118,373.167
120,374.901
122,376.6279
124,378.3477
126,380.0608
128,381.7675
130,383.4689
132,385.1658
134,386.8579
136,388.5445
138,390.2254
140,391.9006
142,393.5708
144,395.236
146,396.8964
148,398.5517
150,400.2025
152,401.8495
154,403.4932
156,405.133
158,406.769
160,408.4014
162,410.031
164,411.6581
166,413.2833
168,414.9069
170,416.5288
172,418.1486
174,419.767
176,421.3846
178,423.0024
180,424.6204
182,426.2389
184,427.8581
186,429.4788
188,431.0999
190,432.7206
192,434.3403
194,435.9609
196,437.5878
198,439.2148
200,440.8393
202,442.4619
204,444.0838
206,445.7065
208,447.3321
210,448.9641
212,450.6006
214,452.2378
216,453.8736
218,455.5095
220,457.1526
222,458.8027
224,460.4573
226,462.1174
228,463.7854
230,465.4553
232,467.1202
234,468.7923
236,470.4853
238,472.2024
240,473.9412
242,475.7181
244,477.5288
246,479.3592
248,481.213
250,483.0893
252,484.9959
254,486.9379
256,488.9176
258,490.9207
260,492.9394
262,494.9955
264,497.0793
266,499.1986
268,501.3032
270,503.4121
272,505.5449
274,507.6879
276,509.8373
278,511.9942
280,514.1648
282,516.4126
284,518.624
286,520.8331
288,523.7138
290,525.5725
292,527.7868
294,530.059
296,532.3615
298,534.7146
300,537.1027
302,539.4862
304,541.9494
306,544.4244
308,547.0843
310,549.5046
312,552.0296
314,554.7087
316,557.8
318,560.3877
320,563.662
322,566.2857
324,569.2288
326,571.8072
328,574.9193
330,578.2187
332,581.7147
334,585.3328
336,588.3466
338,593.027
340,595.9502
342,598.7293
344,601.9936
346,606.1424
348,610.2829
350,613.833
352,617.2684
354,620.5833
356,626.674
358,628.6789
360,633.2103
362,636.8111
364,642.9818
366,650.3701
368,654.055
370,657.1536
372,665.6611
374,670.5626
376,680.753
378,686.6179
380,687.2715
382,694.6621
384,707.856
386,715.8724
388,719.624
390,732.1836
392,736.3821
394,746.1767
396,755.814
398,768.0281
400,784.0789
402,850.9746
404,847.5357
406,851.312
408,845.0026
410,841.1251
412,838.4258
414,836.4893
416,835.0857
418,834.0628
420,833.3143
422,832.7647
424,832.3594
426,832.0594
428,831.8363
430,831.6694
432,831.5438
434,831.4485
436,831.3757
438,831.3194
440,831.2754
442,831.2405
444,831.2125
446,831.1897
448,831.1708
450,831.1549