Folder: matl-db/PMMA/Validation_Results/UMD-FSRI

Note: PMMA/Validation_Results/UMD-FSRI/README.md
### Contributor
Name: Dushyant M. Chaudhari, Stanislav I. Stoliarov

Institution: Fire Safety Research Institute (FSRI), University of Maryland College Park (UMD)

Country: U.S.A

------------------

### Test case

[NIST Gasification Apparatus](https://github.com/MaCFP/matl-db/tree/master/PMMA/Validation_Data/NIST_Gasification_Apparatus)

------------------

### CFD package
Code: ThermaKin2Ds

Version: 7

------------------

### Resolution

#### Computational domain discretization (flow solver)
Domain: 

|File Name|Sample Mass (g)|Sample Thickness (mm)|Kaowool Thickness (mm)|Initial Temperature (K)|
|:------------------------------------|:----:|:----:|:----:|:----:|
|UMD-FSRI_Gasification_q50_Temp_Copper|-|3.175|26.055|292|
|UMD-FSRI_Gasification_q50_Temp_Kaowool|-|28.6|0|292|
|UMD-FSRI_Gasification_q25_Temp_R1|28.093|6.26|22.8|295|
|UMD-FSRI_Gasification_q25_Temp_R2|27.75|6.15|22.8|295|
|UMD-FSRI_Gasification_q25_Temp_R3|26.077|5.8|22.8|295|
|UMD-FSRI_Gasification_q50_Mass_R3|26.689|5.74|22.8|292|
|UMD-FSRI_Gasification_q50_Mass_R4|25.643|5.51|22.8|292|
|UMD-FSRI_Gasification_q50_Mass_R5|28.113|6.04|22.8|292|
|UMD-FSRI_Gasification_q50_Temp_R1|24.303|5.35|22.8|292|
|UMD-FSRI_Gasification_q50_Temp_R2|25.136|5.52|22.8|293|
|UMD-FSRI_Gasification_q50_Temp_R3|27.877|6.12|22.8|293|
|UMD-FSRI_Gasification_q50_Temp_R4|27.499|6.1|22.8|294|
|UMD-FSRI_Gasification_q50_Temp_R5|28.187|6.25|22.8|294|

Cell size: 

|File Name|Element size (m)|Total Initial cells (-)|
|:----|:----:|:----:|
|UMD-FSRI_Gasification_q50_Temp_Copper|1.5875E-04|184|
|UMD-FSRI_Gasification_q50_Temp_Kaowool|2.8600E-04|100|
|UMD-FSRI_Gasification_q25_Temp_R1|1.1400E-04|256|
|UMD-FSRI_Gasification_q25_Temp_R2|1.1400E-04|255|
|UMD-FSRI_Gasification_q25_Temp_R3|1.1400E-04|252|
|UMD-FSRI_Gasification_q50_Mass_R3|1.1400E-04|250|
|UMD-FSRI_Gasification_q50_Mass_R4|1.1400E-04|248|
|UMD-FSRI_Gasification_q50_Mass_R5|1.1400E-04|253|
|UMD-FSRI_Gasification_q50_Temp_R1|1.1400E-04|248|
|UMD-FSRI_Gasification_q50_Temp_R2|1.1400E-04|249|
|UMD-FSRI_Gasification_q50_Temp_R3|1.1400E-04|255|
|UMD-FSRI_Gasification_q50_Temp_R4|1.1400E-04|255|
|UMD-FSRI_Gasification_q50_Temp_R5|1.1400E-04|256|

Cell type: 1D

Total cells: See `Total Initial cells (-)` column in the above table. Total number of cells change due to thickness change.

Comments: 
- Sample thicknesses for q50_Mass_R3, q50_Mass_R4, and q50_Mass_R5 simulations were adjusted using the density of black PMMA (1210 kg m<sup>3</sup> used in the pyrolysis model) such that sample mass exactly matched to those reported in the NIST gasification experiments. 
- Epoxy layer and its degradation not considered in any simulations

#### Angular space discretization (radiation solver)
Number of solid angles: N/A

Comments:

------------------

### Initial conditions
Comments: See `Initial Temperature (K)` column in the above table

------------------

### Boundary conditions
Comments: 

- Convective heat transfer coefficient - 8 W m<sup>-2</sup> K<sup>-1</sup> 

File: UMD-FSRI_Gasification_q25_Temp_R1.csv
s,K
Time,T_back
0,295
3,295
6,295.0002
9,295.0046
12,295.0349
15,295.1352
18,295.3566
21,295.7382
24,296.3015
27,297.0531
30,297.9888
33,299.0971
36,300.3628
39,301.7698
42,303.3018
45,304.9426
48,306.677
51,308.4914
54,310.3739
57,312.3139
60,314.3026
63,316.3322
66,318.3961
69,320.4887
72,322.6046
75,324.7381
78,326.884
81,329.0376
84,331.1952
87,333.3533
90,335.5095
93,337.6618
96,339.8088
99,341.9499
102,344.084
105,346.21
108,348.3266
111,350.4325
114,352.5264
117,354.6068
120,356.673
123,358.7243
126,360.7603
129,362.7806
132,364.7848
135,366.7726
138,368.7435
141,370.697
144,372.633
147,374.5513
150,376.4519
153,378.3346
156,380.1993
159,382.046
162,383.8748
165,385.6855
168,387.4781
171,389.2525
174,391.0088
177,392.7466
180,394.4661
183,396.1672
186,397.8498
189,399.5141
192,401.1603
195,402.7884
198,404.3987
201,405.9917
204,407.5678
207,409.127
210,410.6694
213,412.1951
216,413.7045
219,415.1977
222,416.6747
225,418.1353
228,419.5797
231,421.0079
234,422.4201
237,423.8166
240,425.1976
243,426.5633
246,427.9137
249,429.2489
252,430.5689
255,431.8738
258,433.1639
261,434.4397
264,435.7015
267,436.9498
270,438.1851
273,439.4073
276,440.6163
279,441.8122
282,442.9949
285,444.1648
288,445.3223
291,446.4678
294,447.6017
297,448.7243
300,449.8358
303,450.9366
306,452.0269
309,453.1073
312,454.1783
315,455.2405
318,456.2949
321,457.342
324,458.3824
327,459.4165
330,460.4451
333,461.4694
336,462.4899
339,463.5075
342,464.523
345,465.5373
348,466.5509
351,467.5643
354,468.5777
357,469.5917
360,470.6064
363,471.6216
366,472.637
369,473.6523
372,474.6673
375,475.6819
378,476.6957
381,477.7083
384,478.719
387,479.727
390,480.732
393,481.7335
396,482.7312
399,483.7245
402,484.7132
405,485.6968
408,486.6752
411,487.6481
414,488.6156
417,489.5776
420,490.5337
423,491.4841
426,492.4286
429,493.3672
432,494.3003
435,495.2281
438,496.1512
441,497.0695
444,497.9829
447,498.8911
450,499.7941
453,500.6917
456,501.5843
459,502.4718
462,503.3545
465,504.233
468,505.1077
471,505.979
474,506.8471
477,507.7122
480,508.5743
483,509.4335
486,510.2899
489,511.1434
492,511.9941
495,512.8421
498,513.6865
501,514.527
504,515.3635
507,516.1968
510,517.0274
513,517.8553
516,518.6809
519,519.5037
522,520.3235
525,521.1398
528,521.9526
531,522.7621
534,523.5688
537,524.3731
540,525.1748
543,525.9739
546,526.7702
549,527.567
552,528.3627
555,529.1556
558,529.9445
561,530.7288
564,531.5098
567,532.2884
570,533.0655
573,533.8415
576,534.6155
579,535.387
582,536.156
585,536.9305
588,537.7033
591,538.4685
594,539.2291
597,539.9871
600,540.7431
603,541.4981
606,542.2551
609,543.0158
612,543.7752
615,544.5303
618,545.2798
621,546.023
624,546.7604
627,547.4945
630,548.2269
633,548.9573
636,549.6856
639,550.4153
642,551.1456
645,551.8747
648,552.6027
651,553.3261
654,554.0439
657,554.7556
660,555.4637
663,556.1725
666,556.8891
669,557.6059
672,558.3146
675,559.0299
678,559.7434
681,560.4468
684,561.1497
687,561.8614
690,562.5911
693,563.3123
696,564.0309
699,564.7402
702,565.469
705,566.1852
708,566.8912
711,567.5849
714,568.268
717,568.9502
720,569.7727
723,570.3993
726,571.089
729,571.7834
732,572.4842
735,573.1871
738,574.0053
741,574.6849
744,575.489
747,576.2364
750,576.9249

File: UMD-FSRI_Gasification_q25_Temp_R2.csv
s,K
Time,T_back
0,295
3,295
6,295.0001
9,295.0036
12,295.0296
15,295.1191
18,295.3204
21,295.6728
24,296.1989
27,296.9078
30,297.798
33,298.8599
36,300.0799
39,301.4412
42,302.9268
45,304.5215
48,306.2119
51,307.9858
54,309.8317
57,311.7392
60,313.6986
63,315.7014
66,317.7406
69,319.8096
72,321.9022
75,324.0127
78,326.1366
81,328.27
84,330.4101
87,332.5542
90,334.6998
93,336.8448
96,338.9873
99,341.1254
102,343.257
105,345.3801
108,347.4933
111,349.5951
114,351.685
117,353.7623
120,355.8266
123,357.8772
126,359.9135
129,361.9348
132,363.9406
135,365.9301
138,367.9031
141,369.8592
144,371.7982
147,373.7199
150,375.6243
153,377.5114
156,379.381
159,381.2326
162,383.066
165,384.8811
168,386.6776
171,388.4556
174,390.2149
177,391.9556
180,393.6781
183,395.3826
186,397.0693
189,398.7384
192,400.3902
195,402.0249
198,403.6425
201,405.243
204,406.8263
207,408.3924
210,409.9415
213,411.4741
216,412.9902
219,414.4896
222,415.9725
225,417.439
228,418.8895
231,420.3239
234,421.7424
237,423.1451
240,424.5322
243,425.9039
246,427.2602
249,428.6013
252,429.9274
255,431.2384
258,432.5349
261,433.817
264,435.0849
267,436.339
270,437.5792
273,438.8056
276,440.0185
279,441.2179
282,442.4042
285,443.5777
288,444.739
291,445.8883
294,447.0258
297,448.1521
300,449.2673
303,450.3719
306,451.4662
309,452.5509
312,453.6266
315,454.6934
318,455.7518
321,456.8023
324,457.8456
327,458.8824
330,459.9137
333,460.9404
336,461.9633
339,462.9835
342,464.0016
345,465.0182
348,466.0336
351,467.048
354,468.0618
357,469.0751
360,470.0882
363,471.1012
366,472.1141
369,473.1267
372,474.1388
375,475.1505
378,476.1614
381,477.1711
384,478.1791
387,479.1857
390,480.1901
393,481.1909
396,482.1875
399,483.1794
402,484.1666
405,485.149
408,486.1262
411,487.0981
414,488.0647
417,489.0263
420,489.9828
423,490.9342
426,491.8801
429,492.8205
432,493.7555
435,494.6854
438,495.6103
441,496.5303
444,497.4456
447,498.3563
450,499.2625
453,500.1645
456,501.0624
459,501.9564
462,502.8466
465,503.7335
468,504.6168
471,505.4956
474,506.3698
477,507.2398
480,508.1064
483,508.97
486,509.832
489,510.6923
492,511.55
495,512.4048
498,513.2565
501,514.1052
504,514.9512
507,515.7946
510,516.6346
513,517.4716
516,518.3059
519,519.1367
522,519.9631
525,520.7847
528,521.6013
531,522.4127
534,523.2189
537,524.0204
540,524.818
543,525.6145
546,526.4096
549,527.2037
552,527.9959
555,528.7848
558,529.569
561,530.3488
564,531.1247
567,531.8978
570,532.6694
573,533.438
576,534.2032
579,534.9671
582,535.7312
585,536.494
588,537.2546
591,538.0124
594,538.7671
597,539.5195
600,540.2717
603,541.0222
606,541.7685
609,542.5094
612,543.2454
615,543.9785
618,544.7099
621,545.4417
624,546.1761
627,546.9132
630,547.651
633,548.3874
636,549.1261
639,549.8652
642,550.6001
645,551.3387
648,552.07
651,552.7932
654,553.5131
657,554.2338
660,554.951
663,555.6635
666,556.3741
669,557.084
672,557.7939
675,558.5128
678,559.2244
681,559.927
684,560.6293
687,561.3539
690,562.0759
693,562.7992
696,563.533
699,564.2761
702,565.0033
705,565.7194
708,566.4763
711,567.1897
714,567.8844
717,568.7098
720,569.3685
723,570.062
726,570.7593
729,571.4667
732,572.1861
735,572.9044
738,573.694
741,574.435
744,575.1704
747,575.902
750,576.6156

File: UMD-FSRI_Gasification_q25_Temp_R3.csv
s,K
Time,T_back
0,295
3,295
6,295.0002
9,295.0085
12,295.0656
15,295.2365
18,295.5789
21,296.1298
24,296.9045
27,297.899
30,299.0978
33,300.4818
36,302.0312
39,303.7248
42,305.5412
45,307.4624
48,309.4721
51,311.5562
54,313.7025
57,315.9003
60,318.1398
63,320.4135
66,322.7145
69,325.036
72,327.3726
75,329.7198
78,332.0745
81,334.4323
84,336.789
87,339.142
90,341.4891
93,343.8278
96,346.156
99,348.4727
102,350.7824
105,353.078
108,355.3563
111,357.6172
114,359.86
117,362.0843
120,364.2897
123,366.4761
126,368.6429
129,370.7898
132,372.9163
135,375.022
138,377.1064
141,379.1694
144,381.2107
147,383.2305
150,385.229
153,387.2065
156,389.1633
159,391.0992
162,393.0142
165,394.9081
168,396.7807
171,398.6319
174,400.4619
177,402.271
180,404.0593
183,405.8269
186,407.5739
189,409.3003
192,411.006
195,412.6912
198,414.3559
201,416.0002
204,417.6243
207,419.2287
210,420.8136
213,422.3793
216,423.9258
219,425.4537
222,426.9635
225,428.4554
228,429.9296
231,431.3863
234,432.8258
237,434.2481
240,435.6532
243,437.0409
246,438.4111
249,439.7642
252,441.1006
255,442.4205
258,443.7243
261,445.0125
264,446.2855
267,447.5445
270,448.7898
273,450.0215
276,451.2397
279,452.4448
282,453.6373
285,454.8178
288,455.9871
291,457.1459
294,458.2949
297,459.4351
300,460.5678
303,461.6947
306,462.8169
309,463.935
312,465.0491
315,466.1595
318,467.2669
321,468.372
324,469.4752
327,470.5772
330,471.6782
333,472.7781
336,473.877
339,474.975
342,476.0718
345,477.1672
348,478.2607
351,479.3516
354,480.44
357,481.5249
360,482.6055
363,483.6812
366,484.7512
369,485.8151
372,486.8725
375,487.9231
378,488.9666
381,490.0029
384,491.0324
387,492.0552
390,493.0716
393,494.0822
396,495.0873
399,496.0876
402,497.0834
405,498.0746
408,499.0613
411,500.043
414,501.0189
417,501.9886
420,502.9522
423,503.9095
426,504.8607
429,505.8057
432,506.7454
435,507.6809
438,508.6128
441,509.5412
444,510.4663
447,511.3881
450,512.3062
453,513.2207
456,514.1311
459,515.0366
462,515.937
465,516.8314
468,517.7196
471,518.6019
474,519.479
477,520.3514
480,521.2196
483,522.0835
486,522.9452
489,523.8036
492,524.6563
495,525.5038
498,526.3484
501,527.1908
504,528.0299
507,528.8648
510,529.6958
513,530.5228
516,531.3468
519,532.1698
522,532.9921
525,533.8137
528,534.635
531,535.4562
534,536.2807
537,537.1045
540,537.9207
543,538.7286
546,539.5286
549,540.3224
552,541.1125
555,541.9014
558,542.6895
561,543.4761
564,544.259
567,545.0396
570,545.8209
573,546.6001
576,547.3774
579,548.1571
582,548.9353
585,549.7106
588,550.4833
591,551.2548
594,552.0268
597,552.7937
600,553.5518
603,554.3023
606,555.0523
609,555.7964
612,556.5349
615,557.2693
618,558.0213
621,558.8159
624,559.5971
627,560.3579
630,561.1023
633,561.8436
636,562.578
639,563.3067
642,564.0282
645,564.742
648,565.4505
651,566.1542
654,566.8549
657,567.5588
660,568.2726
663,568.9764
666,569.6829
669,570.4086
672,571.1556
675,571.8889
678,572.6473
681,573.4081
684,574.1568
687,574.9005
690,575.6239
693,576.3561
696,577.0708
699,577.7793
702,578.4899
705,579.2377
708,580.0039
711,580.7725
714,581.5235
717,582.2618
720,583.0139
723,583.8018
726,584.7518
729,585.4139
732,586.1046
735,586.9036
738,587.7251
741,588.4918
744,589.5597
747,590.3698
750,591.0337

File: UMD-FSRI_Gasification_q50_Mass_R3.csv
s,g,g/m2/s
Time,Mass,MassLossRate
0,26.729,0
2,26.729,0
4,26.729,0.000139782
6,26.729,0.007978064
8,26.7287,0.1158652
10,26.7263,0.5446245
12,26.7178,1.625932
14,26.7027,2.141798
16,26.6904,1.379703
18,26.6805,1.209751
20,26.6719,1.16903
22,26.6633,1.030695
24,26.6554,1.050319
26,26.6468,1.193267
28,26.6368,1.515971
30,26.6238,1.905692
32,26.6065,2.475941
34,26.5843,3.46922
36,26.5527,4.857919
38,26.5118,5.779411
40,26.4653,6.185531
42,26.4099,7.83069
44,26.3455,8.579303
46,26.2748,9.646254
48,26.1971,10.68229
50,26.1163,10.80392
52,26.0265,11.55416
54,25.9364,11.27887
56,25.8462,11.9119
58,25.7567,11.91739
60,25.659,12.88915
62,25.5578,13.09725
64,25.4574,13.42615
66,25.3549,13.09638
68,25.252,14.06883
70,25.1415,14.07131
72,25.03,14.19563
74,24.9233,14.2001
76,24.8145,14.42614
78,24.6977,15.68232
80,24.5784,15.0155
82,24.4596,15.59216
84,24.3393,15.66963
86,24.2205,15.6159
88,24.1027,15.18863
90,23.9872,15.22878
92,23.8655,16.3905
94,23.7404,15.96326
96,23.6153,16.4493
98,23.4923,16.29151
100,23.3701,15.52698
102,23.2537,15.09631
104,23.1302,17.16476
106,22.9979,17.13008
108,22.866,16.3655
110,22.7335,17.4673
112,22.5983,17.48368
114,22.4675,17.53082
116,22.3319,17.94157
118,22.1983,17.11133
120,22.0669,16.79992
122,21.9349,17.5954
124,21.7957,17.91555
126,21.6567,18.02172
128,21.5141,18.68417
130,21.3665,19.53074
132,21.2201,18.56718
134,21.0775,18.26188
136,20.9408,17.77464
138,20.7978,19.48576
140,20.6521,18.83489
142,20.5021,20.11236
144,20.3576,18.75175
146,20.2089,18.71806
148,20.0686,18.15492
150,19.9281,18.49045
152,19.7795,19.48361
154,19.6304,19.01608
156,19.478,20.77299
158,19.3218,19.64351
160,19.1718,19.53955
162,19.0244,18.96071
164,18.8769,19.3833
166,18.725,20.07415
168,18.5706,19.8645
170,18.4157,20.71057
172,18.2571,19.53066
174,18.106,19.20371
176,17.9598,19.38556
178,17.8045,21.72413
180,17.6446,20.10381
182,17.4882,20.00838
184,17.3338,20.55156
186,17.1748,19.91184
188,17.02,20.20844
190,16.8591,21.37456
192,16.6989,20.74381
194,16.5411,20.85031
196,16.3779,21.2993
198,16.2188,20.5327
200,16.0583,20.24495
202,15.8977,20.81831
204,15.7359,21.43585
206,15.573,20.8496
208,15.4119,20.25736
210,15.2524,21.09893
212,15.0937,20.6873
214,14.9311,21.98266
216,14.7641,21.29265
218,14.6005,21.84538
220,14.4361,22.36715
222,14.2686,21.33723
224,14.1016,21.91811
226,13.9352,20.99102
228,13.7709,21.59052
230,13.6031,21.34476
232,13.4438,20.96044
234,13.27492,22.73458
236,13.1109,21.22073
238,12.9486,21.06351
240,12.7852,21.37348
242,12.6129,22.74102
244,12.4389,22.91973
246,12.2627,22.84937
248,12.0867,22.28371
250,11.9152,23.08486
252,11.7298,24.36297
254,11.5529,22.38535
256,11.3761,23.43258
258,11.1936,23.77283
260,11.0149,23.16352
262,10.8344,24.16916
264,10.6529,23.01164
266,10.4774,22.99886
268,10.2935,23.48486
270,10.1085,24.3401
272,9.92222,24.02047
274,9.74088,24.15153
276,9.55612,24.77393
278,9.36867,24.58985
280,9.17911,24.57173
282,8.98785,24.89228
284,8.79837,24.3156
286,8.60742,24.52209
288,8.41264,25.47366
290,8.21278,25.67616
292,8.01026,26.60947
294,7.80914,25.79362
296,7.61215,25.66152
298,7.4118,26.07357
300,7.21026,26.75834
302,7.01017,26.83489
304,6.80876,26.29444
306,6.60524,27.26269
308,6.39443,28.47186
310,6.18441,27.13299
312,5.97189,28.07334
314,5.75552,27.69886
316,5.54093,27.37617
318,5.32817,27.38158
320,5.11292,28.0607
322,4.89127,28.94232
324,4.66353,30.12769
326,4.43436,29.41605
328,4.20621,29.79942
330,3.9766,29.89543
332,3.73932,30.14181
334,3.50859,29.79861
336,3.27297,30.29407
338,3.03747,30.38696
340,2.79981,31.25013
342,2.5572,31.39999
344,2.31622,31.41393
346,2.07935,30.39428
348,1.84285,30.13062
350,1.61112,29.96284
352,1.3818,29.76136
354,1.1565,29.30344
356,0.937614,27.13662
358,0.731263,27.19958
360,0.535843,23.22361
362,0.353515,21.01312
364,0.19101,18.75278
366,0.0647194,9.36895
368,0.0534357,1.14E-07
370,0.0534357,3.61E-25
372,0.0534357,7.39E-46
374,0.0534357,7.35E-46
376,0.0534357,7.35E-46
378,0.0534357,7.35E-46
380,0.0534357,7.35E-46
382,0.0534357,7.35E-46
384,0.0534357,7.35E-46
386,0.0534357,7.35E-46
388,0.0534357,7.35E-46
390,0.0534357,7.35E-46
392,0.0534357,7.35E-46
394,0.0534357,7.35E-46
396,0.0534357,7.35E-46
398,0.0534357,7.35E-46
400,0.0534357,7.35E-46
402,0.0534357,7.35E-46
404,0.0534357,7.35E-46
406,0.0534357,7.35E-46
408,0.0534357,7.35E-46
410,0.0534357,7.35E-46
412,0.0534357,7.35E-46
414,0.0534357,7.35E-46
416,0.0534357,7.35E-46
418,0.0534357,7.35E-46
420,0.0534357,7.35E-46
422,0.0534357,7.35E-46
424,0.0534357,7.35E-46
426,0.0534357,7.35E-46
428,0.0534357,7.35E-46
430,0.0534357,7.35E-46
432,0.0534357,7.35E-46
434,0.0534357,7.35E-46
436,0.0534357,7.35E-46
438,0.0534357,7.35E-46
440,0.0534357,7.35E-46
442,0.0534357,7.35E-46
444,0.0534357,7.35E-46
446,0.0534357,7.35E-46
448,0.0534357,7.35E-46
450,0.0534357,7.35E-46

File: UMD-FSRI_Gasification_q50_Mass_R4.csv
s,g,g/m2/s
Time,Mass,MassLossRate
0,25.658,0
2,25.658,0
4,25.658,0.000160637
6,25.658,0.007950582
8,25.6577,0.08947034
10,25.6558,0.5313281
12,25.6477,1.774743
14,25.6317,1.87394
16,25.6195,1.39407
18,25.6095,1.217869
20,25.6005,1.091017
22,25.5923,1.038936
24,25.5844,1.0479
26,25.5756,1.290803
28,25.565,1.536375
30,25.5518,1.924351
32,25.5351,2.490423
34,25.5112,3.767328
36,25.4772,4.823724
38,25.4361,5.68622
40,25.3871,6.978748
42,25.3267,8.354822
44,25.2606,8.962351
46,25.1932,9.117444
48,25.1203,9.634727
50,25.0394,11.2663
52,24.9559,10.33509
54,24.8693,11.90077
56,24.7776,12.02548
58,24.6838,12.47374
60,24.5876,12.51979
62,24.4875,13.01442
64,24.3871,13.16072
66,24.2833,13.9431
68,24.1744,14.5267
70,24.0655,14.35733
72,23.9525,14.31121
74,23.8391,15.81301
76,23.7263,14.0753
78,23.6175,14.24194
80,23.5036,15.02646
82,23.3842,15.58543
84,23.2622,16.33586
86,23.141,15.27435
88,23.025,15.634
90,22.9039,16.27692
92,22.7776,16.92316
94,22.6512,15.07443
96,22.5316,15.47681
98,22.4073,16.72608
100,22.2775,17.60492
102,22.1524,15.99897
104,22.0278,15.60914
106,21.9027,17.0253
108,21.7673,17.47323
110,21.6353,17.66422
112,21.5021,17.05184
114,21.372,16.82834
116,21.2405,17.23692
118,21.1056,18.4802
120,20.9641,17.91602
122,20.8309,17.93663
124,20.6903,18.0032
126,20.5516,18.13711
128,20.4154,17.67086
130,20.2753,19.33083
132,20.1297,17.81808
134,19.9932,18.66259
136,19.8477,18.63553
138,19.6961,19.86066
140,19.5486,18.95967
142,19.4048,18.8312
144,19.2588,18.52214
146,19.1104,19.20366
148,18.9634,19.34586
150,18.8113,19.90521
152,18.6556,20.22529
154,18.5066,19.06469
156,18.3568,20.36329
158,18.2039,20.19423
160,18.0494,20.1527
162,17.8951,19.07387
164,17.745,19.27403
166,17.595,20.0701
168,17.4419,19.64169
170,17.288,20.32115
172,17.1288,20.0782
174,16.9702,20.883
176,16.8135,20.39773
178,16.6527,21.04393
180,16.4923,20.19737
182,16.3371,20.10678
184,16.1846,20.60985
186,16.0194,21.40237
188,15.8616,20.2234
190,15.706,20.25586
192,15.5462,20.51941
194,15.3865,20.97734
196,15.2226,21.26469
198,15.0593,21.53613
200,14.8874,23.10846
202,14.7224,20.26947
204,14.5674,20.31213
206,14.4083,21.52728
208,14.2484,20.67539
210,14.0842,21.4092
212,13.9156,25.31602
214,13.7439,21.40296
216,13.5827,20.41929
218,13.4201,21.07557
220,13.2594,21.04241
222,13.0961,20.78936
224,12.9343,21.96425
226,12.7624,21.9708
228,12.5906,23.35264
230,12.4193,21.58613
232,12.2542,21.5485
234,12.0825,22.02246
236,11.9097,22.5614
238,11.7315,23.49601
240,11.5529,23.09795
242,11.3767,23.8792
244,11.1955,23.10151
246,11.021,22.28161
248,10.8446,23.13512
250,10.665,24.2809
252,10.4818,23.88819
254,10.2975,23.95741
256,10.1111,24.20224
258,9.92927,23.85707
260,9.74925,22.91973
262,9.56043,24.55984
264,9.37756,23.47683
266,9.19281,23.93996
268,9.0003,25.53972
270,8.809951,23.72003
272,8.61626,25.43176
274,8.42509,25.11257
276,8.2289,25.07817
278,8.03104,26.16032
280,7.83256,26.28668
282,7.63123,25.90402
284,7.42857,27.70405
286,7.21877,26.28247
288,7.01893,25.96693
290,6.81345,26.84778
292,6.60505,27.47042
294,6.39373,27.2124
296,6.1825,27.55945
298,5.97505,27.43903
300,5.76118,27.1714
302,5.55067,27.29251
304,5.33815,27.86546
306,5.11696,28.95876
308,4.89749,28.63186
310,4.6734,29.43798
312,4.44542,29.97945
314,4.21637,29.81748
316,3.98771,29.85756
318,3.75286,30.64686
320,3.51816,30.22248
322,3.28196,30.23262
324,3.04591,30.98283
326,2.80708,31.36084
328,2.5659,30.99653
330,2.32688,31.28208
332,2.08703,31.28789
334,1.85269,30.31004
336,1.62047,30.11061
338,1.39154,29.95554
340,1.16556,28.86387
342,0.948247,28.12796
344,0.738175,26.84507
346,0.547615,24.44184
348,0.365861,21.78391
350,0.20274,19.06399
352,0.0708538,12.46896
354,0.051296,5.19E-06
356,0.051296,2.82E-23
358,0.051296,1.12E-45
360,0.051296,7.68E-46
362,0.051296,7.68E-46
364,0.051296,7.68E-46
366,0.051296,7.68E-46
368,0.051296,7.68E-46
370,0.051296,7.68E-46
372,0.051296,7.68E-46
374,0.051296,7.68E-46
376,0.051296,7.68E-46
378,0.051296,7.68E-46
380,0.051296,7.68E-46
382,0.051296,7.68E-46
384,0.051296,7.68E-46
386,0.051296,7.68E-46
388,0.051296,7.68E-46
390,0.051296,7.68E-46
392,0.051296,7.68E-46
394,0.051296,7.68E-46
396,0.051296,7.68E-46
398,0.051296,7.68E-46
400,0.051296,7.68E-46
402,0.051296,7.68E-46
404,0.051296,7.68E-46
406,0.051296,7.68E-46
408,0.051296,7.68E-46
410,0.051296,7.68E-46
412,0.051296,7.68E-46
414,0.051296,7.68E-46
416,0.051296,7.68E-46
418,0.051296,7.68E-46
420,0.051296,7.68E-46
422,0.051296,7.68E-46
424,0.051296,7.68E-46
426,0.051296,7.68E-46
428,0.051296,7.68E-46
430,0.051296,7.68E-46
432,0.051296,7.68E-46
434,0.051296,7.68E-46
436,0.051296,7.68E-46
438,0.051296,7.68E-46
440,0.051296,7.68E-46
442,0.051296,7.68E-46
444,0.051296,7.68E-46
446,0.051296,7.68E-46
448,0.051296,7.68E-46
450,0.051296,7.68E-46